text,sent48,sent9,sent8,sent15,sent3,sent2,sent1,sent14,sent7,sent6,sent5,sent4,sent57,sent56,sent55,sent54,sent53,sent52,sent51,sent50,sent13,sent12,sent11,sent10,sent17,sent16,sent59,sent58,sent93,sent92,sent91,sent90,sent97,sent96,sent95,sent94,sent98,sent22,sent23,sent20,sent21,sent26,sent27,sent24,sent25,sent28,sent29,sent68,sent69,sent66,sent67,sent64,sent65,sent62,sent63,sent60,sent61,sent31,sent30,sent33,sent32,sent35,sent34,sent37,sent36,sent39,sent38,sent79,sent78,sent75,sent74,sent77,sent76,sent71,sent70,sent73,sent72,sent19,sent49,sent18,sent44,sent45,sent84,sent85,sent86,sent87,sent80,sent81,sent82,sent83,sent40,sent41,sent42,sent43,sent88,sent89,sent46,sent47,intros.thisRepN,intros.thisTrialN,intros.thisN,intros.thisIndex,trials.thisRepN,trials.thisTrialN,trials.thisN,trials.thisIndex,testWords.thisRepN,testWords.thisTrialN,testWords.thisN,testWords.thisIndex,test1,test3,test2,test5,test4,test7,test6,test9,test8,test10,realTrials.thisRepN,realTrials.thisTrialN,realTrials.thisN,realTrials.thisIndex,words.thisRepN,words.thisTrialN,words.thisN,words.thisIndex,key_resp_3.keys,key_resp_3.rt,key_resp_8.keys,key_resp_10.keys,key_resp_10.rt,key_resp_6.keys,wordRead.keys,wordRead.rt,key_resp_5.keys,questAnswer.keys,questAnswer.rt,key_resp_6.rt,key_resp_5.rt,date,frameRate,expName,session,participant,
"Vielen Dank, dass Sie an diesem Experiment teilnehmen. Vor dem eigentlichen Experiment sehen Sie nun zuerst eine kurze Erläuterung, und Sie absolvieren ein kurze Übungsphase.

Das Experiment dauert insgesamt nicht mehr als 45 Minuten.",,,,,,,,,,,,,,,,,,,,,,,,,,,,,,,,,,,,,,,,,,,,,,,,,,,,,,,,,,,,,,,,,,,,,,,,,,,,,,,,,,,,,,,,,,,,,,,,,,,0,0,0,0,,,,,,,,,,,,,,,,,,,,,,,,,,,,,,,,,,,,,,,,2017_Jan_30_1443,59.3905616348,spr_backupper,001,Di10,
"In diesem Experiment lesen Sie deutsche Sätze, indem Sie sich von Wort zu Wort mit der Leertaste durch den Satz klicken.",,,,,,,,,,,,,,,,,,,,,,,,,,,,,,,,,,,,,,,,,,,,,,,,,,,,,,,,,,,,,,,,,,,,,,,,,,,,,,,,,,,,,,,,,,,,,,,,,,,0,1,1,1,,,,,,,,,,,,,,,,,,,,,,,,,,,,,,,,,,,,,,,,2017_Jan_30_1443,59.3905616348,spr_backupper,001,Di10,
"Sie sehen dabei immer nur das aktuelle Wort. Die Lesegeschwindigkeit bestimmen Sie vollständig selber. Vor jedem Satz sehen Sie in der Bildschirmmitte für zwei Sekunden ein + an der Stelle, an der dann die Wörter erscheinen.",,,,,,,,,,,,,,,,,,,,,,,,,,,,,,,,,,,,,,,,,,,,,,,,,,,,,,,,,,,,,,,,,,,,,,,,,,,,,,,,,,,,,,,,,,,,,,,,,,,0,2,2,2,,,,,,,,,,,,,,,,,,,,,,,,,,,,,,,,,,,,,,,,2017_Jan_30_1443,59.3905616348,spr_backupper,001,Di10,
"Nach jedem Satz wird Ihnen eine Ja/Nein-Verständnisfrage zum zuvor gelesenen Satz gestellt, die Sie mit der J-Taste für "Ja" und der N-Taste für "Nein" beantworten. Antworten Sie möglichst spontan und ohne lange Nachzudenken.",,,,,,,,,,,,,,,,,,,,,,,,,,,,,,,,,,,,,,,,,,,,,,,,,,,,,,,,,,,,,,,,,,,,,,,,,,,,,,,,,,,,,,,,,,,,,,,,,,,0,3,3,3,,,,,,,,,,,,,,,,,,,,,,,,,,,,,,,,,,,,,,,,2017_Jan_30_1443,59.3905616348,spr_backupper,001,Di10,
"Unterbrechen Sie das Experiment bitte auf keinen Fall, stellen Sie den ExperimentatorInnen nach dem Experimentbeginn keine Fragen, und lassen Sie sich nicht durch Umgebungsgeräusche ablenken.",,,,,,,,,,,,,,,,,,,,,,,,,,,,,,,,,,,,,,,,,,,,,,,,,,,,,,,,,,,,,,,,,,,,,,,,,,,,,,,,,,,,,,,,,,,,,,,,,,,0,4,4,4,,,,,,,,,,,,,,,,,,,,,,,,,,,,,,,,,,,,,,,,2017_Jan_30_1443,59.3905616348,spr_backupper,001,Di10,
"Im nächsten Schritt beantworten Sie bitte eine Frage zu Ihren Deutschkenntnissen. Danach beginnt eine Übungseinheit, mit der Sie sich an die Art der Durchführung dieses Experiments gewöhnen können.",,,,,,,,,,,,,,,,,,,,,,,,,,,,,,,,,,,,,,,,,,,,,,,,,,,,,,,,,,,,,,,,,,,,,,,,,,,,,,,,,,,,,,,,,,,,,,,,,,,0,5,5,5,,,,,,,,,,,,,,,,,,,,,,,,,,,,,,,,,,,,,,,,2017_Jan_30_1443,59.3905616348,spr_backupper,001,Di10,
,,,,,,,,,,,,,,,,,,,,,,,,,,,,,,,,,,,,,,,,,,,,,,,,,,,,,,,,,,,,,,,,,,,,,,,,,,,,,,,,,,,,,,,,,,,,,,,,,,,,,,,,,,,,,,,,,,,,,,,,,,,,,,,,,j,7.12749195099,,,,,,,,,,,,2017_Jan_30_1443,59.3905616348,spr_backupper,001,Di10,
,,,,,,,,,,,,,,,,,,,,,,,,,,,,,,,,,,,,,,,,,,,,,,,,,,,,,,,,,,,,,,,,,,,,,,,,,,,,,,,,,,,,,,,,,,,,,,,,,,,,,,,0,0,0,0,,,,,,,,,,,,,,,,,,,,,,,,,None,,,,,,,,,,,2017_Jan_30_1443,59.3905616348,spr_backupper,001,Di10,
,,,,,,,,,,,,,,,,,,,,,,,,,,,,,,,,,,,,,,,,,,,,,,,,,,,,,,,,,,,,,,,,,,,,,,,,,,,,,,,,,,,,,,,,,,,,,,,,,,,,,,,1,0,1,0,,,,,,,,,,,,,,,,,,,,,,,,,None,,,,,,,,,,,2017_Jan_30_1443,59.3905616348,spr_backupper,001,Di10,
,,,,,,,,,,,,,,,,,,,,,,,,,,,,,,,,,,,,,,,,,,,,,,,,,,,,,,,,,,,,,,,,,,,,,,,,,,,,,,,,,,,,,,,,,,,,,,,,,,,,,,,2,0,2,0,,,,,,,,,,,,,,,,,,,,,,,,,None,,,,,,,,,,,2017_Jan_30_1443,59.3905616348,spr_backupper,001,Di10,
,,,,,,,,,,,,,,,,,,,,,,,,,,,,,,,,,,,,,,,,,,,,,,,,,,,,,,,,,,,,,,,,,,,,,,,,,,,,,,,,,,,,,,,,,,,,,,,,,,,,,,,3,0,3,0,,,,,,,,,,,,,,,,,,,,,,,,,None,,,,,,,,,,,2017_Jan_30_1443,59.3905616348,spr_backupper,001,Di10,
,,,,,,,,,,,,,,,,,,,,,,,,,,,,,,,,,,,,,,,,,,,,,,,,,,,,,,,,,,,,,,,,,,,,,,,,,,,,,,,,,,,,,,,,,,,,,,,,,,,,,,,4,0,4,0,,,,,,,,,,,,,,,,,,,,,,,,,None,,,,,,,,,,,2017_Jan_30_1443,59.3905616348,spr_backupper,001,Di10,
,,,,,,,,,,,,,,,,,,,,,,,,,,,,,,,,,,,,,,,,,,,,,,,,,,,,,,,,,,,,,,,,,,,,,,,,,,,,,,,,,,,,,,,,,,,,,,,,,,,,,,,5,0,5,0,,,,,,,,,,,,,,,,,,,,,,,,,None,,,,,,,,,,,2017_Jan_30_1443,59.3905616348,spr_backupper,001,Di10,
,,,,,,,,,,,,,,,,,,,,,,,,,,,,,,,,,,,,,,,,,,,,,,,,,,,,,,,,,,,,,,,,,,,,,,,,,,,,,,,,,,,,,,,,,,,,,,,,,,,,,,,6,0,6,0,,,,,,,,,,,,,,,,,,,,,,,,,None,,,,,,,,,,,2017_Jan_30_1443,59.3905616348,spr_backupper,001,Di10,
,,,,,,,,,,,,,,,,,,,,,,,,,,,,,,,,,,,,,,,,,,,,,,,,,,,,,,,,,,,,,,,,,,,,,,,,,,,,,,,,,,,,,,,,,,,,,,,,,,,,,,,7,0,7,0,,,,,,,,,,,,,,,,,,,,,,,,,None,,,,,,,,,,,2017_Jan_30_1443,59.3905616348,spr_backupper,001,Di10,
,,,,,,,,,,,,,,,,,,,,,,,,,,,,,,,,,,,,,,,,,,,,,,,,,,,,,,,,,,,,,,,,,,,,,,,,,,,,,,,,,,,,,,,,,,,,,,,,,,,,,,,8,0,8,0,,,,,,,,,,,,,,,,,,,,,,,,,None,,,,,,,,,,,2017_Jan_30_1443,59.3905616348,spr_backupper,001,Di10,
,,,,,,,,,,,,,,,,,,,,,,,,,,,,,,,,,,,,,,,,,,,,,,,,,,,,,,,,,,,,,,,,,,,,,,,,,,,,,,,,,,,,,,,,,,,,,,,,,,,,,,,9,0,9,0,,,,,,,,,,,,,,,,,,,,,,,,,None,,,,,,,,,,,2017_Jan_30_1443,59.3905616348,spr_backupper,001,Di10,
,,,,,,,,,,,,,,,,,,,,,,,,,,,,,,,,,,,,,,,,,,,,,,,,,,,,,,,,,,,,,,,,,,,,,,,,,,,,,,,,,,,,,,,,,,,,,,,,,,,,,,,,,,,,,,,,,,,,,,,,,,,,,,,,,,,,space,3.25309801102,,,,,,,,,2017_Jan_30_1443,59.3905616348,spr_backupper,001,Di10,
,Bei,In,Sie,Wir,Nicht,Mit,Sie,Jetzt,Außer,In,Im,100,Er,Wir,Ihr,In,Außer,Die,Wir,Die,Die,Er,Jungtiere,Beträchtliche,Am,In,Walter,Dass,Es,Bei,Die,Sie,Dort,Am,Mit,Die,Ich,Die,Außer,Wir,Jugendliche,Man,Viele,Die,Es,Der,Die,Im,Ich,In,Bei,In,Man,Die,Beträchtliche,Als,Nicht,Sie,Es,Die,Die,Ich,Die,Bei,Wir,Alle,Er,Wir,Außer,Er,Sie,100,Die,Er,Viele,In,Die,Die,Das,Die,Wir,In,Die,Die,Sie,Manche,Fernab,Danach,Wir,Die,Die,Wir,Die,Dort,Es,Sie,Es,Unter,,,,,,,,,,,,,,,,,,,,,,,0,0,0,0,0,0,0,0,,,,,,None,space,2.41514492035,,,,,,2017_Jan_30_1443,59.3905616348,spr_backupper,001,Di10,
,der,der,hatte,mussten,ein,dieser,verlassen,ist,dem,den,Fernrohr,g,hat,haben,Blutdruck,den,dem,Formen,mussten,Kinder,Schuhe,wurde,sollten,Stücke,äußersten,einer,Scheel,es,wurden,der,Lösung,haben,türmen,äußeren,dieser,Linie,nehme,Uhr,den,übergaben,können,machte,Tonnen,Stücke,hat,Flug,Gäste,Fernrohr,wurde,meinem,unserer,der,machte,Uhr,Stücke,die,ein,verbrauchen,waren,"Uhr,",Teilnehmerinnen,nehme,Autos,unserer,haben,Betten,stellt,übergaben,das,stellt,verlassen,g,Schule,wurde,Tonnen,diesem,Schuhe,Schule,Tuch,Eislaufbahnen,konnten,meinem,Gäste,Uhr,verbrauchen,Kreditnehmer,des,wurde,hatten,Autos,müden,hatten,Kinder,türmen,waren,hatte,wurden,keinen,,,,,,,,,,,,,,,,,,,,,,,0,0,0,0,0,1,1,1,,,,,,,space,0.490832090378,,,,,,2017_Jan_30_1443,59.3905616348,spr_backupper,001,Di10,
,Feier,Tat,keine,uns,Tropfen,Methode,wegen,genau,Essen,Kakao,sahen,brauner,ein,jede,kann,Kakao,Bürgermeister,wurden,uns,fuhren,in,trotz,immer,saftiges,Rand,Studie,war,"regnete,",Eimer,Feier,wird,die,sich,Rand,Methode,101,eine,schlug,Bürgermeister,das,Kleidung,mal,gebrauchte,wurden,uns,zum,suchen,sahen,damals,Studium,Ankunft,Tat,mal,schlug,saftigen,Sonne,Tropfen,60,nur,die,wussten,eine,beider,Ankunft,jede,wurden,die,dem,Essen,die,wegen,braunen,verbraucht,trotz,gebrauchter,Zirkus,in,verbraucht,wurde,wurden,dann,Studium,suchen,war,60,sind,Rummels,die,in,beider,Teilnehmer,in,fuhren,sich,nur,keine,Eimer,Umständen,,,,,,,,,,,,,,,,,,,,,,,0,0,0,0,0,2,2,2,,,,,,,space,0.554398775101,,,,,,2017_Jan_30_1443,59.3905616348,spr_backupper,001,Di10,
,gedachte,wissen,Lust,durch,königlichen,kann,des,die,kann,gehören,wir,Zucker,Hemd,Menge,schon,gehören,beschuldigten,unter,durch,mit,Größe,des,auf,Fleisch,der,wurde,der,hat,rote,gedachte,mit,Erlebnisse,Berge,der,kann,hält,große,"sporadisch,",beschuldigten,Auto,bei,wieder,Kleidung,aus,die,Mond,die,wir,schnell,las,stand,wissen,wieder,"sporadisch,",Fleischs,"unterging,",königliches,Liter,kleinere,er,überwiegend,große,beteiligten,stand,Menge,mit,Masse,Mann,kann,Masse,dem,Zuckers,260.000,dem,Kleidung,werden,Größe,260.000,dann,mit,mit,habe,die,aus,Liter,mit,wurde,Leinwand,Dänemark,beteiligter,wurden,Dänemark,mit,Berge,kleinere,Lust,roter,können,,,,,,,,,,,,,,,,,,,,,,,0,0,0,0,0,3,3,3,,,,,,,space,0.515151977539,,,,,,2017_Jan_30_1443,59.3905616348,spr_backupper,001,Di10,
,man,wir,auf,Büschel,Bluts,man,schönen,richtige,ich,immer,den,sind,aus,alten,bei,immer,die,"regelmäßigem,",Büschel,solch,36,bekannten,warmem,wurden,Stadt,jetzt,vierte,uns,Farbe,man,"reichlichem,",bei,schmutzige,Stadt,man,nicht,Packung,obwohl,die,dem,ausreichendem,viel,landen,"wertvollem,",Stimmung,dauerte,Wohnung,den,dank,ich,ein,wir,viel,obschon,wurden,war,Blut,sprudelnden,"Delikte,","trug,","nicht,",Packung,Fahrer,ein,alten,"üblichem,",mit,das,ich,mit,schönen,sind,Kilowattstunden,bekannten,landen,die,36,Kilowattstunden,mit,dauerhaftem,"minimalem,",ich,Wohnung,"Japan,",sprudelndes,"sämtlichem,",schon,aus,gelegentlich,Fahrer,mit,einen,solchen,schmutziger,"Delikte,",auf,Farbe,Neuwahlen,,,,,,,,,,,,,,,,,,,,,,,0,0,0,0,0,4,4,4,,,,,,,space,0.436833143234,,,,,,2017_Jan_30_1443,59.3905616348,spr_backupper,001,Di10,
,der,von,noch,frisches,hat,eine,Wetters,"Zeit,",leider,350,roten,auf,feinem,Krams,minimalem,350,Störenfriede,kaltem,frischen,unzureichenden,würden,Skandals,weichem,serviert.,liegen,"nachgewiesen,",Bundespräsident.,die,geschleudert.,den,purem,"frischem,",Wäsche.,liegen,eine,am,salzige,sie,Störenfriede,Mann,monatlichem,Lärm,im,klassischen,ziemlich,ungefähr,des,roten,täglichem,mehr,Glas,um,Lärm,sie,serviert.,die,hat,Trinkwassers.,derer,war,was,salziger,wurden,Glas,Kram,harten,einem,Auto,leider,einem,Wetter,auf,elektrischer,Skandal,im,Tiere,hätten,elektrische,"reichem,",feinem,sauberen,mehr,des,die,Trinkwasser.,künftigem,immer,seltenem,einen,wurden,zusätzlichem,gelegentlichen,unzureichenden,Wäsche.,deren,noch,geschleudert.,vor,,,,,,,,,,,,,,,,,,,,,,,0,0,0,0,0,5,5,5,,,,,,,space,0.402816057205,,,,,,2017_Jan_30_1443,59.3905616348,spr_backupper,001,Di10,
,Soldaten,den,eine,Gras,den,große,die,um,nichts,ml,Planeten,jeden,dichten,aus,täglichen,ml,jeden.,Abduschen,Grases,Helmen,seiner,wiedergewählt.,Untergrund,nan,die,dass,nan,Stimmung,nan,Soldaten,Alkohol,kaltem,nan,die,große,Hauptbahnhof.,Wurst,defekt,jeden.,mehr,Taschengeld,um,Müll.,Schmuck,"vermiest,",drei,Herrn,Planet,grünen,als,köstlicher,die,um,defekt,nan,Flut,den,nan,sie,aus,Tupperware,Wurst,verschrottet.,köstlichen,aus,Schaumstoff,Esslöffel,mehr,nichts,Esslöffel,die,jeden,Energie.,wiedergewählt.,Müll.,artgerecht,seiner,Energie.,goldenen,Kunsteis,Kraftstoff,als,Herrn,er,nan,Einkommen,ruhig,dichten,Besucher.,verschrottet.,schwarzem,Besucher.,Helmen,nan,sie,eine,nan,Dezember,,,,,,,,,,,,,,,,,,,,,,,0,0,0,0,0,6,6,6,,,,,,,space,0.408138036728,,,,,,2017_Jan_30_1443,59.3905616348,spr_backupper,001,Di10,
,des,Problemen,Sammlung,zwängen.,Boden,Menge,Wohnung.,Nadelhölzer,mitbringen.,warme,ganz,Fall,Stoff,dem,Einsatz,warmer,nan,gehärtet.,zwängen.,zur,Frau,nan,liegen.,nan,Slums.,das,nan,ziemlich,nan,des,verdünnt.,Saft,nan,Slums.,Menge,nan,mit,war.,nan,als,selber,jede,nan,umgearbeitet.,dass,Tage.,Gantenbeins.,ganz,Tee,einmal,Wein,Probleme,jede,war.,nan,zurückgekehrt.,Boden,nan,überführt,Japan.,ist.,mit,nan,Weins,dem,gefertigt.,warmen,als,mitbringen.,warmem,Wohnung.,Fall,nan,nan,nan,gehalten.,Frau,nan,Besatz,eingesprüht.,fahren.,einmal,Gantenbein.,trug.,nan,haftbar.,diskutiert.,Gewebe,nan,nan,Kaffee,nan,zur,nan,überführt,Sammlung,nan,stattfinden.,,,,,,,,,,,,,,,,,,,,,,,0,0,0,0,0,7,7,7,,,,,,,space,0.453572034836,,,,,,2017_Jan_30_1443,59.3905616348,spr_backupper,001,Di10,
,,,,,,,,,,,,,,,,,,,,,,,,,,,,,,,,,,,,,,,,,,,,,,,,,,,,,,,,,,,,,,,,,,,,,,,,,,,,,,,,,,,,,,,,,,,,,,,,,,,,,,,,,,,,,,,,,,,,,,,,,0,0,0,0,,,,,,,,,,,,,None,j,1.39276790619,,,2017_Jan_30_1443,59.3905616348,spr_backupper,001,Di10,
,Bei,In,Sie,Wir,Nicht,Mit,Sie,Jetzt,Außer,In,Im,100,Er,Wir,Ihr,In,Außer,Die,Wir,Die,Die,Er,Jungtiere,Beträchtliche,Am,In,Walter,Dass,Es,Bei,Die,Sie,Dort,Am,Mit,Die,Ich,Die,Außer,Wir,Jugendliche,Man,Viele,Die,Es,Der,Die,Im,Ich,In,Bei,In,Man,Die,Beträchtliche,Als,Nicht,Sie,Es,Die,Die,Ich,Die,Bei,Wir,Alle,Er,Wir,Außer,Er,Sie,100,Die,Er,Viele,In,Die,Die,Das,Die,Wir,In,Die,Die,Sie,Manche,Fernab,Danach,Wir,Die,Die,Wir,Die,Dort,Es,Sie,Es,Unter,,,,,,,,,,,,,,,,,,,,,,,1,0,1,0,0,0,0,0,,,,,,space,space,0.514400959015,,,,1.00570297241,,2017_Jan_30_1443,59.3905616348,spr_backupper,001,Di10,
,der,der,hatte,mussten,ein,dieser,verlassen,ist,dem,den,Fernrohr,g,hat,haben,Blutdruck,den,dem,Formen,mussten,Kinder,Schuhe,wurde,sollten,Stücke,äußersten,einer,Scheel,es,wurden,der,Lösung,haben,türmen,äußeren,dieser,Linie,nehme,Uhr,den,übergaben,können,machte,Tonnen,Stücke,hat,Flug,Gäste,Fernrohr,wurde,meinem,unserer,der,machte,Uhr,Stücke,die,ein,verbrauchen,waren,"Uhr,",Teilnehmerinnen,nehme,Autos,unserer,haben,Betten,stellt,übergaben,das,stellt,verlassen,g,Schule,wurde,Tonnen,diesem,Schuhe,Schule,Tuch,Eislaufbahnen,konnten,meinem,Gäste,Uhr,verbrauchen,Kreditnehmer,des,wurde,hatten,Autos,müden,hatten,Kinder,türmen,waren,hatte,wurden,keinen,,,,,,,,,,,,,,,,,,,,,,,1,0,1,0,0,1,1,1,,,,,,,space,0.537875890732,,,,,,2017_Jan_30_1443,59.3905616348,spr_backupper,001,Di10,
,Feier,Tat,keine,uns,Tropfen,Methode,wegen,genau,Essen,Kakao,sahen,brauner,ein,jede,kann,Kakao,Bürgermeister,wurden,uns,fuhren,in,trotz,immer,saftiges,Rand,Studie,war,"regnete,",Eimer,Feier,wird,die,sich,Rand,Methode,101,eine,schlug,Bürgermeister,das,Kleidung,mal,gebrauchte,wurden,uns,zum,suchen,sahen,damals,Studium,Ankunft,Tat,mal,schlug,saftigen,Sonne,Tropfen,60,nur,die,wussten,eine,beider,Ankunft,jede,wurden,die,dem,Essen,die,wegen,braunen,verbraucht,trotz,gebrauchter,Zirkus,in,verbraucht,wurde,wurden,dann,Studium,suchen,war,60,sind,Rummels,die,in,beider,Teilnehmer,in,fuhren,sich,nur,keine,Eimer,Umständen,,,,,,,,,,,,,,,,,,,,,,,1,0,1,0,0,2,2,2,,,,,,,space,0.464683055878,,,,,,2017_Jan_30_1443,59.3905616348,spr_backupper,001,Di10,
,gedachte,wissen,Lust,durch,königlichen,kann,des,die,kann,gehören,wir,Zucker,Hemd,Menge,schon,gehören,beschuldigten,unter,durch,mit,Größe,des,auf,Fleisch,der,wurde,der,hat,rote,gedachte,mit,Erlebnisse,Berge,der,kann,hält,große,"sporadisch,",beschuldigten,Auto,bei,wieder,Kleidung,aus,die,Mond,die,wir,schnell,las,stand,wissen,wieder,"sporadisch,",Fleischs,"unterging,",königliches,Liter,kleinere,er,überwiegend,große,beteiligten,stand,Menge,mit,Masse,Mann,kann,Masse,dem,Zuckers,260.000,dem,Kleidung,werden,Größe,260.000,dann,mit,mit,habe,die,aus,Liter,mit,wurde,Leinwand,Dänemark,beteiligter,wurden,Dänemark,mit,Berge,kleinere,Lust,roter,können,,,,,,,,,,,,,,,,,,,,,,,1,0,1,0,0,3,3,3,,,,,,,space,0.425703048706,,,,,,2017_Jan_30_1443,59.3905616348,spr_backupper,001,Di10,
,man,wir,auf,Büschel,Bluts,man,schönen,richtige,ich,immer,den,sind,aus,alten,bei,immer,die,"regelmäßigem,",Büschel,solch,36,bekannten,warmem,wurden,Stadt,jetzt,vierte,uns,Farbe,man,"reichlichem,",bei,schmutzige,Stadt,man,nicht,Packung,obwohl,die,dem,ausreichendem,viel,landen,"wertvollem,",Stimmung,dauerte,Wohnung,den,dank,ich,ein,wir,viel,obschon,wurden,war,Blut,sprudelnden,"Delikte,","trug,","nicht,",Packung,Fahrer,ein,alten,"üblichem,",mit,das,ich,mit,schönen,sind,Kilowattstunden,bekannten,landen,die,36,Kilowattstunden,mit,dauerhaftem,"minimalem,",ich,Wohnung,"Japan,",sprudelndes,"sämtlichem,",schon,aus,gelegentlich,Fahrer,mit,einen,solchen,schmutziger,"Delikte,",auf,Farbe,Neuwahlen,,,,,,,,,,,,,,,,,,,,,,,1,0,1,0,0,4,4,4,,,,,,,space,0.427788972855,,,,,,2017_Jan_30_1443,59.3905616348,spr_backupper,001,Di10,
,der,von,noch,frisches,hat,eine,Wetters,"Zeit,",leider,350,roten,auf,feinem,Krams,minimalem,350,Störenfriede,kaltem,frischen,unzureichenden,würden,Skandals,weichem,serviert.,liegen,"nachgewiesen,",Bundespräsident.,die,geschleudert.,den,purem,"frischem,",Wäsche.,liegen,eine,am,salzige,sie,Störenfriede,Mann,monatlichem,Lärm,im,klassischen,ziemlich,ungefähr,des,roten,täglichem,mehr,Glas,um,Lärm,sie,serviert.,die,hat,Trinkwassers.,derer,war,was,salziger,wurden,Glas,Kram,harten,einem,Auto,leider,einem,Wetter,auf,elektrischer,Skandal,im,Tiere,hätten,elektrische,"reichem,",feinem,sauberen,mehr,des,die,Trinkwasser.,künftigem,immer,seltenem,einen,wurden,zusätzlichem,gelegentlichen,unzureichenden,Wäsche.,deren,noch,geschleudert.,vor,,,,,,,,,,,,,,,,,,,,,,,1,0,1,0,0,5,5,5,,,,,,,space,0.38130903244,,,,,,2017_Jan_30_1443,59.3905616348,spr_backupper,001,Di10,
,Soldaten,den,eine,Gras,den,große,die,um,nichts,ml,Planeten,jeden,dichten,aus,täglichen,ml,jeden.,Abduschen,Grases,Helmen,seiner,wiedergewählt.,Untergrund,nan,die,dass,nan,Stimmung,nan,Soldaten,Alkohol,kaltem,nan,die,große,Hauptbahnhof.,Wurst,defekt,jeden.,mehr,Taschengeld,um,Müll.,Schmuck,"vermiest,",drei,Herrn,Planet,grünen,als,köstlicher,die,um,defekt,nan,Flut,den,nan,sie,aus,Tupperware,Wurst,verschrottet.,köstlichen,aus,Schaumstoff,Esslöffel,mehr,nichts,Esslöffel,die,jeden,Energie.,wiedergewählt.,Müll.,artgerecht,seiner,Energie.,goldenen,Kunsteis,Kraftstoff,als,Herrn,er,nan,Einkommen,ruhig,dichten,Besucher.,verschrottet.,schwarzem,Besucher.,Helmen,nan,sie,eine,nan,Dezember,,,,,,,,,,,,,,,,,,,,,,,1,0,1,0,0,6,6,6,,,,,,,space,0.40016579628,,,,,,2017_Jan_30_1443,59.3905616348,spr_backupper,001,Di10,
,des,Problemen,Sammlung,zwängen.,Boden,Menge,Wohnung.,Nadelhölzer,mitbringen.,warme,ganz,Fall,Stoff,dem,Einsatz,warmer,nan,gehärtet.,zwängen.,zur,Frau,nan,liegen.,nan,Slums.,das,nan,ziemlich,nan,des,verdünnt.,Saft,nan,Slums.,Menge,nan,mit,war.,nan,als,selber,jede,nan,umgearbeitet.,dass,Tage.,Gantenbeins.,ganz,Tee,einmal,Wein,Probleme,jede,war.,nan,zurückgekehrt.,Boden,nan,überführt,Japan.,ist.,mit,nan,Weins,dem,gefertigt.,warmen,als,mitbringen.,warmem,Wohnung.,Fall,nan,nan,nan,gehalten.,Frau,nan,Besatz,eingesprüht.,fahren.,einmal,Gantenbein.,trug.,nan,haftbar.,diskutiert.,Gewebe,nan,nan,Kaffee,nan,zur,nan,überführt,Sammlung,nan,stattfinden.,,,,,,,,,,,,,,,,,,,,,,,1,0,1,0,0,7,7,7,,,,,,,space,0.369111061096,,,,,,2017_Jan_30_1443,59.3905616348,spr_backupper,001,Di10,
,zweiten,im,dumme,nan,berührt.,dunkle,nan,umzusetzen.,nan,Milch.,deutlich.,genug.,gefertigt.,Haus,sinken.,Milch.,nan,nan,nan,Schule.,gepasst,nan,nan,nan,nan,Medikament,nan,vermiest.,nan,zweiten,nan,besprochen.,nan,nan,dunkler,nan,an,nan,nan,gerne.,kaufen.,Menge,nan,nan,es,nan,nan,deutlich.,wieder,Rilke.,schon,im,Menge,nan,nan,nan,berührt.,nan,wurden.,nan,nan,an,nan,schon,Haus,nan,Honigs,gerne.,nan,Honig,nan,genug.,nan,nan,nan,nan,gepasst.,nan,rekonstruiert.,nan,nan,Rilke,nan,nan,nan,nan,nan,wiederhergestellt.,nan,nan,wiederbelebt.,nan,Schule.,nan,wurden.,dummer,nan,nan,,,,,,,,,,,,,,,,,,,,,,,1,0,1,0,0,8,8,8,,,,,,,space,0.39814209938,,,,,,2017_Jan_30_1443,59.3905616348,spr_backupper,001,Di10,
,Weltkriegs.,Landkreis.,Sprüche.,nan,nan,Materie,nan,nan,nan,nan,nan,nan,nan,geschafft.,nan,nan,nan,nan,nan,nan,haben.,nan,nan,nan,nan,nicht,nan,nan,nan,Weltkriegs.,nan,nan,nan,nan,Materie,nan,den,nan,nan,nan,nan,heißer,nan,nan,regnete.,nan,nan,nan,fit.,nan,auf,Landkreis.,heiße,nan,nan,nan,nan,nan,nan,nan,nan,den,nan,auf,geschafft.,nan,her.,nan,nan,her.,nan,nan,nan,nan,nan,nan,nan,nan,nan,nan,nan,gelesen.,nan,nan,nan,nan,nan,nan,nan,nan,nan,nan,nan,nan,nan,Sprüche.,nan,nan,,,,,,,,,,,,,,,,,,,,,,,1,0,1,0,0,9,9,9,,,,,,,space,0.342539072037,,,,,,2017_Jan_30_1443,59.3905616348,spr_backupper,001,Di10,
,nan,nan,nan,nan,nan,erzeugen.,nan,nan,nan,nan,nan,nan,nan,nan,nan,nan,nan,nan,nan,nan,nan,nan,nan,nan,nan,wirkt.,nan,nan,nan,nan,nan,nan,nan,nan,erzeugen.,nan,See.,nan,nan,nan,nan,Luft.,nan,nan,nan,nan,nan,nan,nan,nan,dem,nan,Luft.,nan,nan,nan,nan,nan,nan,nan,nan,See.,nan,dem,nan,nan,nan,nan,nan,nan,nan,nan,nan,nan,nan,nan,nan,nan,nan,nan,nan,nan,nan,nan,nan,nan,nan,nan,nan,nan,nan,nan,nan,nan,nan,nan,nan,nan,,,,,,,,,,,,,,,,,,,,,,,1,0,1,0,0,10,10,10,,,,,,,space,0.537433862686,,,,,,2017_Jan_30_1443,59.3905616348,spr_backupper,001,Di10,
,,,,,,,,,,,,,,,,,,,,,,,,,,,,,,,,,,,,,,,,,,,,,,,,,,,,,,,,,,,,,,,,,,,,,,,,,,,,,,,,,,,,,,,,,,,,,,,,,,,,,,,,,,,,,,,,,,,,,,,,,1,0,1,0,,,,,,,,,,,,,None,n,3.43262004852,,,2017_Jan_30_1443,59.3905616348,spr_backupper,001,Di10,
,Bei,In,Sie,Wir,Nicht,Mit,Sie,Jetzt,Außer,In,Im,100,Er,Wir,Ihr,In,Außer,Die,Wir,Die,Die,Er,Jungtiere,Beträchtliche,Am,In,Walter,Dass,Es,Bei,Die,Sie,Dort,Am,Mit,Die,Ich,Die,Außer,Wir,Jugendliche,Man,Viele,Die,Es,Der,Die,Im,Ich,In,Bei,In,Man,Die,Beträchtliche,Als,Nicht,Sie,Es,Die,Die,Ich,Die,Bei,Wir,Alle,Er,Wir,Außer,Er,Sie,100,Die,Er,Viele,In,Die,Die,Das,Die,Wir,In,Die,Die,Sie,Manche,Fernab,Danach,Wir,Die,Die,Wir,Die,Dort,Es,Sie,Es,Unter,,,,,,,,,,,,,,,,,,,,,,,2,0,2,0,0,0,0,0,,,,,,space,space,0.552773952484,,,,0.838166952133,,2017_Jan_30_1443,59.3905616348,spr_backupper,001,Di10,
,der,der,hatte,mussten,ein,dieser,verlassen,ist,dem,den,Fernrohr,g,hat,haben,Blutdruck,den,dem,Formen,mussten,Kinder,Schuhe,wurde,sollten,Stücke,äußersten,einer,Scheel,es,wurden,der,Lösung,haben,türmen,äußeren,dieser,Linie,nehme,Uhr,den,übergaben,können,machte,Tonnen,Stücke,hat,Flug,Gäste,Fernrohr,wurde,meinem,unserer,der,machte,Uhr,Stücke,die,ein,verbrauchen,waren,"Uhr,",Teilnehmerinnen,nehme,Autos,unserer,haben,Betten,stellt,übergaben,das,stellt,verlassen,g,Schule,wurde,Tonnen,diesem,Schuhe,Schule,Tuch,Eislaufbahnen,konnten,meinem,Gäste,Uhr,verbrauchen,Kreditnehmer,des,wurde,hatten,Autos,müden,hatten,Kinder,türmen,waren,hatte,wurden,keinen,,,,,,,,,,,,,,,,,,,,,,,2,0,2,0,0,1,1,1,,,,,,,space,0.467440128326,,,,,,2017_Jan_30_1443,59.3905616348,spr_backupper,001,Di10,
,Feier,Tat,keine,uns,Tropfen,Methode,wegen,genau,Essen,Kakao,sahen,brauner,ein,jede,kann,Kakao,Bürgermeister,wurden,uns,fuhren,in,trotz,immer,saftiges,Rand,Studie,war,"regnete,",Eimer,Feier,wird,die,sich,Rand,Methode,101,eine,schlug,Bürgermeister,das,Kleidung,mal,gebrauchte,wurden,uns,zum,suchen,sahen,damals,Studium,Ankunft,Tat,mal,schlug,saftigen,Sonne,Tropfen,60,nur,die,wussten,eine,beider,Ankunft,jede,wurden,die,dem,Essen,die,wegen,braunen,verbraucht,trotz,gebrauchter,Zirkus,in,verbraucht,wurde,wurden,dann,Studium,suchen,war,60,sind,Rummels,die,in,beider,Teilnehmer,in,fuhren,sich,nur,keine,Eimer,Umständen,,,,,,,,,,,,,,,,,,,,,,,2,0,2,0,0,2,2,2,,,,,,,space,0.519670009613,,,,,,2017_Jan_30_1443,59.3905616348,spr_backupper,001,Di10,
,gedachte,wissen,Lust,durch,königlichen,kann,des,die,kann,gehören,wir,Zucker,Hemd,Menge,schon,gehören,beschuldigten,unter,durch,mit,Größe,des,auf,Fleisch,der,wurde,der,hat,rote,gedachte,mit,Erlebnisse,Berge,der,kann,hält,große,"sporadisch,",beschuldigten,Auto,bei,wieder,Kleidung,aus,die,Mond,die,wir,schnell,las,stand,wissen,wieder,"sporadisch,",Fleischs,"unterging,",königliches,Liter,kleinere,er,überwiegend,große,beteiligten,stand,Menge,mit,Masse,Mann,kann,Masse,dem,Zuckers,260.000,dem,Kleidung,werden,Größe,260.000,dann,mit,mit,habe,die,aus,Liter,mit,wurde,Leinwand,Dänemark,beteiligter,wurden,Dänemark,mit,Berge,kleinere,Lust,roter,können,,,,,,,,,,,,,,,,,,,,,,,2,0,2,0,0,3,3,3,,,,,,,space,0.441646814346,,,,,,2017_Jan_30_1443,59.3905616348,spr_backupper,001,Di10,
,man,wir,auf,Büschel,Bluts,man,schönen,richtige,ich,immer,den,sind,aus,alten,bei,immer,die,"regelmäßigem,",Büschel,solch,36,bekannten,warmem,wurden,Stadt,jetzt,vierte,uns,Farbe,man,"reichlichem,",bei,schmutzige,Stadt,man,nicht,Packung,obwohl,die,dem,ausreichendem,viel,landen,"wertvollem,",Stimmung,dauerte,Wohnung,den,dank,ich,ein,wir,viel,obschon,wurden,war,Blut,sprudelnden,"Delikte,","trug,","nicht,",Packung,Fahrer,ein,alten,"üblichem,",mit,das,ich,mit,schönen,sind,Kilowattstunden,bekannten,landen,die,36,Kilowattstunden,mit,dauerhaftem,"minimalem,",ich,Wohnung,"Japan,",sprudelndes,"sämtlichem,",schon,aus,gelegentlich,Fahrer,mit,einen,solchen,schmutziger,"Delikte,",auf,Farbe,Neuwahlen,,,,,,,,,,,,,,,,,,,,,,,2,0,2,0,0,4,4,4,,,,,,,space,0.568870067596,,,,,,2017_Jan_30_1443,59.3905616348,spr_backupper,001,Di10,
,der,von,noch,frisches,hat,eine,Wetters,"Zeit,",leider,350,roten,auf,feinem,Krams,minimalem,350,Störenfriede,kaltem,frischen,unzureichenden,würden,Skandals,weichem,serviert.,liegen,"nachgewiesen,",Bundespräsident.,die,geschleudert.,den,purem,"frischem,",Wäsche.,liegen,eine,am,salzige,sie,Störenfriede,Mann,monatlichem,Lärm,im,klassischen,ziemlich,ungefähr,des,roten,täglichem,mehr,Glas,um,Lärm,sie,serviert.,die,hat,Trinkwassers.,derer,war,was,salziger,wurden,Glas,Kram,harten,einem,Auto,leider,einem,Wetter,auf,elektrischer,Skandal,im,Tiere,hätten,elektrische,"reichem,",feinem,sauberen,mehr,des,die,Trinkwasser.,künftigem,immer,seltenem,einen,wurden,zusätzlichem,gelegentlichen,unzureichenden,Wäsche.,deren,noch,geschleudert.,vor,,,,,,,,,,,,,,,,,,,,,,,2,0,2,0,0,5,5,5,,,,,,,space,0.369580030441,,,,,,2017_Jan_30_1443,59.3905616348,spr_backupper,001,Di10,
,Soldaten,den,eine,Gras,den,große,die,um,nichts,ml,Planeten,jeden,dichten,aus,täglichen,ml,jeden.,Abduschen,Grases,Helmen,seiner,wiedergewählt.,Untergrund,nan,die,dass,nan,Stimmung,nan,Soldaten,Alkohol,kaltem,nan,die,große,Hauptbahnhof.,Wurst,defekt,jeden.,mehr,Taschengeld,um,Müll.,Schmuck,"vermiest,",drei,Herrn,Planet,grünen,als,köstlicher,die,um,defekt,nan,Flut,den,nan,sie,aus,Tupperware,Wurst,verschrottet.,köstlichen,aus,Schaumstoff,Esslöffel,mehr,nichts,Esslöffel,die,jeden,Energie.,wiedergewählt.,Müll.,artgerecht,seiner,Energie.,goldenen,Kunsteis,Kraftstoff,als,Herrn,er,nan,Einkommen,ruhig,dichten,Besucher.,verschrottet.,schwarzem,Besucher.,Helmen,nan,sie,eine,nan,Dezember,,,,,,,,,,,,,,,,,,,,,,,2,0,2,0,0,6,6,6,,,,,,,space,0.309519052505,,,,,,2017_Jan_30_1443,59.3905616348,spr_backupper,001,Di10,
,des,Problemen,Sammlung,zwängen.,Boden,Menge,Wohnung.,Nadelhölzer,mitbringen.,warme,ganz,Fall,Stoff,dem,Einsatz,warmer,nan,gehärtet.,zwängen.,zur,Frau,nan,liegen.,nan,Slums.,das,nan,ziemlich,nan,des,verdünnt.,Saft,nan,Slums.,Menge,nan,mit,war.,nan,als,selber,jede,nan,umgearbeitet.,dass,Tage.,Gantenbeins.,ganz,Tee,einmal,Wein,Probleme,jede,war.,nan,zurückgekehrt.,Boden,nan,überführt,Japan.,ist.,mit,nan,Weins,dem,gefertigt.,warmen,als,mitbringen.,warmem,Wohnung.,Fall,nan,nan,nan,gehalten.,Frau,nan,Besatz,eingesprüht.,fahren.,einmal,Gantenbein.,trug.,nan,haftbar.,diskutiert.,Gewebe,nan,nan,Kaffee,nan,zur,nan,überführt,Sammlung,nan,stattfinden.,,,,,,,,,,,,,,,,,,,,,,,2,0,2,0,0,7,7,7,,,,,,,space,0.359168052673,,,,,,2017_Jan_30_1443,59.3905616348,spr_backupper,001,Di10,
,zweiten,im,dumme,nan,berührt.,dunkle,nan,umzusetzen.,nan,Milch.,deutlich.,genug.,gefertigt.,Haus,sinken.,Milch.,nan,nan,nan,Schule.,gepasst,nan,nan,nan,nan,Medikament,nan,vermiest.,nan,zweiten,nan,besprochen.,nan,nan,dunkler,nan,an,nan,nan,gerne.,kaufen.,Menge,nan,nan,es,nan,nan,deutlich.,wieder,Rilke.,schon,im,Menge,nan,nan,nan,berührt.,nan,wurden.,nan,nan,an,nan,schon,Haus,nan,Honigs,gerne.,nan,Honig,nan,genug.,nan,nan,nan,nan,gepasst.,nan,rekonstruiert.,nan,nan,Rilke,nan,nan,nan,nan,nan,wiederhergestellt.,nan,nan,wiederbelebt.,nan,Schule.,nan,wurden.,dummer,nan,nan,,,,,,,,,,,,,,,,,,,,,,,2,0,2,0,0,8,8,8,,,,,,,space,0.343985080719,,,,,,2017_Jan_30_1443,59.3905616348,spr_backupper,001,Di10,
,,,,,,,,,,,,,,,,,,,,,,,,,,,,,,,,,,,,,,,,,,,,,,,,,,,,,,,,,,,,,,,,,,,,,,,,,,,,,,,,,,,,,,,,,,,,,,,,,,,,,,,,,,,,,,,,,,,,,,,,,2,0,2,0,,,,,,,,,,,,,None,n,2.81393289566,,,2017_Jan_30_1443,59.3905616348,spr_backupper,001,Di10,
,Bei,In,Sie,Wir,Nicht,Mit,Sie,Jetzt,Außer,In,Im,100,Er,Wir,Ihr,In,Außer,Die,Wir,Die,Die,Er,Jungtiere,Beträchtliche,Am,In,Walter,Dass,Es,Bei,Die,Sie,Dort,Am,Mit,Die,Ich,Die,Außer,Wir,Jugendliche,Man,Viele,Die,Es,Der,Die,Im,Ich,In,Bei,In,Man,Die,Beträchtliche,Als,Nicht,Sie,Es,Die,Die,Ich,Die,Bei,Wir,Alle,Er,Wir,Außer,Er,Sie,100,Die,Er,Viele,In,Die,Die,Das,Die,Wir,In,Die,Die,Sie,Manche,Fernab,Danach,Wir,Die,Die,Wir,Die,Dort,Es,Sie,Es,Unter,,,,,,,,,,,,,,,,,,,,,,,3,0,3,0,0,0,0,0,,,,,,space,space,0.432530879974,,,,1.0586669445,,2017_Jan_30_1443,59.3905616348,spr_backupper,001,Di10,
,der,der,hatte,mussten,ein,dieser,verlassen,ist,dem,den,Fernrohr,g,hat,haben,Blutdruck,den,dem,Formen,mussten,Kinder,Schuhe,wurde,sollten,Stücke,äußersten,einer,Scheel,es,wurden,der,Lösung,haben,türmen,äußeren,dieser,Linie,nehme,Uhr,den,übergaben,können,machte,Tonnen,Stücke,hat,Flug,Gäste,Fernrohr,wurde,meinem,unserer,der,machte,Uhr,Stücke,die,ein,verbrauchen,waren,"Uhr,",Teilnehmerinnen,nehme,Autos,unserer,haben,Betten,stellt,übergaben,das,stellt,verlassen,g,Schule,wurde,Tonnen,diesem,Schuhe,Schule,Tuch,Eislaufbahnen,konnten,meinem,Gäste,Uhr,verbrauchen,Kreditnehmer,des,wurde,hatten,Autos,müden,hatten,Kinder,türmen,waren,hatte,wurden,keinen,,,,,,,,,,,,,,,,,,,,,,,3,0,3,0,0,1,1,1,,,,,,,space,0.637300014496,,,,,,2017_Jan_30_1443,59.3905616348,spr_backupper,001,Di10,
,Feier,Tat,keine,uns,Tropfen,Methode,wegen,genau,Essen,Kakao,sahen,brauner,ein,jede,kann,Kakao,Bürgermeister,wurden,uns,fuhren,in,trotz,immer,saftiges,Rand,Studie,war,"regnete,",Eimer,Feier,wird,die,sich,Rand,Methode,101,eine,schlug,Bürgermeister,das,Kleidung,mal,gebrauchte,wurden,uns,zum,suchen,sahen,damals,Studium,Ankunft,Tat,mal,schlug,saftigen,Sonne,Tropfen,60,nur,die,wussten,eine,beider,Ankunft,jede,wurden,die,dem,Essen,die,wegen,braunen,verbraucht,trotz,gebrauchter,Zirkus,in,verbraucht,wurde,wurden,dann,Studium,suchen,war,60,sind,Rummels,die,in,beider,Teilnehmer,in,fuhren,sich,nur,keine,Eimer,Umständen,,,,,,,,,,,,,,,,,,,,,,,3,0,3,0,0,2,2,2,,,,,,,space,0.37631893158,,,,,,2017_Jan_30_1443,59.3905616348,spr_backupper,001,Di10,
,gedachte,wissen,Lust,durch,königlichen,kann,des,die,kann,gehören,wir,Zucker,Hemd,Menge,schon,gehören,beschuldigten,unter,durch,mit,Größe,des,auf,Fleisch,der,wurde,der,hat,rote,gedachte,mit,Erlebnisse,Berge,der,kann,hält,große,"sporadisch,",beschuldigten,Auto,bei,wieder,Kleidung,aus,die,Mond,die,wir,schnell,las,stand,wissen,wieder,"sporadisch,",Fleischs,"unterging,",königliches,Liter,kleinere,er,überwiegend,große,beteiligten,stand,Menge,mit,Masse,Mann,kann,Masse,dem,Zuckers,260.000,dem,Kleidung,werden,Größe,260.000,dann,mit,mit,habe,die,aus,Liter,mit,wurde,Leinwand,Dänemark,beteiligter,wurden,Dänemark,mit,Berge,kleinere,Lust,roter,können,,,,,,,,,,,,,,,,,,,,,,,3,0,3,0,0,3,3,3,,,,,,,space,0.324061870575,,,,,,2017_Jan_30_1443,59.3905616348,spr_backupper,001,Di10,
,man,wir,auf,Büschel,Bluts,man,schönen,richtige,ich,immer,den,sind,aus,alten,bei,immer,die,"regelmäßigem,",Büschel,solch,36,bekannten,warmem,wurden,Stadt,jetzt,vierte,uns,Farbe,man,"reichlichem,",bei,schmutzige,Stadt,man,nicht,Packung,obwohl,die,dem,ausreichendem,viel,landen,"wertvollem,",Stimmung,dauerte,Wohnung,den,dank,ich,ein,wir,viel,obschon,wurden,war,Blut,sprudelnden,"Delikte,","trug,","nicht,",Packung,Fahrer,ein,alten,"üblichem,",mit,das,ich,mit,schönen,sind,Kilowattstunden,bekannten,landen,die,36,Kilowattstunden,mit,dauerhaftem,"minimalem,",ich,Wohnung,"Japan,",sprudelndes,"sämtlichem,",schon,aus,gelegentlich,Fahrer,mit,einen,solchen,schmutziger,"Delikte,",auf,Farbe,Neuwahlen,,,,,,,,,,,,,,,,,,,,,,,3,0,3,0,0,4,4,4,,,,,,,space,0.2483959198,,,,,,2017_Jan_30_1443,59.3905616348,spr_backupper,001,Di10,
,der,von,noch,frisches,hat,eine,Wetters,"Zeit,",leider,350,roten,auf,feinem,Krams,minimalem,350,Störenfriede,kaltem,frischen,unzureichenden,würden,Skandals,weichem,serviert.,liegen,"nachgewiesen,",Bundespräsident.,die,geschleudert.,den,purem,"frischem,",Wäsche.,liegen,eine,am,salzige,sie,Störenfriede,Mann,monatlichem,Lärm,im,klassischen,ziemlich,ungefähr,des,roten,täglichem,mehr,Glas,um,Lärm,sie,serviert.,die,hat,Trinkwassers.,derer,war,was,salziger,wurden,Glas,Kram,harten,einem,Auto,leider,einem,Wetter,auf,elektrischer,Skandal,im,Tiere,hätten,elektrische,"reichem,",feinem,sauberen,mehr,des,die,Trinkwasser.,künftigem,immer,seltenem,einen,wurden,zusätzlichem,gelegentlichen,unzureichenden,Wäsche.,deren,noch,geschleudert.,vor,,,,,,,,,,,,,,,,,,,,,,,3,0,3,0,0,5,5,5,,,,,,,space,0.349961996078,,,,,,2017_Jan_30_1443,59.3905616348,spr_backupper,001,Di10,
,Soldaten,den,eine,Gras,den,große,die,um,nichts,ml,Planeten,jeden,dichten,aus,täglichen,ml,jeden.,Abduschen,Grases,Helmen,seiner,wiedergewählt.,Untergrund,nan,die,dass,nan,Stimmung,nan,Soldaten,Alkohol,kaltem,nan,die,große,Hauptbahnhof.,Wurst,defekt,jeden.,mehr,Taschengeld,um,Müll.,Schmuck,"vermiest,",drei,Herrn,Planet,grünen,als,köstlicher,die,um,defekt,nan,Flut,den,nan,sie,aus,Tupperware,Wurst,verschrottet.,köstlichen,aus,Schaumstoff,Esslöffel,mehr,nichts,Esslöffel,die,jeden,Energie.,wiedergewählt.,Müll.,artgerecht,seiner,Energie.,goldenen,Kunsteis,Kraftstoff,als,Herrn,er,nan,Einkommen,ruhig,dichten,Besucher.,verschrottet.,schwarzem,Besucher.,Helmen,nan,sie,eine,nan,Dezember,,,,,,,,,,,,,,,,,,,,,,,3,0,3,0,0,6,6,6,,,,,,,space,0.349637031555,,,,,,2017_Jan_30_1443,59.3905616348,spr_backupper,001,Di10,
,des,Problemen,Sammlung,zwängen.,Boden,Menge,Wohnung.,Nadelhölzer,mitbringen.,warme,ganz,Fall,Stoff,dem,Einsatz,warmer,nan,gehärtet.,zwängen.,zur,Frau,nan,liegen.,nan,Slums.,das,nan,ziemlich,nan,des,verdünnt.,Saft,nan,Slums.,Menge,nan,mit,war.,nan,als,selber,jede,nan,umgearbeitet.,dass,Tage.,Gantenbeins.,ganz,Tee,einmal,Wein,Probleme,jede,war.,nan,zurückgekehrt.,Boden,nan,überführt,Japan.,ist.,mit,nan,Weins,dem,gefertigt.,warmen,als,mitbringen.,warmem,Wohnung.,Fall,nan,nan,nan,gehalten.,Frau,nan,Besatz,eingesprüht.,fahren.,einmal,Gantenbein.,trug.,nan,haftbar.,diskutiert.,Gewebe,nan,nan,Kaffee,nan,zur,nan,überführt,Sammlung,nan,stattfinden.,,,,,,,,,,,,,,,,,,,,,,,3,0,3,0,0,7,7,7,,,,,,,space,0.386281013489,,,,,,2017_Jan_30_1443,59.3905616348,spr_backupper,001,Di10,
,zweiten,im,dumme,nan,berührt.,dunkle,nan,umzusetzen.,nan,Milch.,deutlich.,genug.,gefertigt.,Haus,sinken.,Milch.,nan,nan,nan,Schule.,gepasst,nan,nan,nan,nan,Medikament,nan,vermiest.,nan,zweiten,nan,besprochen.,nan,nan,dunkler,nan,an,nan,nan,gerne.,kaufen.,Menge,nan,nan,es,nan,nan,deutlich.,wieder,Rilke.,schon,im,Menge,nan,nan,nan,berührt.,nan,wurden.,nan,nan,an,nan,schon,Haus,nan,Honigs,gerne.,nan,Honig,nan,genug.,nan,nan,nan,nan,gepasst.,nan,rekonstruiert.,nan,nan,Rilke,nan,nan,nan,nan,nan,wiederhergestellt.,nan,nan,wiederbelebt.,nan,Schule.,nan,wurden.,dummer,nan,nan,,,,,,,,,,,,,,,,,,,,,,,3,0,3,0,0,8,8,8,,,,,,,space,0.533154010773,,,,,,2017_Jan_30_1443,59.3905616348,spr_backupper,001,Di10,
,,,,,,,,,,,,,,,,,,,,,,,,,,,,,,,,,,,,,,,,,,,,,,,,,,,,,,,,,,,,,,,,,,,,,,,,,,,,,,,,,,,,,,,,,,,,,,,,,,,,,,,,,,,,,,,,,,,,,,,,,3,0,3,0,,,,,,,,,,,,,None,n,1.86325287819,,,2017_Jan_30_1443,59.3905616348,spr_backupper,001,Di10,
,Bei,In,Sie,Wir,Nicht,Mit,Sie,Jetzt,Außer,In,Im,100,Er,Wir,Ihr,In,Außer,Die,Wir,Die,Die,Er,Jungtiere,Beträchtliche,Am,In,Walter,Dass,Es,Bei,Die,Sie,Dort,Am,Mit,Die,Ich,Die,Außer,Wir,Jugendliche,Man,Viele,Die,Es,Der,Die,Im,Ich,In,Bei,In,Man,Die,Beträchtliche,Als,Nicht,Sie,Es,Die,Die,Ich,Die,Bei,Wir,Alle,Er,Wir,Außer,Er,Sie,100,Die,Er,Viele,In,Die,Die,Das,Die,Wir,In,Die,Die,Sie,Manche,Fernab,Danach,Wir,Die,Die,Wir,Die,Dort,Es,Sie,Es,Unter,,,,,,,,,,,,,,,,,,,,,,,4,0,4,0,0,0,0,0,,,,,,space,space,1.84695196152,,,,0.788431882858,,2017_Jan_30_1443,59.3905616348,spr_backupper,001,Di10,
,der,der,hatte,mussten,ein,dieser,verlassen,ist,dem,den,Fernrohr,g,hat,haben,Blutdruck,den,dem,Formen,mussten,Kinder,Schuhe,wurde,sollten,Stücke,äußersten,einer,Scheel,es,wurden,der,Lösung,haben,türmen,äußeren,dieser,Linie,nehme,Uhr,den,übergaben,können,machte,Tonnen,Stücke,hat,Flug,Gäste,Fernrohr,wurde,meinem,unserer,der,machte,Uhr,Stücke,die,ein,verbrauchen,waren,"Uhr,",Teilnehmerinnen,nehme,Autos,unserer,haben,Betten,stellt,übergaben,das,stellt,verlassen,g,Schule,wurde,Tonnen,diesem,Schuhe,Schule,Tuch,Eislaufbahnen,konnten,meinem,Gäste,Uhr,verbrauchen,Kreditnehmer,des,wurde,hatten,Autos,müden,hatten,Kinder,türmen,waren,hatte,wurden,keinen,,,,,,,,,,,,,,,,,,,,,,,4,0,4,0,0,1,1,1,,,,,,,space,0.442859172821,,,,,,2017_Jan_30_1443,59.3905616348,spr_backupper,001,Di10,
,Feier,Tat,keine,uns,Tropfen,Methode,wegen,genau,Essen,Kakao,sahen,brauner,ein,jede,kann,Kakao,Bürgermeister,wurden,uns,fuhren,in,trotz,immer,saftiges,Rand,Studie,war,"regnete,",Eimer,Feier,wird,die,sich,Rand,Methode,101,eine,schlug,Bürgermeister,das,Kleidung,mal,gebrauchte,wurden,uns,zum,suchen,sahen,damals,Studium,Ankunft,Tat,mal,schlug,saftigen,Sonne,Tropfen,60,nur,die,wussten,eine,beider,Ankunft,jede,wurden,die,dem,Essen,die,wegen,braunen,verbraucht,trotz,gebrauchter,Zirkus,in,verbraucht,wurde,wurden,dann,Studium,suchen,war,60,sind,Rummels,die,in,beider,Teilnehmer,in,fuhren,sich,nur,keine,Eimer,Umständen,,,,,,,,,,,,,,,,,,,,,,,4,0,4,0,0,2,2,2,,,,,,,space,0.508949995041,,,,,,2017_Jan_30_1443,59.3905616348,spr_backupper,001,Di10,
,gedachte,wissen,Lust,durch,königlichen,kann,des,die,kann,gehören,wir,Zucker,Hemd,Menge,schon,gehören,beschuldigten,unter,durch,mit,Größe,des,auf,Fleisch,der,wurde,der,hat,rote,gedachte,mit,Erlebnisse,Berge,der,kann,hält,große,"sporadisch,",beschuldigten,Auto,bei,wieder,Kleidung,aus,die,Mond,die,wir,schnell,las,stand,wissen,wieder,"sporadisch,",Fleischs,"unterging,",königliches,Liter,kleinere,er,überwiegend,große,beteiligten,stand,Menge,mit,Masse,Mann,kann,Masse,dem,Zuckers,260.000,dem,Kleidung,werden,Größe,260.000,dann,mit,mit,habe,die,aus,Liter,mit,wurde,Leinwand,Dänemark,beteiligter,wurden,Dänemark,mit,Berge,kleinere,Lust,roter,können,,,,,,,,,,,,,,,,,,,,,,,4,0,4,0,0,3,3,3,,,,,,,space,0.479393959045,,,,,,2017_Jan_30_1443,59.3905616348,spr_backupper,001,Di10,
,man,wir,auf,Büschel,Bluts,man,schönen,richtige,ich,immer,den,sind,aus,alten,bei,immer,die,"regelmäßigem,",Büschel,solch,36,bekannten,warmem,wurden,Stadt,jetzt,vierte,uns,Farbe,man,"reichlichem,",bei,schmutzige,Stadt,man,nicht,Packung,obwohl,die,dem,ausreichendem,viel,landen,"wertvollem,",Stimmung,dauerte,Wohnung,den,dank,ich,ein,wir,viel,obschon,wurden,war,Blut,sprudelnden,"Delikte,","trug,","nicht,",Packung,Fahrer,ein,alten,"üblichem,",mit,das,ich,mit,schönen,sind,Kilowattstunden,bekannten,landen,die,36,Kilowattstunden,mit,dauerhaftem,"minimalem,",ich,Wohnung,"Japan,",sprudelndes,"sämtlichem,",schon,aus,gelegentlich,Fahrer,mit,einen,solchen,schmutziger,"Delikte,",auf,Farbe,Neuwahlen,,,,,,,,,,,,,,,,,,,,,,,4,0,4,0,0,4,4,4,,,,,,,space,0.453413963318,,,,,,2017_Jan_30_1443,59.3905616348,spr_backupper,001,Di10,
,der,von,noch,frisches,hat,eine,Wetters,"Zeit,",leider,350,roten,auf,feinem,Krams,minimalem,350,Störenfriede,kaltem,frischen,unzureichenden,würden,Skandals,weichem,serviert.,liegen,"nachgewiesen,",Bundespräsident.,die,geschleudert.,den,purem,"frischem,",Wäsche.,liegen,eine,am,salzige,sie,Störenfriede,Mann,monatlichem,Lärm,im,klassischen,ziemlich,ungefähr,des,roten,täglichem,mehr,Glas,um,Lärm,sie,serviert.,die,hat,Trinkwassers.,derer,war,was,salziger,wurden,Glas,Kram,harten,einem,Auto,leider,einem,Wetter,auf,elektrischer,Skandal,im,Tiere,hätten,elektrische,"reichem,",feinem,sauberen,mehr,des,die,Trinkwasser.,künftigem,immer,seltenem,einen,wurden,zusätzlichem,gelegentlichen,unzureichenden,Wäsche.,deren,noch,geschleudert.,vor,,,,,,,,,,,,,,,,,,,,,,,4,0,4,0,0,5,5,5,,,,,,,space,0.407976150513,,,,,,2017_Jan_30_1443,59.3905616348,spr_backupper,001,Di10,
,Soldaten,den,eine,Gras,den,große,die,um,nichts,ml,Planeten,jeden,dichten,aus,täglichen,ml,jeden.,Abduschen,Grases,Helmen,seiner,wiedergewählt.,Untergrund,nan,die,dass,nan,Stimmung,nan,Soldaten,Alkohol,kaltem,nan,die,große,Hauptbahnhof.,Wurst,defekt,jeden.,mehr,Taschengeld,um,Müll.,Schmuck,"vermiest,",drei,Herrn,Planet,grünen,als,köstlicher,die,um,defekt,nan,Flut,den,nan,sie,aus,Tupperware,Wurst,verschrottet.,köstlichen,aus,Schaumstoff,Esslöffel,mehr,nichts,Esslöffel,die,jeden,Energie.,wiedergewählt.,Müll.,artgerecht,seiner,Energie.,goldenen,Kunsteis,Kraftstoff,als,Herrn,er,nan,Einkommen,ruhig,dichten,Besucher.,verschrottet.,schwarzem,Besucher.,Helmen,nan,sie,eine,nan,Dezember,,,,,,,,,,,,,,,,,,,,,,,4,0,4,0,0,6,6,6,,,,,,,space,0.470383882523,,,,,,2017_Jan_30_1443,59.3905616348,spr_backupper,001,Di10,
,des,Problemen,Sammlung,zwängen.,Boden,Menge,Wohnung.,Nadelhölzer,mitbringen.,warme,ganz,Fall,Stoff,dem,Einsatz,warmer,nan,gehärtet.,zwängen.,zur,Frau,nan,liegen.,nan,Slums.,das,nan,ziemlich,nan,des,verdünnt.,Saft,nan,Slums.,Menge,nan,mit,war.,nan,als,selber,jede,nan,umgearbeitet.,dass,Tage.,Gantenbeins.,ganz,Tee,einmal,Wein,Probleme,jede,war.,nan,zurückgekehrt.,Boden,nan,überführt,Japan.,ist.,mit,nan,Weins,dem,gefertigt.,warmen,als,mitbringen.,warmem,Wohnung.,Fall,nan,nan,nan,gehalten.,Frau,nan,Besatz,eingesprüht.,fahren.,einmal,Gantenbein.,trug.,nan,haftbar.,diskutiert.,Gewebe,nan,nan,Kaffee,nan,zur,nan,überführt,Sammlung,nan,stattfinden.,,,,,,,,,,,,,,,,,,,,,,,4,0,4,0,0,7,7,7,,,,,,,space,0.433137893677,,,,,,2017_Jan_30_1443,59.3905616348,spr_backupper,001,Di10,
,zweiten,im,dumme,nan,berührt.,dunkle,nan,umzusetzen.,nan,Milch.,deutlich.,genug.,gefertigt.,Haus,sinken.,Milch.,nan,nan,nan,Schule.,gepasst,nan,nan,nan,nan,Medikament,nan,vermiest.,nan,zweiten,nan,besprochen.,nan,nan,dunkler,nan,an,nan,nan,gerne.,kaufen.,Menge,nan,nan,es,nan,nan,deutlich.,wieder,Rilke.,schon,im,Menge,nan,nan,nan,berührt.,nan,wurden.,nan,nan,an,nan,schon,Haus,nan,Honigs,gerne.,nan,Honig,nan,genug.,nan,nan,nan,nan,gepasst.,nan,rekonstruiert.,nan,nan,Rilke,nan,nan,nan,nan,nan,wiederhergestellt.,nan,nan,wiederbelebt.,nan,Schule.,nan,wurden.,dummer,nan,nan,,,,,,,,,,,,,,,,,,,,,,,4,0,4,0,0,8,8,8,,,,,,,space,0.604560136795,,,,,,2017_Jan_30_1443,59.3905616348,spr_backupper,001,Di10,
,,,,,,,,,,,,,,,,,,,,,,,,,,,,,,,,,,,,,,,,,,,,,,,,,,,,,,,,,,,,,,,,,,,,,,,,,,,,,,,,,,,,,,,,,,,,,,,,,,,,,,,,,,,,,,,,,,,,,,,,,4,0,4,0,,,,,,,,,,,,,None,j,1.59166502953,,,2017_Jan_30_1443,59.3905616348,spr_backupper,001,Di10,
,Bei,In,Sie,Wir,Nicht,Mit,Sie,Jetzt,Außer,In,Im,100,Er,Wir,Ihr,In,Außer,Die,Wir,Die,Die,Er,Jungtiere,Beträchtliche,Am,In,Walter,Dass,Es,Bei,Die,Sie,Dort,Am,Mit,Die,Ich,Die,Außer,Wir,Jugendliche,Man,Viele,Die,Es,Der,Die,Im,Ich,In,Bei,In,Man,Die,Beträchtliche,Als,Nicht,Sie,Es,Die,Die,Ich,Die,Bei,Wir,Alle,Er,Wir,Außer,Er,Sie,100,Die,Er,Viele,In,Die,Die,Das,Die,Wir,In,Die,Die,Sie,Manche,Fernab,Danach,Wir,Die,Die,Wir,Die,Dort,Es,Sie,Es,Unter,,,,,,,,,,,,,,,,,,,,,,,5,0,5,0,0,0,0,0,,,,,,space,space,0.378508806229,,,,0.839148044586,,2017_Jan_30_1443,59.3905616348,spr_backupper,001,Di10,
,der,der,hatte,mussten,ein,dieser,verlassen,ist,dem,den,Fernrohr,g,hat,haben,Blutdruck,den,dem,Formen,mussten,Kinder,Schuhe,wurde,sollten,Stücke,äußersten,einer,Scheel,es,wurden,der,Lösung,haben,türmen,äußeren,dieser,Linie,nehme,Uhr,den,übergaben,können,machte,Tonnen,Stücke,hat,Flug,Gäste,Fernrohr,wurde,meinem,unserer,der,machte,Uhr,Stücke,die,ein,verbrauchen,waren,"Uhr,",Teilnehmerinnen,nehme,Autos,unserer,haben,Betten,stellt,übergaben,das,stellt,verlassen,g,Schule,wurde,Tonnen,diesem,Schuhe,Schule,Tuch,Eislaufbahnen,konnten,meinem,Gäste,Uhr,verbrauchen,Kreditnehmer,des,wurde,hatten,Autos,müden,hatten,Kinder,türmen,waren,hatte,wurden,keinen,,,,,,,,,,,,,,,,,,,,,,,5,0,5,0,0,1,1,1,,,,,,,space,0.385832071304,,,,,,2017_Jan_30_1443,59.3905616348,spr_backupper,001,Di10,
,Feier,Tat,keine,uns,Tropfen,Methode,wegen,genau,Essen,Kakao,sahen,brauner,ein,jede,kann,Kakao,Bürgermeister,wurden,uns,fuhren,in,trotz,immer,saftiges,Rand,Studie,war,"regnete,",Eimer,Feier,wird,die,sich,Rand,Methode,101,eine,schlug,Bürgermeister,das,Kleidung,mal,gebrauchte,wurden,uns,zum,suchen,sahen,damals,Studium,Ankunft,Tat,mal,schlug,saftigen,Sonne,Tropfen,60,nur,die,wussten,eine,beider,Ankunft,jede,wurden,die,dem,Essen,die,wegen,braunen,verbraucht,trotz,gebrauchter,Zirkus,in,verbraucht,wurde,wurden,dann,Studium,suchen,war,60,sind,Rummels,die,in,beider,Teilnehmer,in,fuhren,sich,nur,keine,Eimer,Umständen,,,,,,,,,,,,,,,,,,,,,,,5,0,5,0,0,2,2,2,,,,,,,space,0.35146689415,,,,,,2017_Jan_30_1443,59.3905616348,spr_backupper,001,Di10,
,gedachte,wissen,Lust,durch,königlichen,kann,des,die,kann,gehören,wir,Zucker,Hemd,Menge,schon,gehören,beschuldigten,unter,durch,mit,Größe,des,auf,Fleisch,der,wurde,der,hat,rote,gedachte,mit,Erlebnisse,Berge,der,kann,hält,große,"sporadisch,",beschuldigten,Auto,bei,wieder,Kleidung,aus,die,Mond,die,wir,schnell,las,stand,wissen,wieder,"sporadisch,",Fleischs,"unterging,",königliches,Liter,kleinere,er,überwiegend,große,beteiligten,stand,Menge,mit,Masse,Mann,kann,Masse,dem,Zuckers,260.000,dem,Kleidung,werden,Größe,260.000,dann,mit,mit,habe,die,aus,Liter,mit,wurde,Leinwand,Dänemark,beteiligter,wurden,Dänemark,mit,Berge,kleinere,Lust,roter,können,,,,,,,,,,,,,,,,,,,,,,,5,0,5,0,0,3,3,3,,,,,,,space,0.386694192886,,,,,,2017_Jan_30_1443,59.3905616348,spr_backupper,001,Di10,
,man,wir,auf,Büschel,Bluts,man,schönen,richtige,ich,immer,den,sind,aus,alten,bei,immer,die,"regelmäßigem,",Büschel,solch,36,bekannten,warmem,wurden,Stadt,jetzt,vierte,uns,Farbe,man,"reichlichem,",bei,schmutzige,Stadt,man,nicht,Packung,obwohl,die,dem,ausreichendem,viel,landen,"wertvollem,",Stimmung,dauerte,Wohnung,den,dank,ich,ein,wir,viel,obschon,wurden,war,Blut,sprudelnden,"Delikte,","trug,","nicht,",Packung,Fahrer,ein,alten,"üblichem,",mit,das,ich,mit,schönen,sind,Kilowattstunden,bekannten,landen,die,36,Kilowattstunden,mit,dauerhaftem,"minimalem,",ich,Wohnung,"Japan,",sprudelndes,"sämtlichem,",schon,aus,gelegentlich,Fahrer,mit,einen,solchen,schmutziger,"Delikte,",auf,Farbe,Neuwahlen,,,,,,,,,,,,,,,,,,,,,,,5,0,5,0,0,4,4,4,,,,,,,space,0.375642061234,,,,,,2017_Jan_30_1443,59.3905616348,spr_backupper,001,Di10,
,der,von,noch,frisches,hat,eine,Wetters,"Zeit,",leider,350,roten,auf,feinem,Krams,minimalem,350,Störenfriede,kaltem,frischen,unzureichenden,würden,Skandals,weichem,serviert.,liegen,"nachgewiesen,",Bundespräsident.,die,geschleudert.,den,purem,"frischem,",Wäsche.,liegen,eine,am,salzige,sie,Störenfriede,Mann,monatlichem,Lärm,im,klassischen,ziemlich,ungefähr,des,roten,täglichem,mehr,Glas,um,Lärm,sie,serviert.,die,hat,Trinkwassers.,derer,war,was,salziger,wurden,Glas,Kram,harten,einem,Auto,leider,einem,Wetter,auf,elektrischer,Skandal,im,Tiere,hätten,elektrische,"reichem,",feinem,sauberen,mehr,des,die,Trinkwasser.,künftigem,immer,seltenem,einen,wurden,zusätzlichem,gelegentlichen,unzureichenden,Wäsche.,deren,noch,geschleudert.,vor,,,,,,,,,,,,,,,,,,,,,,,5,0,5,0,0,5,5,5,,,,,,,space,0.353581905365,,,,,,2017_Jan_30_1443,59.3905616348,spr_backupper,001,Di10,
,Soldaten,den,eine,Gras,den,große,die,um,nichts,ml,Planeten,jeden,dichten,aus,täglichen,ml,jeden.,Abduschen,Grases,Helmen,seiner,wiedergewählt.,Untergrund,nan,die,dass,nan,Stimmung,nan,Soldaten,Alkohol,kaltem,nan,die,große,Hauptbahnhof.,Wurst,defekt,jeden.,mehr,Taschengeld,um,Müll.,Schmuck,"vermiest,",drei,Herrn,Planet,grünen,als,köstlicher,die,um,defekt,nan,Flut,den,nan,sie,aus,Tupperware,Wurst,verschrottet.,köstlichen,aus,Schaumstoff,Esslöffel,mehr,nichts,Esslöffel,die,jeden,Energie.,wiedergewählt.,Müll.,artgerecht,seiner,Energie.,goldenen,Kunsteis,Kraftstoff,als,Herrn,er,nan,Einkommen,ruhig,dichten,Besucher.,verschrottet.,schwarzem,Besucher.,Helmen,nan,sie,eine,nan,Dezember,,,,,,,,,,,,,,,,,,,,,,,5,0,5,0,0,6,6,6,,,,,,,space,0.412495851517,,,,,,2017_Jan_30_1443,59.3905616348,spr_backupper,001,Di10,
,des,Problemen,Sammlung,zwängen.,Boden,Menge,Wohnung.,Nadelhölzer,mitbringen.,warme,ganz,Fall,Stoff,dem,Einsatz,warmer,nan,gehärtet.,zwängen.,zur,Frau,nan,liegen.,nan,Slums.,das,nan,ziemlich,nan,des,verdünnt.,Saft,nan,Slums.,Menge,nan,mit,war.,nan,als,selber,jede,nan,umgearbeitet.,dass,Tage.,Gantenbeins.,ganz,Tee,einmal,Wein,Probleme,jede,war.,nan,zurückgekehrt.,Boden,nan,überführt,Japan.,ist.,mit,nan,Weins,dem,gefertigt.,warmen,als,mitbringen.,warmem,Wohnung.,Fall,nan,nan,nan,gehalten.,Frau,nan,Besatz,eingesprüht.,fahren.,einmal,Gantenbein.,trug.,nan,haftbar.,diskutiert.,Gewebe,nan,nan,Kaffee,nan,zur,nan,überführt,Sammlung,nan,stattfinden.,,,,,,,,,,,,,,,,,,,,,,,5,0,5,0,0,7,7,7,,,,,,,space,0.358974218369,,,,,,2017_Jan_30_1443,59.3905616348,spr_backupper,001,Di10,
,zweiten,im,dumme,nan,berührt.,dunkle,nan,umzusetzen.,nan,Milch.,deutlich.,genug.,gefertigt.,Haus,sinken.,Milch.,nan,nan,nan,Schule.,gepasst,nan,nan,nan,nan,Medikament,nan,vermiest.,nan,zweiten,nan,besprochen.,nan,nan,dunkler,nan,an,nan,nan,gerne.,kaufen.,Menge,nan,nan,es,nan,nan,deutlich.,wieder,Rilke.,schon,im,Menge,nan,nan,nan,berührt.,nan,wurden.,nan,nan,an,nan,schon,Haus,nan,Honigs,gerne.,nan,Honig,nan,genug.,nan,nan,nan,nan,gepasst.,nan,rekonstruiert.,nan,nan,Rilke,nan,nan,nan,nan,nan,wiederhergestellt.,nan,nan,wiederbelebt.,nan,Schule.,nan,wurden.,dummer,nan,nan,,,,,,,,,,,,,,,,,,,,,,,5,0,5,0,0,8,8,8,,,,,,,space,0.336782932281,,,,,,2017_Jan_30_1443,59.3905616348,spr_backupper,001,Di10,
,,,,,,,,,,,,,,,,,,,,,,,,,,,,,,,,,,,,,,,,,,,,,,,,,,,,,,,,,,,,,,,,,,,,,,,,,,,,,,,,,,,,,,,,,,,,,,,,,,,,,,,,,,,,,,,,,,,,,,,,,5,0,5,0,,,,,,,,,,,,,None,j,1.75894808769,,,2017_Jan_30_1443,59.3905616348,spr_backupper,001,Di10,
,Bei,In,Sie,Wir,Nicht,Mit,Sie,Jetzt,Außer,In,Im,100,Er,Wir,Ihr,In,Außer,Die,Wir,Die,Die,Er,Jungtiere,Beträchtliche,Am,In,Walter,Dass,Es,Bei,Die,Sie,Dort,Am,Mit,Die,Ich,Die,Außer,Wir,Jugendliche,Man,Viele,Die,Es,Der,Die,Im,Ich,In,Bei,In,Man,Die,Beträchtliche,Als,Nicht,Sie,Es,Die,Die,Ich,Die,Bei,Wir,Alle,Er,Wir,Außer,Er,Sie,100,Die,Er,Viele,In,Die,Die,Das,Die,Wir,In,Die,Die,Sie,Manche,Fernab,Danach,Wir,Die,Die,Wir,Die,Dort,Es,Sie,Es,Unter,,,,,,,,,,,,,,,,,,,,,,,6,0,6,0,0,0,0,0,,,,,,space,space,0.349725961685,,,,0.906283855438,,2017_Jan_30_1443,59.3905616348,spr_backupper,001,Di10,
,der,der,hatte,mussten,ein,dieser,verlassen,ist,dem,den,Fernrohr,g,hat,haben,Blutdruck,den,dem,Formen,mussten,Kinder,Schuhe,wurde,sollten,Stücke,äußersten,einer,Scheel,es,wurden,der,Lösung,haben,türmen,äußeren,dieser,Linie,nehme,Uhr,den,übergaben,können,machte,Tonnen,Stücke,hat,Flug,Gäste,Fernrohr,wurde,meinem,unserer,der,machte,Uhr,Stücke,die,ein,verbrauchen,waren,"Uhr,",Teilnehmerinnen,nehme,Autos,unserer,haben,Betten,stellt,übergaben,das,stellt,verlassen,g,Schule,wurde,Tonnen,diesem,Schuhe,Schule,Tuch,Eislaufbahnen,konnten,meinem,Gäste,Uhr,verbrauchen,Kreditnehmer,des,wurde,hatten,Autos,müden,hatten,Kinder,türmen,waren,hatte,wurden,keinen,,,,,,,,,,,,,,,,,,,,,,,6,0,6,0,0,1,1,1,,,,,,,space,0.403787851334,,,,,,2017_Jan_30_1443,59.3905616348,spr_backupper,001,Di10,
,Feier,Tat,keine,uns,Tropfen,Methode,wegen,genau,Essen,Kakao,sahen,brauner,ein,jede,kann,Kakao,Bürgermeister,wurden,uns,fuhren,in,trotz,immer,saftiges,Rand,Studie,war,"regnete,",Eimer,Feier,wird,die,sich,Rand,Methode,101,eine,schlug,Bürgermeister,das,Kleidung,mal,gebrauchte,wurden,uns,zum,suchen,sahen,damals,Studium,Ankunft,Tat,mal,schlug,saftigen,Sonne,Tropfen,60,nur,die,wussten,eine,beider,Ankunft,jede,wurden,die,dem,Essen,die,wegen,braunen,verbraucht,trotz,gebrauchter,Zirkus,in,verbraucht,wurde,wurden,dann,Studium,suchen,war,60,sind,Rummels,die,in,beider,Teilnehmer,in,fuhren,sich,nur,keine,Eimer,Umständen,,,,,,,,,,,,,,,,,,,,,,,6,0,6,0,0,2,2,2,,,,,,,space,0.408064126968,,,,,,2017_Jan_30_1443,59.3905616348,spr_backupper,001,Di10,
,gedachte,wissen,Lust,durch,königlichen,kann,des,die,kann,gehören,wir,Zucker,Hemd,Menge,schon,gehören,beschuldigten,unter,durch,mit,Größe,des,auf,Fleisch,der,wurde,der,hat,rote,gedachte,mit,Erlebnisse,Berge,der,kann,hält,große,"sporadisch,",beschuldigten,Auto,bei,wieder,Kleidung,aus,die,Mond,die,wir,schnell,las,stand,wissen,wieder,"sporadisch,",Fleischs,"unterging,",königliches,Liter,kleinere,er,überwiegend,große,beteiligten,stand,Menge,mit,Masse,Mann,kann,Masse,dem,Zuckers,260.000,dem,Kleidung,werden,Größe,260.000,dann,mit,mit,habe,die,aus,Liter,mit,wurde,Leinwand,Dänemark,beteiligter,wurden,Dänemark,mit,Berge,kleinere,Lust,roter,können,,,,,,,,,,,,,,,,,,,,,,,6,0,6,0,0,3,3,3,,,,,,,space,0.386832952499,,,,,,2017_Jan_30_1443,59.3905616348,spr_backupper,001,Di10,
,man,wir,auf,Büschel,Bluts,man,schönen,richtige,ich,immer,den,sind,aus,alten,bei,immer,die,"regelmäßigem,",Büschel,solch,36,bekannten,warmem,wurden,Stadt,jetzt,vierte,uns,Farbe,man,"reichlichem,",bei,schmutzige,Stadt,man,nicht,Packung,obwohl,die,dem,ausreichendem,viel,landen,"wertvollem,",Stimmung,dauerte,Wohnung,den,dank,ich,ein,wir,viel,obschon,wurden,war,Blut,sprudelnden,"Delikte,","trug,","nicht,",Packung,Fahrer,ein,alten,"üblichem,",mit,das,ich,mit,schönen,sind,Kilowattstunden,bekannten,landen,die,36,Kilowattstunden,mit,dauerhaftem,"minimalem,",ich,Wohnung,"Japan,",sprudelndes,"sämtlichem,",schon,aus,gelegentlich,Fahrer,mit,einen,solchen,schmutziger,"Delikte,",auf,Farbe,Neuwahlen,,,,,,,,,,,,,,,,,,,,,,,6,0,6,0,0,4,4,4,,,,,,,space,0.385011911392,,,,,,2017_Jan_30_1443,59.3905616348,spr_backupper,001,Di10,
,der,von,noch,frisches,hat,eine,Wetters,"Zeit,",leider,350,roten,auf,feinem,Krams,minimalem,350,Störenfriede,kaltem,frischen,unzureichenden,würden,Skandals,weichem,serviert.,liegen,"nachgewiesen,",Bundespräsident.,die,geschleudert.,den,purem,"frischem,",Wäsche.,liegen,eine,am,salzige,sie,Störenfriede,Mann,monatlichem,Lärm,im,klassischen,ziemlich,ungefähr,des,roten,täglichem,mehr,Glas,um,Lärm,sie,serviert.,die,hat,Trinkwassers.,derer,war,was,salziger,wurden,Glas,Kram,harten,einem,Auto,leider,einem,Wetter,auf,elektrischer,Skandal,im,Tiere,hätten,elektrische,"reichem,",feinem,sauberen,mehr,des,die,Trinkwasser.,künftigem,immer,seltenem,einen,wurden,zusätzlichem,gelegentlichen,unzureichenden,Wäsche.,deren,noch,geschleudert.,vor,,,,,,,,,,,,,,,,,,,,,,,6,0,6,0,0,5,5,5,,,,,,,space,0.436649084091,,,,,,2017_Jan_30_1443,59.3905616348,spr_backupper,001,Di10,
,Soldaten,den,eine,Gras,den,große,die,um,nichts,ml,Planeten,jeden,dichten,aus,täglichen,ml,jeden.,Abduschen,Grases,Helmen,seiner,wiedergewählt.,Untergrund,nan,die,dass,nan,Stimmung,nan,Soldaten,Alkohol,kaltem,nan,die,große,Hauptbahnhof.,Wurst,defekt,jeden.,mehr,Taschengeld,um,Müll.,Schmuck,"vermiest,",drei,Herrn,Planet,grünen,als,köstlicher,die,um,defekt,nan,Flut,den,nan,sie,aus,Tupperware,Wurst,verschrottet.,köstlichen,aus,Schaumstoff,Esslöffel,mehr,nichts,Esslöffel,die,jeden,Energie.,wiedergewählt.,Müll.,artgerecht,seiner,Energie.,goldenen,Kunsteis,Kraftstoff,als,Herrn,er,nan,Einkommen,ruhig,dichten,Besucher.,verschrottet.,schwarzem,Besucher.,Helmen,nan,sie,eine,nan,Dezember,,,,,,,,,,,,,,,,,,,,,,,6,0,6,0,0,6,6,6,,,,,,,space,0.418694019318,,,,,,2017_Jan_30_1443,59.3905616348,spr_backupper,001,Di10,
,des,Problemen,Sammlung,zwängen.,Boden,Menge,Wohnung.,Nadelhölzer,mitbringen.,warme,ganz,Fall,Stoff,dem,Einsatz,warmer,nan,gehärtet.,zwängen.,zur,Frau,nan,liegen.,nan,Slums.,das,nan,ziemlich,nan,des,verdünnt.,Saft,nan,Slums.,Menge,nan,mit,war.,nan,als,selber,jede,nan,umgearbeitet.,dass,Tage.,Gantenbeins.,ganz,Tee,einmal,Wein,Probleme,jede,war.,nan,zurückgekehrt.,Boden,nan,überführt,Japan.,ist.,mit,nan,Weins,dem,gefertigt.,warmen,als,mitbringen.,warmem,Wohnung.,Fall,nan,nan,nan,gehalten.,Frau,nan,Besatz,eingesprüht.,fahren.,einmal,Gantenbein.,trug.,nan,haftbar.,diskutiert.,Gewebe,nan,nan,Kaffee,nan,zur,nan,überführt,Sammlung,nan,stattfinden.,,,,,,,,,,,,,,,,,,,,,,,6,0,6,0,0,7,7,7,,,,,,,space,0.721289157867,,,,,,2017_Jan_30_1443,59.3905616348,spr_backupper,001,Di10,
,,,,,,,,,,,,,,,,,,,,,,,,,,,,,,,,,,,,,,,,,,,,,,,,,,,,,,,,,,,,,,,,,,,,,,,,,,,,,,,,,,,,,,,,,,,,,,,,,,,,,,,,,,,,,,,,,,,,,,,,,6,0,6,0,,,,,,,,,,,,,None,n,2.75352787971,,,2017_Jan_30_1443,59.3905616348,spr_backupper,001,Di10,
,Bei,In,Sie,Wir,Nicht,Mit,Sie,Jetzt,Außer,In,Im,100,Er,Wir,Ihr,In,Außer,Die,Wir,Die,Die,Er,Jungtiere,Beträchtliche,Am,In,Walter,Dass,Es,Bei,Die,Sie,Dort,Am,Mit,Die,Ich,Die,Außer,Wir,Jugendliche,Man,Viele,Die,Es,Der,Die,Im,Ich,In,Bei,In,Man,Die,Beträchtliche,Als,Nicht,Sie,Es,Die,Die,Ich,Die,Bei,Wir,Alle,Er,Wir,Außer,Er,Sie,100,Die,Er,Viele,In,Die,Die,Das,Die,Wir,In,Die,Die,Sie,Manche,Fernab,Danach,Wir,Die,Die,Wir,Die,Dort,Es,Sie,Es,Unter,,,,,,,,,,,,,,,,,,,,,,,7,0,7,0,0,0,0,0,,,,,,space,space,0.444824934006,,,,0.704842090607,,2017_Jan_30_1443,59.3905616348,spr_backupper,001,Di10,
,der,der,hatte,mussten,ein,dieser,verlassen,ist,dem,den,Fernrohr,g,hat,haben,Blutdruck,den,dem,Formen,mussten,Kinder,Schuhe,wurde,sollten,Stücke,äußersten,einer,Scheel,es,wurden,der,Lösung,haben,türmen,äußeren,dieser,Linie,nehme,Uhr,den,übergaben,können,machte,Tonnen,Stücke,hat,Flug,Gäste,Fernrohr,wurde,meinem,unserer,der,machte,Uhr,Stücke,die,ein,verbrauchen,waren,"Uhr,",Teilnehmerinnen,nehme,Autos,unserer,haben,Betten,stellt,übergaben,das,stellt,verlassen,g,Schule,wurde,Tonnen,diesem,Schuhe,Schule,Tuch,Eislaufbahnen,konnten,meinem,Gäste,Uhr,verbrauchen,Kreditnehmer,des,wurde,hatten,Autos,müden,hatten,Kinder,türmen,waren,hatte,wurden,keinen,,,,,,,,,,,,,,,,,,,,,,,7,0,7,0,0,1,1,1,,,,,,,space,0.494695901871,,,,,,2017_Jan_30_1443,59.3905616348,spr_backupper,001,Di10,
,Feier,Tat,keine,uns,Tropfen,Methode,wegen,genau,Essen,Kakao,sahen,brauner,ein,jede,kann,Kakao,Bürgermeister,wurden,uns,fuhren,in,trotz,immer,saftiges,Rand,Studie,war,"regnete,",Eimer,Feier,wird,die,sich,Rand,Methode,101,eine,schlug,Bürgermeister,das,Kleidung,mal,gebrauchte,wurden,uns,zum,suchen,sahen,damals,Studium,Ankunft,Tat,mal,schlug,saftigen,Sonne,Tropfen,60,nur,die,wussten,eine,beider,Ankunft,jede,wurden,die,dem,Essen,die,wegen,braunen,verbraucht,trotz,gebrauchter,Zirkus,in,verbraucht,wurde,wurden,dann,Studium,suchen,war,60,sind,Rummels,die,in,beider,Teilnehmer,in,fuhren,sich,nur,keine,Eimer,Umständen,,,,,,,,,,,,,,,,,,,,,,,7,0,7,0,0,2,2,2,,,,,,,space,0.392971992493,,,,,,2017_Jan_30_1443,59.3905616348,spr_backupper,001,Di10,
,gedachte,wissen,Lust,durch,königlichen,kann,des,die,kann,gehören,wir,Zucker,Hemd,Menge,schon,gehören,beschuldigten,unter,durch,mit,Größe,des,auf,Fleisch,der,wurde,der,hat,rote,gedachte,mit,Erlebnisse,Berge,der,kann,hält,große,"sporadisch,",beschuldigten,Auto,bei,wieder,Kleidung,aus,die,Mond,die,wir,schnell,las,stand,wissen,wieder,"sporadisch,",Fleischs,"unterging,",königliches,Liter,kleinere,er,überwiegend,große,beteiligten,stand,Menge,mit,Masse,Mann,kann,Masse,dem,Zuckers,260.000,dem,Kleidung,werden,Größe,260.000,dann,mit,mit,habe,die,aus,Liter,mit,wurde,Leinwand,Dänemark,beteiligter,wurden,Dänemark,mit,Berge,kleinere,Lust,roter,können,,,,,,,,,,,,,,,,,,,,,,,7,0,7,0,0,3,3,3,,,,,,,space,1.4213449955,,,,,,2017_Jan_30_1443,59.3905616348,spr_backupper,001,Di10,
,man,wir,auf,Büschel,Bluts,man,schönen,richtige,ich,immer,den,sind,aus,alten,bei,immer,die,"regelmäßigem,",Büschel,solch,36,bekannten,warmem,wurden,Stadt,jetzt,vierte,uns,Farbe,man,"reichlichem,",bei,schmutzige,Stadt,man,nicht,Packung,obwohl,die,dem,ausreichendem,viel,landen,"wertvollem,",Stimmung,dauerte,Wohnung,den,dank,ich,ein,wir,viel,obschon,wurden,war,Blut,sprudelnden,"Delikte,","trug,","nicht,",Packung,Fahrer,ein,alten,"üblichem,",mit,das,ich,mit,schönen,sind,Kilowattstunden,bekannten,landen,die,36,Kilowattstunden,mit,dauerhaftem,"minimalem,",ich,Wohnung,"Japan,",sprudelndes,"sämtlichem,",schon,aus,gelegentlich,Fahrer,mit,einen,solchen,schmutziger,"Delikte,",auf,Farbe,Neuwahlen,,,,,,,,,,,,,,,,,,,,,,,7,0,7,0,0,4,4,4,,,,,,,space,0.41027712822,,,,,,2017_Jan_30_1443,59.3905616348,spr_backupper,001,Di10,
,der,von,noch,frisches,hat,eine,Wetters,"Zeit,",leider,350,roten,auf,feinem,Krams,minimalem,350,Störenfriede,kaltem,frischen,unzureichenden,würden,Skandals,weichem,serviert.,liegen,"nachgewiesen,",Bundespräsident.,die,geschleudert.,den,purem,"frischem,",Wäsche.,liegen,eine,am,salzige,sie,Störenfriede,Mann,monatlichem,Lärm,im,klassischen,ziemlich,ungefähr,des,roten,täglichem,mehr,Glas,um,Lärm,sie,serviert.,die,hat,Trinkwassers.,derer,war,was,salziger,wurden,Glas,Kram,harten,einem,Auto,leider,einem,Wetter,auf,elektrischer,Skandal,im,Tiere,hätten,elektrische,"reichem,",feinem,sauberen,mehr,des,die,Trinkwasser.,künftigem,immer,seltenem,einen,wurden,zusätzlichem,gelegentlichen,unzureichenden,Wäsche.,deren,noch,geschleudert.,vor,,,,,,,,,,,,,,,,,,,,,,,7,0,7,0,0,5,5,5,,,,,,,space,0.871510028839,,,,,,2017_Jan_30_1443,59.3905616348,spr_backupper,001,Di10,
,Soldaten,den,eine,Gras,den,große,die,um,nichts,ml,Planeten,jeden,dichten,aus,täglichen,ml,jeden.,Abduschen,Grases,Helmen,seiner,wiedergewählt.,Untergrund,nan,die,dass,nan,Stimmung,nan,Soldaten,Alkohol,kaltem,nan,die,große,Hauptbahnhof.,Wurst,defekt,jeden.,mehr,Taschengeld,um,Müll.,Schmuck,"vermiest,",drei,Herrn,Planet,grünen,als,köstlicher,die,um,defekt,nan,Flut,den,nan,sie,aus,Tupperware,Wurst,verschrottet.,köstlichen,aus,Schaumstoff,Esslöffel,mehr,nichts,Esslöffel,die,jeden,Energie.,wiedergewählt.,Müll.,artgerecht,seiner,Energie.,goldenen,Kunsteis,Kraftstoff,als,Herrn,er,nan,Einkommen,ruhig,dichten,Besucher.,verschrottet.,schwarzem,Besucher.,Helmen,nan,sie,eine,nan,Dezember,,,,,,,,,,,,,,,,,,,,,,,7,0,7,0,0,6,6,6,,,,,,,space,0.550311803818,,,,,,2017_Jan_30_1443,59.3905616348,spr_backupper,001,Di10,
,des,Problemen,Sammlung,zwängen.,Boden,Menge,Wohnung.,Nadelhölzer,mitbringen.,warme,ganz,Fall,Stoff,dem,Einsatz,warmer,nan,gehärtet.,zwängen.,zur,Frau,nan,liegen.,nan,Slums.,das,nan,ziemlich,nan,des,verdünnt.,Saft,nan,Slums.,Menge,nan,mit,war.,nan,als,selber,jede,nan,umgearbeitet.,dass,Tage.,Gantenbeins.,ganz,Tee,einmal,Wein,Probleme,jede,war.,nan,zurückgekehrt.,Boden,nan,überführt,Japan.,ist.,mit,nan,Weins,dem,gefertigt.,warmen,als,mitbringen.,warmem,Wohnung.,Fall,nan,nan,nan,gehalten.,Frau,nan,Besatz,eingesprüht.,fahren.,einmal,Gantenbein.,trug.,nan,haftbar.,diskutiert.,Gewebe,nan,nan,Kaffee,nan,zur,nan,überführt,Sammlung,nan,stattfinden.,,,,,,,,,,,,,,,,,,,,,,,7,0,7,0,0,7,7,7,,,,,,,space,0.504169940948,,,,,,2017_Jan_30_1443,59.3905616348,spr_backupper,001,Di10,
,zweiten,im,dumme,nan,berührt.,dunkle,nan,umzusetzen.,nan,Milch.,deutlich.,genug.,gefertigt.,Haus,sinken.,Milch.,nan,nan,nan,Schule.,gepasst,nan,nan,nan,nan,Medikament,nan,vermiest.,nan,zweiten,nan,besprochen.,nan,nan,dunkler,nan,an,nan,nan,gerne.,kaufen.,Menge,nan,nan,es,nan,nan,deutlich.,wieder,Rilke.,schon,im,Menge,nan,nan,nan,berührt.,nan,wurden.,nan,nan,an,nan,schon,Haus,nan,Honigs,gerne.,nan,Honig,nan,genug.,nan,nan,nan,nan,gepasst.,nan,rekonstruiert.,nan,nan,Rilke,nan,nan,nan,nan,nan,wiederhergestellt.,nan,nan,wiederbelebt.,nan,Schule.,nan,wurden.,dummer,nan,nan,,,,,,,,,,,,,,,,,,,,,,,7,0,7,0,0,8,8,8,,,,,,,space,0.64505982399,,,,,,2017_Jan_30_1443,59.3905616348,spr_backupper,001,Di10,
,Weltkriegs.,Landkreis.,Sprüche.,nan,nan,Materie,nan,nan,nan,nan,nan,nan,nan,geschafft.,nan,nan,nan,nan,nan,nan,haben.,nan,nan,nan,nan,nicht,nan,nan,nan,Weltkriegs.,nan,nan,nan,nan,Materie,nan,den,nan,nan,nan,nan,heißer,nan,nan,regnete.,nan,nan,nan,fit.,nan,auf,Landkreis.,heiße,nan,nan,nan,nan,nan,nan,nan,nan,den,nan,auf,geschafft.,nan,her.,nan,nan,her.,nan,nan,nan,nan,nan,nan,nan,nan,nan,nan,nan,gelesen.,nan,nan,nan,nan,nan,nan,nan,nan,nan,nan,nan,nan,nan,Sprüche.,nan,nan,,,,,,,,,,,,,,,,,,,,,,,7,0,7,0,0,9,9,9,,,,,,,space,0.769335031509,,,,,,2017_Jan_30_1443,59.3905616348,spr_backupper,001,Di10,
,,,,,,,,,,,,,,,,,,,,,,,,,,,,,,,,,,,,,,,,,,,,,,,,,,,,,,,,,,,,,,,,,,,,,,,,,,,,,,,,,,,,,,,,,,,,,,,,,,,,,,,,,,,,,,,,,,,,,,,,,7,0,7,0,,,,,,,,,,,,,None,n,4.03875303268,,,2017_Jan_30_1443,59.3905616348,spr_backupper,001,Di10,
,Bei,In,Sie,Wir,Nicht,Mit,Sie,Jetzt,Außer,In,Im,100,Er,Wir,Ihr,In,Außer,Die,Wir,Die,Die,Er,Jungtiere,Beträchtliche,Am,In,Walter,Dass,Es,Bei,Die,Sie,Dort,Am,Mit,Die,Ich,Die,Außer,Wir,Jugendliche,Man,Viele,Die,Es,Der,Die,Im,Ich,In,Bei,In,Man,Die,Beträchtliche,Als,Nicht,Sie,Es,Die,Die,Ich,Die,Bei,Wir,Alle,Er,Wir,Außer,Er,Sie,100,Die,Er,Viele,In,Die,Die,Das,Die,Wir,In,Die,Die,Sie,Manche,Fernab,Danach,Wir,Die,Die,Wir,Die,Dort,Es,Sie,Es,Unter,,,,,,,,,,,,,,,,,,,,,,,8,0,8,0,0,0,0,0,,,,,,space,space,0.410252094269,,,,1.04014897346,,2017_Jan_30_1443,59.3905616348,spr_backupper,001,Di10,
,der,der,hatte,mussten,ein,dieser,verlassen,ist,dem,den,Fernrohr,g,hat,haben,Blutdruck,den,dem,Formen,mussten,Kinder,Schuhe,wurde,sollten,Stücke,äußersten,einer,Scheel,es,wurden,der,Lösung,haben,türmen,äußeren,dieser,Linie,nehme,Uhr,den,übergaben,können,machte,Tonnen,Stücke,hat,Flug,Gäste,Fernrohr,wurde,meinem,unserer,der,machte,Uhr,Stücke,die,ein,verbrauchen,waren,"Uhr,",Teilnehmerinnen,nehme,Autos,unserer,haben,Betten,stellt,übergaben,das,stellt,verlassen,g,Schule,wurde,Tonnen,diesem,Schuhe,Schule,Tuch,Eislaufbahnen,konnten,meinem,Gäste,Uhr,verbrauchen,Kreditnehmer,des,wurde,hatten,Autos,müden,hatten,Kinder,türmen,waren,hatte,wurden,keinen,,,,,,,,,,,,,,,,,,,,,,,8,0,8,0,0,1,1,1,,,,,,,space,0.427356958389,,,,,,2017_Jan_30_1443,59.3905616348,spr_backupper,001,Di10,
,Feier,Tat,keine,uns,Tropfen,Methode,wegen,genau,Essen,Kakao,sahen,brauner,ein,jede,kann,Kakao,Bürgermeister,wurden,uns,fuhren,in,trotz,immer,saftiges,Rand,Studie,war,"regnete,",Eimer,Feier,wird,die,sich,Rand,Methode,101,eine,schlug,Bürgermeister,das,Kleidung,mal,gebrauchte,wurden,uns,zum,suchen,sahen,damals,Studium,Ankunft,Tat,mal,schlug,saftigen,Sonne,Tropfen,60,nur,die,wussten,eine,beider,Ankunft,jede,wurden,die,dem,Essen,die,wegen,braunen,verbraucht,trotz,gebrauchter,Zirkus,in,verbraucht,wurde,wurden,dann,Studium,suchen,war,60,sind,Rummels,die,in,beider,Teilnehmer,in,fuhren,sich,nur,keine,Eimer,Umständen,,,,,,,,,,,,,,,,,,,,,,,8,0,8,0,0,2,2,2,,,,,,,space,0.65065407753,,,,,,2017_Jan_30_1443,59.3905616348,spr_backupper,001,Di10,
,gedachte,wissen,Lust,durch,königlichen,kann,des,die,kann,gehören,wir,Zucker,Hemd,Menge,schon,gehören,beschuldigten,unter,durch,mit,Größe,des,auf,Fleisch,der,wurde,der,hat,rote,gedachte,mit,Erlebnisse,Berge,der,kann,hält,große,"sporadisch,",beschuldigten,Auto,bei,wieder,Kleidung,aus,die,Mond,die,wir,schnell,las,stand,wissen,wieder,"sporadisch,",Fleischs,"unterging,",königliches,Liter,kleinere,er,überwiegend,große,beteiligten,stand,Menge,mit,Masse,Mann,kann,Masse,dem,Zuckers,260.000,dem,Kleidung,werden,Größe,260.000,dann,mit,mit,habe,die,aus,Liter,mit,wurde,Leinwand,Dänemark,beteiligter,wurden,Dänemark,mit,Berge,kleinere,Lust,roter,können,,,,,,,,,,,,,,,,,,,,,,,8,0,8,0,0,3,3,3,,,,,,,space,0.669238090515,,,,,,2017_Jan_30_1443,59.3905616348,spr_backupper,001,Di10,
,man,wir,auf,Büschel,Bluts,man,schönen,richtige,ich,immer,den,sind,aus,alten,bei,immer,die,"regelmäßigem,",Büschel,solch,36,bekannten,warmem,wurden,Stadt,jetzt,vierte,uns,Farbe,man,"reichlichem,",bei,schmutzige,Stadt,man,nicht,Packung,obwohl,die,dem,ausreichendem,viel,landen,"wertvollem,",Stimmung,dauerte,Wohnung,den,dank,ich,ein,wir,viel,obschon,wurden,war,Blut,sprudelnden,"Delikte,","trug,","nicht,",Packung,Fahrer,ein,alten,"üblichem,",mit,das,ich,mit,schönen,sind,Kilowattstunden,bekannten,landen,die,36,Kilowattstunden,mit,dauerhaftem,"minimalem,",ich,Wohnung,"Japan,",sprudelndes,"sämtlichem,",schon,aus,gelegentlich,Fahrer,mit,einen,solchen,schmutziger,"Delikte,",auf,Farbe,Neuwahlen,,,,,,,,,,,,,,,,,,,,,,,8,0,8,0,0,4,4,4,,,,,,,space,0.397224903107,,,,,,2017_Jan_30_1443,59.3905616348,spr_backupper,001,Di10,
,der,von,noch,frisches,hat,eine,Wetters,"Zeit,",leider,350,roten,auf,feinem,Krams,minimalem,350,Störenfriede,kaltem,frischen,unzureichenden,würden,Skandals,weichem,serviert.,liegen,"nachgewiesen,",Bundespräsident.,die,geschleudert.,den,purem,"frischem,",Wäsche.,liegen,eine,am,salzige,sie,Störenfriede,Mann,monatlichem,Lärm,im,klassischen,ziemlich,ungefähr,des,roten,täglichem,mehr,Glas,um,Lärm,sie,serviert.,die,hat,Trinkwassers.,derer,war,was,salziger,wurden,Glas,Kram,harten,einem,Auto,leider,einem,Wetter,auf,elektrischer,Skandal,im,Tiere,hätten,elektrische,"reichem,",feinem,sauberen,mehr,des,die,Trinkwasser.,künftigem,immer,seltenem,einen,wurden,zusätzlichem,gelegentlichen,unzureichenden,Wäsche.,deren,noch,geschleudert.,vor,,,,,,,,,,,,,,,,,,,,,,,8,0,8,0,0,5,5,5,,,,,,,space,0.292517185211,,,,,,2017_Jan_30_1443,59.3905616348,spr_backupper,001,Di10,
,Soldaten,den,eine,Gras,den,große,die,um,nichts,ml,Planeten,jeden,dichten,aus,täglichen,ml,jeden.,Abduschen,Grases,Helmen,seiner,wiedergewählt.,Untergrund,nan,die,dass,nan,Stimmung,nan,Soldaten,Alkohol,kaltem,nan,die,große,Hauptbahnhof.,Wurst,defekt,jeden.,mehr,Taschengeld,um,Müll.,Schmuck,"vermiest,",drei,Herrn,Planet,grünen,als,köstlicher,die,um,defekt,nan,Flut,den,nan,sie,aus,Tupperware,Wurst,verschrottet.,köstlichen,aus,Schaumstoff,Esslöffel,mehr,nichts,Esslöffel,die,jeden,Energie.,wiedergewählt.,Müll.,artgerecht,seiner,Energie.,goldenen,Kunsteis,Kraftstoff,als,Herrn,er,nan,Einkommen,ruhig,dichten,Besucher.,verschrottet.,schwarzem,Besucher.,Helmen,nan,sie,eine,nan,Dezember,,,,,,,,,,,,,,,,,,,,,,,8,0,8,0,0,6,6,6,,,,,,,space,0.352609157562,,,,,,2017_Jan_30_1443,59.3905616348,spr_backupper,001,Di10,
,des,Problemen,Sammlung,zwängen.,Boden,Menge,Wohnung.,Nadelhölzer,mitbringen.,warme,ganz,Fall,Stoff,dem,Einsatz,warmer,nan,gehärtet.,zwängen.,zur,Frau,nan,liegen.,nan,Slums.,das,nan,ziemlich,nan,des,verdünnt.,Saft,nan,Slums.,Menge,nan,mit,war.,nan,als,selber,jede,nan,umgearbeitet.,dass,Tage.,Gantenbeins.,ganz,Tee,einmal,Wein,Probleme,jede,war.,nan,zurückgekehrt.,Boden,nan,überführt,Japan.,ist.,mit,nan,Weins,dem,gefertigt.,warmen,als,mitbringen.,warmem,Wohnung.,Fall,nan,nan,nan,gehalten.,Frau,nan,Besatz,eingesprüht.,fahren.,einmal,Gantenbein.,trug.,nan,haftbar.,diskutiert.,Gewebe,nan,nan,Kaffee,nan,zur,nan,überführt,Sammlung,nan,stattfinden.,,,,,,,,,,,,,,,,,,,,,,,8,0,8,0,0,7,7,7,,,,,,,space,0.403604984283,,,,,,2017_Jan_30_1443,59.3905616348,spr_backupper,001,Di10,
,zweiten,im,dumme,nan,berührt.,dunkle,nan,umzusetzen.,nan,Milch.,deutlich.,genug.,gefertigt.,Haus,sinken.,Milch.,nan,nan,nan,Schule.,gepasst,nan,nan,nan,nan,Medikament,nan,vermiest.,nan,zweiten,nan,besprochen.,nan,nan,dunkler,nan,an,nan,nan,gerne.,kaufen.,Menge,nan,nan,es,nan,nan,deutlich.,wieder,Rilke.,schon,im,Menge,nan,nan,nan,berührt.,nan,wurden.,nan,nan,an,nan,schon,Haus,nan,Honigs,gerne.,nan,Honig,nan,genug.,nan,nan,nan,nan,gepasst.,nan,rekonstruiert.,nan,nan,Rilke,nan,nan,nan,nan,nan,wiederhergestellt.,nan,nan,wiederbelebt.,nan,Schule.,nan,wurden.,dummer,nan,nan,,,,,,,,,,,,,,,,,,,,,,,8,0,8,0,0,8,8,8,,,,,,,space,0.38382101059,,,,,,2017_Jan_30_1443,59.3905616348,spr_backupper,001,Di10,
,Weltkriegs.,Landkreis.,Sprüche.,nan,nan,Materie,nan,nan,nan,nan,nan,nan,nan,geschafft.,nan,nan,nan,nan,nan,nan,haben.,nan,nan,nan,nan,nicht,nan,nan,nan,Weltkriegs.,nan,nan,nan,nan,Materie,nan,den,nan,nan,nan,nan,heißer,nan,nan,regnete.,nan,nan,nan,fit.,nan,auf,Landkreis.,heiße,nan,nan,nan,nan,nan,nan,nan,nan,den,nan,auf,geschafft.,nan,her.,nan,nan,her.,nan,nan,nan,nan,nan,nan,nan,nan,nan,nan,nan,gelesen.,nan,nan,nan,nan,nan,nan,nan,nan,nan,nan,nan,nan,nan,Sprüche.,nan,nan,,,,,,,,,,,,,,,,,,,,,,,8,0,8,0,0,9,9,9,,,,,,,space,0.382113933563,,,,,,2017_Jan_30_1443,59.3905616348,spr_backupper,001,Di10,
,,,,,,,,,,,,,,,,,,,,,,,,,,,,,,,,,,,,,,,,,,,,,,,,,,,,,,,,,,,,,,,,,,,,,,,,,,,,,,,,,,,,,,,,,,,,,,,,,,,,,,,,,,,,,,,,,,,,,,,,,8,0,8,0,,,,,,,,,,,,,None,j,1.19737815857,,,2017_Jan_30_1443,59.3905616348,spr_backupper,001,Di10,
,Bei,In,Sie,Wir,Nicht,Mit,Sie,Jetzt,Außer,In,Im,100,Er,Wir,Ihr,In,Außer,Die,Wir,Die,Die,Er,Jungtiere,Beträchtliche,Am,In,Walter,Dass,Es,Bei,Die,Sie,Dort,Am,Mit,Die,Ich,Die,Außer,Wir,Jugendliche,Man,Viele,Die,Es,Der,Die,Im,Ich,In,Bei,In,Man,Die,Beträchtliche,Als,Nicht,Sie,Es,Die,Die,Ich,Die,Bei,Wir,Alle,Er,Wir,Außer,Er,Sie,100,Die,Er,Viele,In,Die,Die,Das,Die,Wir,In,Die,Die,Sie,Manche,Fernab,Danach,Wir,Die,Die,Wir,Die,Dort,Es,Sie,Es,Unter,,,,,,,,,,,,,,,,,,,,,,,9,0,9,0,0,0,0,0,,,,,,space,space,0.3438808918,,,,0.972895145416,,2017_Jan_30_1443,59.3905616348,spr_backupper,001,Di10,
,der,der,hatte,mussten,ein,dieser,verlassen,ist,dem,den,Fernrohr,g,hat,haben,Blutdruck,den,dem,Formen,mussten,Kinder,Schuhe,wurde,sollten,Stücke,äußersten,einer,Scheel,es,wurden,der,Lösung,haben,türmen,äußeren,dieser,Linie,nehme,Uhr,den,übergaben,können,machte,Tonnen,Stücke,hat,Flug,Gäste,Fernrohr,wurde,meinem,unserer,der,machte,Uhr,Stücke,die,ein,verbrauchen,waren,"Uhr,",Teilnehmerinnen,nehme,Autos,unserer,haben,Betten,stellt,übergaben,das,stellt,verlassen,g,Schule,wurde,Tonnen,diesem,Schuhe,Schule,Tuch,Eislaufbahnen,konnten,meinem,Gäste,Uhr,verbrauchen,Kreditnehmer,des,wurde,hatten,Autos,müden,hatten,Kinder,türmen,waren,hatte,wurden,keinen,,,,,,,,,,,,,,,,,,,,,,,9,0,9,0,0,1,1,1,,,,,,,space,0.626447200775,,,,,,2017_Jan_30_1443,59.3905616348,spr_backupper,001,Di10,
,Feier,Tat,keine,uns,Tropfen,Methode,wegen,genau,Essen,Kakao,sahen,brauner,ein,jede,kann,Kakao,Bürgermeister,wurden,uns,fuhren,in,trotz,immer,saftiges,Rand,Studie,war,"regnete,",Eimer,Feier,wird,die,sich,Rand,Methode,101,eine,schlug,Bürgermeister,das,Kleidung,mal,gebrauchte,wurden,uns,zum,suchen,sahen,damals,Studium,Ankunft,Tat,mal,schlug,saftigen,Sonne,Tropfen,60,nur,die,wussten,eine,beider,Ankunft,jede,wurden,die,dem,Essen,die,wegen,braunen,verbraucht,trotz,gebrauchter,Zirkus,in,verbraucht,wurde,wurden,dann,Studium,suchen,war,60,sind,Rummels,die,in,beider,Teilnehmer,in,fuhren,sich,nur,keine,Eimer,Umständen,,,,,,,,,,,,,,,,,,,,,,,9,0,9,0,0,2,2,2,,,,,,,space,0.419710874557,,,,,,2017_Jan_30_1443,59.3905616348,spr_backupper,001,Di10,
,gedachte,wissen,Lust,durch,königlichen,kann,des,die,kann,gehören,wir,Zucker,Hemd,Menge,schon,gehören,beschuldigten,unter,durch,mit,Größe,des,auf,Fleisch,der,wurde,der,hat,rote,gedachte,mit,Erlebnisse,Berge,der,kann,hält,große,"sporadisch,",beschuldigten,Auto,bei,wieder,Kleidung,aus,die,Mond,die,wir,schnell,las,stand,wissen,wieder,"sporadisch,",Fleischs,"unterging,",königliches,Liter,kleinere,er,überwiegend,große,beteiligten,stand,Menge,mit,Masse,Mann,kann,Masse,dem,Zuckers,260.000,dem,Kleidung,werden,Größe,260.000,dann,mit,mit,habe,die,aus,Liter,mit,wurde,Leinwand,Dänemark,beteiligter,wurden,Dänemark,mit,Berge,kleinere,Lust,roter,können,,,,,,,,,,,,,,,,,,,,,,,9,0,9,0,0,3,3,3,,,,,,,space,0.931779146194,,,,,,2017_Jan_30_1443,59.3905616348,spr_backupper,001,Di10,
,man,wir,auf,Büschel,Bluts,man,schönen,richtige,ich,immer,den,sind,aus,alten,bei,immer,die,"regelmäßigem,",Büschel,solch,36,bekannten,warmem,wurden,Stadt,jetzt,vierte,uns,Farbe,man,"reichlichem,",bei,schmutzige,Stadt,man,nicht,Packung,obwohl,die,dem,ausreichendem,viel,landen,"wertvollem,",Stimmung,dauerte,Wohnung,den,dank,ich,ein,wir,viel,obschon,wurden,war,Blut,sprudelnden,"Delikte,","trug,","nicht,",Packung,Fahrer,ein,alten,"üblichem,",mit,das,ich,mit,schönen,sind,Kilowattstunden,bekannten,landen,die,36,Kilowattstunden,mit,dauerhaftem,"minimalem,",ich,Wohnung,"Japan,",sprudelndes,"sämtlichem,",schon,aus,gelegentlich,Fahrer,mit,einen,solchen,schmutziger,"Delikte,",auf,Farbe,Neuwahlen,,,,,,,,,,,,,,,,,,,,,,,9,0,9,0,0,4,4,4,,,,,,,space,0.450251102448,,,,,,2017_Jan_30_1443,59.3905616348,spr_backupper,001,Di10,
,der,von,noch,frisches,hat,eine,Wetters,"Zeit,",leider,350,roten,auf,feinem,Krams,minimalem,350,Störenfriede,kaltem,frischen,unzureichenden,würden,Skandals,weichem,serviert.,liegen,"nachgewiesen,",Bundespräsident.,die,geschleudert.,den,purem,"frischem,",Wäsche.,liegen,eine,am,salzige,sie,Störenfriede,Mann,monatlichem,Lärm,im,klassischen,ziemlich,ungefähr,des,roten,täglichem,mehr,Glas,um,Lärm,sie,serviert.,die,hat,Trinkwassers.,derer,war,was,salziger,wurden,Glas,Kram,harten,einem,Auto,leider,einem,Wetter,auf,elektrischer,Skandal,im,Tiere,hätten,elektrische,"reichem,",feinem,sauberen,mehr,des,die,Trinkwasser.,künftigem,immer,seltenem,einen,wurden,zusätzlichem,gelegentlichen,unzureichenden,Wäsche.,deren,noch,geschleudert.,vor,,,,,,,,,,,,,,,,,,,,,,,9,0,9,0,0,5,5,5,,,,,,,space,0.340713977814,,,,,,2017_Jan_30_1443,59.3905616348,spr_backupper,001,Di10,
,,,,,,,,,,,,,,,,,,,,,,,,,,,,,,,,,,,,,,,,,,,,,,,,,,,,,,,,,,,,,,,,,,,,,,,,,,,,,,,,,,,,,,,,,,,,,,,,,,,,,,,,,,,,,,,,,,,,,,,,,9,0,9,0,,,,,,,,,,,,,None,n,1.19044303894,,,2017_Jan_30_1443,59.3905616348,spr_backupper,001,Di10,
,Bei,In,Sie,Wir,Nicht,Mit,Sie,Jetzt,Außer,In,Im,100,Er,Wir,Ihr,In,Außer,Die,Wir,Die,Die,Er,Jungtiere,Beträchtliche,Am,In,Walter,Dass,Es,Bei,Die,Sie,Dort,Am,Mit,Die,Ich,Die,Außer,Wir,Jugendliche,Man,Viele,Die,Es,Der,Die,Im,Ich,In,Bei,In,Man,Die,Beträchtliche,Als,Nicht,Sie,Es,Die,Die,Ich,Die,Bei,Wir,Alle,Er,Wir,Außer,Er,Sie,100,Die,Er,Viele,In,Die,Die,Das,Die,Wir,In,Die,Die,Sie,Manche,Fernab,Danach,Wir,Die,Die,Wir,Die,Dort,Es,Sie,Es,Unter,,,,,,,,,,,,,,,,,,,,,,,10,0,10,0,0,0,0,0,,,,,,space,space,0.661984205246,,,,1.17367815971,,2017_Jan_30_1443,59.3905616348,spr_backupper,001,Di10,
,der,der,hatte,mussten,ein,dieser,verlassen,ist,dem,den,Fernrohr,g,hat,haben,Blutdruck,den,dem,Formen,mussten,Kinder,Schuhe,wurde,sollten,Stücke,äußersten,einer,Scheel,es,wurden,der,Lösung,haben,türmen,äußeren,dieser,Linie,nehme,Uhr,den,übergaben,können,machte,Tonnen,Stücke,hat,Flug,Gäste,Fernrohr,wurde,meinem,unserer,der,machte,Uhr,Stücke,die,ein,verbrauchen,waren,"Uhr,",Teilnehmerinnen,nehme,Autos,unserer,haben,Betten,stellt,übergaben,das,stellt,verlassen,g,Schule,wurde,Tonnen,diesem,Schuhe,Schule,Tuch,Eislaufbahnen,konnten,meinem,Gäste,Uhr,verbrauchen,Kreditnehmer,des,wurde,hatten,Autos,müden,hatten,Kinder,türmen,waren,hatte,wurden,keinen,,,,,,,,,,,,,,,,,,,,,,,10,0,10,0,0,1,1,1,,,,,,,space,0.539862155914,,,,,,2017_Jan_30_1443,59.3905616348,spr_backupper,001,Di10,
,Feier,Tat,keine,uns,Tropfen,Methode,wegen,genau,Essen,Kakao,sahen,brauner,ein,jede,kann,Kakao,Bürgermeister,wurden,uns,fuhren,in,trotz,immer,saftiges,Rand,Studie,war,"regnete,",Eimer,Feier,wird,die,sich,Rand,Methode,101,eine,schlug,Bürgermeister,das,Kleidung,mal,gebrauchte,wurden,uns,zum,suchen,sahen,damals,Studium,Ankunft,Tat,mal,schlug,saftigen,Sonne,Tropfen,60,nur,die,wussten,eine,beider,Ankunft,jede,wurden,die,dem,Essen,die,wegen,braunen,verbraucht,trotz,gebrauchter,Zirkus,in,verbraucht,wurde,wurden,dann,Studium,suchen,war,60,sind,Rummels,die,in,beider,Teilnehmer,in,fuhren,sich,nur,keine,Eimer,Umständen,,,,,,,,,,,,,,,,,,,,,,,10,0,10,0,0,2,2,2,,,,,,,space,0.443391084671,,,,,,2017_Jan_30_1443,59.3905616348,spr_backupper,001,Di10,
,gedachte,wissen,Lust,durch,königlichen,kann,des,die,kann,gehören,wir,Zucker,Hemd,Menge,schon,gehören,beschuldigten,unter,durch,mit,Größe,des,auf,Fleisch,der,wurde,der,hat,rote,gedachte,mit,Erlebnisse,Berge,der,kann,hält,große,"sporadisch,",beschuldigten,Auto,bei,wieder,Kleidung,aus,die,Mond,die,wir,schnell,las,stand,wissen,wieder,"sporadisch,",Fleischs,"unterging,",königliches,Liter,kleinere,er,überwiegend,große,beteiligten,stand,Menge,mit,Masse,Mann,kann,Masse,dem,Zuckers,260.000,dem,Kleidung,werden,Größe,260.000,dann,mit,mit,habe,die,aus,Liter,mit,wurde,Leinwand,Dänemark,beteiligter,wurden,Dänemark,mit,Berge,kleinere,Lust,roter,können,,,,,,,,,,,,,,,,,,,,,,,10,0,10,0,0,3,3,3,,,,,,,space,0.397438049316,,,,,,2017_Jan_30_1443,59.3905616348,spr_backupper,001,Di10,
,man,wir,auf,Büschel,Bluts,man,schönen,richtige,ich,immer,den,sind,aus,alten,bei,immer,die,"regelmäßigem,",Büschel,solch,36,bekannten,warmem,wurden,Stadt,jetzt,vierte,uns,Farbe,man,"reichlichem,",bei,schmutzige,Stadt,man,nicht,Packung,obwohl,die,dem,ausreichendem,viel,landen,"wertvollem,",Stimmung,dauerte,Wohnung,den,dank,ich,ein,wir,viel,obschon,wurden,war,Blut,sprudelnden,"Delikte,","trug,","nicht,",Packung,Fahrer,ein,alten,"üblichem,",mit,das,ich,mit,schönen,sind,Kilowattstunden,bekannten,landen,die,36,Kilowattstunden,mit,dauerhaftem,"minimalem,",ich,Wohnung,"Japan,",sprudelndes,"sämtlichem,",schon,aus,gelegentlich,Fahrer,mit,einen,solchen,schmutziger,"Delikte,",auf,Farbe,Neuwahlen,,,,,,,,,,,,,,,,,,,,,,,10,0,10,0,0,4,4,4,,,,,,,space,0.436952829361,,,,,,2017_Jan_30_1443,59.3905616348,spr_backupper,001,Di10,
,der,von,noch,frisches,hat,eine,Wetters,"Zeit,",leider,350,roten,auf,feinem,Krams,minimalem,350,Störenfriede,kaltem,frischen,unzureichenden,würden,Skandals,weichem,serviert.,liegen,"nachgewiesen,",Bundespräsident.,die,geschleudert.,den,purem,"frischem,",Wäsche.,liegen,eine,am,salzige,sie,Störenfriede,Mann,monatlichem,Lärm,im,klassischen,ziemlich,ungefähr,des,roten,täglichem,mehr,Glas,um,Lärm,sie,serviert.,die,hat,Trinkwassers.,derer,war,was,salziger,wurden,Glas,Kram,harten,einem,Auto,leider,einem,Wetter,auf,elektrischer,Skandal,im,Tiere,hätten,elektrische,"reichem,",feinem,sauberen,mehr,des,die,Trinkwasser.,künftigem,immer,seltenem,einen,wurden,zusätzlichem,gelegentlichen,unzureichenden,Wäsche.,deren,noch,geschleudert.,vor,,,,,,,,,,,,,,,,,,,,,,,10,0,10,0,0,5,5,5,,,,,,,space,0.921083927155,,,,,,2017_Jan_30_1443,59.3905616348,spr_backupper,001,Di10,
,Soldaten,den,eine,Gras,den,große,die,um,nichts,ml,Planeten,jeden,dichten,aus,täglichen,ml,jeden.,Abduschen,Grases,Helmen,seiner,wiedergewählt.,Untergrund,nan,die,dass,nan,Stimmung,nan,Soldaten,Alkohol,kaltem,nan,die,große,Hauptbahnhof.,Wurst,defekt,jeden.,mehr,Taschengeld,um,Müll.,Schmuck,"vermiest,",drei,Herrn,Planet,grünen,als,köstlicher,die,um,defekt,nan,Flut,den,nan,sie,aus,Tupperware,Wurst,verschrottet.,köstlichen,aus,Schaumstoff,Esslöffel,mehr,nichts,Esslöffel,die,jeden,Energie.,wiedergewählt.,Müll.,artgerecht,seiner,Energie.,goldenen,Kunsteis,Kraftstoff,als,Herrn,er,nan,Einkommen,ruhig,dichten,Besucher.,verschrottet.,schwarzem,Besucher.,Helmen,nan,sie,eine,nan,Dezember,,,,,,,,,,,,,,,,,,,,,,,10,0,10,0,0,6,6,6,,,,,,,space,0.52396607399,,,,,,2017_Jan_30_1443,59.3905616348,spr_backupper,001,Di10,
,des,Problemen,Sammlung,zwängen.,Boden,Menge,Wohnung.,Nadelhölzer,mitbringen.,warme,ganz,Fall,Stoff,dem,Einsatz,warmer,nan,gehärtet.,zwängen.,zur,Frau,nan,liegen.,nan,Slums.,das,nan,ziemlich,nan,des,verdünnt.,Saft,nan,Slums.,Menge,nan,mit,war.,nan,als,selber,jede,nan,umgearbeitet.,dass,Tage.,Gantenbeins.,ganz,Tee,einmal,Wein,Probleme,jede,war.,nan,zurückgekehrt.,Boden,nan,überführt,Japan.,ist.,mit,nan,Weins,dem,gefertigt.,warmen,als,mitbringen.,warmem,Wohnung.,Fall,nan,nan,nan,gehalten.,Frau,nan,Besatz,eingesprüht.,fahren.,einmal,Gantenbein.,trug.,nan,haftbar.,diskutiert.,Gewebe,nan,nan,Kaffee,nan,zur,nan,überführt,Sammlung,nan,stattfinden.,,,,,,,,,,,,,,,,,,,,,,,10,0,10,0,0,7,7,7,,,,,,,space,0.553018093109,,,,,,2017_Jan_30_1443,59.3905616348,spr_backupper,001,Di10,
,,,,,,,,,,,,,,,,,,,,,,,,,,,,,,,,,,,,,,,,,,,,,,,,,,,,,,,,,,,,,,,,,,,,,,,,,,,,,,,,,,,,,,,,,,,,,,,,,,,,,,,,,,,,,,,,,,,,,,,,,10,0,10,0,,,,,,,,,,,,,None,n,1.36197209358,,,2017_Jan_30_1443,59.3905616348,spr_backupper,001,Di10,
,Bei,In,Sie,Wir,Nicht,Mit,Sie,Jetzt,Außer,In,Im,100,Er,Wir,Ihr,In,Außer,Die,Wir,Die,Die,Er,Jungtiere,Beträchtliche,Am,In,Walter,Dass,Es,Bei,Die,Sie,Dort,Am,Mit,Die,Ich,Die,Außer,Wir,Jugendliche,Man,Viele,Die,Es,Der,Die,Im,Ich,In,Bei,In,Man,Die,Beträchtliche,Als,Nicht,Sie,Es,Die,Die,Ich,Die,Bei,Wir,Alle,Er,Wir,Außer,Er,Sie,100,Die,Er,Viele,In,Die,Die,Das,Die,Wir,In,Die,Die,Sie,Manche,Fernab,Danach,Wir,Die,Die,Wir,Die,Dort,Es,Sie,Es,Unter,,,,,,,,,,,,,,,,,,,,,,,11,0,11,0,0,0,0,0,,,,,,space,space,0.000133991241455,,,,0.335682868958,,2017_Jan_30_1443,59.3905616348,spr_backupper,001,Di10,
,der,der,hatte,mussten,ein,dieser,verlassen,ist,dem,den,Fernrohr,g,hat,haben,Blutdruck,den,dem,Formen,mussten,Kinder,Schuhe,wurde,sollten,Stücke,äußersten,einer,Scheel,es,wurden,der,Lösung,haben,türmen,äußeren,dieser,Linie,nehme,Uhr,den,übergaben,können,machte,Tonnen,Stücke,hat,Flug,Gäste,Fernrohr,wurde,meinem,unserer,der,machte,Uhr,Stücke,die,ein,verbrauchen,waren,"Uhr,",Teilnehmerinnen,nehme,Autos,unserer,haben,Betten,stellt,übergaben,das,stellt,verlassen,g,Schule,wurde,Tonnen,diesem,Schuhe,Schule,Tuch,Eislaufbahnen,konnten,meinem,Gäste,Uhr,verbrauchen,Kreditnehmer,des,wurde,hatten,Autos,müden,hatten,Kinder,türmen,waren,hatte,wurden,keinen,,,,,,,,,,,,,,,,,,,,,,,11,0,11,0,0,1,1,1,,,,,,,space,0.450201034546,,,,,,2017_Jan_30_1443,59.3905616348,spr_backupper,001,Di10,
,Feier,Tat,keine,uns,Tropfen,Methode,wegen,genau,Essen,Kakao,sahen,brauner,ein,jede,kann,Kakao,Bürgermeister,wurden,uns,fuhren,in,trotz,immer,saftiges,Rand,Studie,war,"regnete,",Eimer,Feier,wird,die,sich,Rand,Methode,101,eine,schlug,Bürgermeister,das,Kleidung,mal,gebrauchte,wurden,uns,zum,suchen,sahen,damals,Studium,Ankunft,Tat,mal,schlug,saftigen,Sonne,Tropfen,60,nur,die,wussten,eine,beider,Ankunft,jede,wurden,die,dem,Essen,die,wegen,braunen,verbraucht,trotz,gebrauchter,Zirkus,in,verbraucht,wurde,wurden,dann,Studium,suchen,war,60,sind,Rummels,die,in,beider,Teilnehmer,in,fuhren,sich,nur,keine,Eimer,Umständen,,,,,,,,,,,,,,,,,,,,,,,11,0,11,0,0,2,2,2,,,,,,,space,0.618273973465,,,,,,2017_Jan_30_1443,59.3905616348,spr_backupper,001,Di10,
,gedachte,wissen,Lust,durch,königlichen,kann,des,die,kann,gehören,wir,Zucker,Hemd,Menge,schon,gehören,beschuldigten,unter,durch,mit,Größe,des,auf,Fleisch,der,wurde,der,hat,rote,gedachte,mit,Erlebnisse,Berge,der,kann,hält,große,"sporadisch,",beschuldigten,Auto,bei,wieder,Kleidung,aus,die,Mond,die,wir,schnell,las,stand,wissen,wieder,"sporadisch,",Fleischs,"unterging,",königliches,Liter,kleinere,er,überwiegend,große,beteiligten,stand,Menge,mit,Masse,Mann,kann,Masse,dem,Zuckers,260.000,dem,Kleidung,werden,Größe,260.000,dann,mit,mit,habe,die,aus,Liter,mit,wurde,Leinwand,Dänemark,beteiligter,wurden,Dänemark,mit,Berge,kleinere,Lust,roter,können,,,,,,,,,,,,,,,,,,,,,,,11,0,11,0,0,3,3,3,,,,,,,space,0.410933017731,,,,,,2017_Jan_30_1443,59.3905616348,spr_backupper,001,Di10,
,man,wir,auf,Büschel,Bluts,man,schönen,richtige,ich,immer,den,sind,aus,alten,bei,immer,die,"regelmäßigem,",Büschel,solch,36,bekannten,warmem,wurden,Stadt,jetzt,vierte,uns,Farbe,man,"reichlichem,",bei,schmutzige,Stadt,man,nicht,Packung,obwohl,die,dem,ausreichendem,viel,landen,"wertvollem,",Stimmung,dauerte,Wohnung,den,dank,ich,ein,wir,viel,obschon,wurden,war,Blut,sprudelnden,"Delikte,","trug,","nicht,",Packung,Fahrer,ein,alten,"üblichem,",mit,das,ich,mit,schönen,sind,Kilowattstunden,bekannten,landen,die,36,Kilowattstunden,mit,dauerhaftem,"minimalem,",ich,Wohnung,"Japan,",sprudelndes,"sämtlichem,",schon,aus,gelegentlich,Fahrer,mit,einen,solchen,schmutziger,"Delikte,",auf,Farbe,Neuwahlen,,,,,,,,,,,,,,,,,,,,,,,11,0,11,0,0,4,4,4,,,,,,,space,0.383553028107,,,,,,2017_Jan_30_1443,59.3905616348,spr_backupper,001,Di10,
,der,von,noch,frisches,hat,eine,Wetters,"Zeit,",leider,350,roten,auf,feinem,Krams,minimalem,350,Störenfriede,kaltem,frischen,unzureichenden,würden,Skandals,weichem,serviert.,liegen,"nachgewiesen,",Bundespräsident.,die,geschleudert.,den,purem,"frischem,",Wäsche.,liegen,eine,am,salzige,sie,Störenfriede,Mann,monatlichem,Lärm,im,klassischen,ziemlich,ungefähr,des,roten,täglichem,mehr,Glas,um,Lärm,sie,serviert.,die,hat,Trinkwassers.,derer,war,was,salziger,wurden,Glas,Kram,harten,einem,Auto,leider,einem,Wetter,auf,elektrischer,Skandal,im,Tiere,hätten,elektrische,"reichem,",feinem,sauberen,mehr,des,die,Trinkwasser.,künftigem,immer,seltenem,einen,wurden,zusätzlichem,gelegentlichen,unzureichenden,Wäsche.,deren,noch,geschleudert.,vor,,,,,,,,,,,,,,,,,,,,,,,11,0,11,0,0,5,5,5,,,,,,,space,0.392441034317,,,,,,2017_Jan_30_1443,59.3905616348,spr_backupper,001,Di10,
,Soldaten,den,eine,Gras,den,große,die,um,nichts,ml,Planeten,jeden,dichten,aus,täglichen,ml,jeden.,Abduschen,Grases,Helmen,seiner,wiedergewählt.,Untergrund,nan,die,dass,nan,Stimmung,nan,Soldaten,Alkohol,kaltem,nan,die,große,Hauptbahnhof.,Wurst,defekt,jeden.,mehr,Taschengeld,um,Müll.,Schmuck,"vermiest,",drei,Herrn,Planet,grünen,als,köstlicher,die,um,defekt,nan,Flut,den,nan,sie,aus,Tupperware,Wurst,verschrottet.,köstlichen,aus,Schaumstoff,Esslöffel,mehr,nichts,Esslöffel,die,jeden,Energie.,wiedergewählt.,Müll.,artgerecht,seiner,Energie.,goldenen,Kunsteis,Kraftstoff,als,Herrn,er,nan,Einkommen,ruhig,dichten,Besucher.,verschrottet.,schwarzem,Besucher.,Helmen,nan,sie,eine,nan,Dezember,,,,,,,,,,,,,,,,,,,,,,,11,0,11,0,0,6,6,6,,,,,,,space,0.346259832382,,,,,,2017_Jan_30_1443,59.3905616348,spr_backupper,001,Di10,
,,,,,,,,,,,,,,,,,,,,,,,,,,,,,,,,,,,,,,,,,,,,,,,,,,,,,,,,,,,,,,,,,,,,,,,,,,,,,,,,,,,,,,,,,,,,,,,,,,,,,,,,,,,,,,,,,,,,,,,,,11,0,11,0,,,,,,,,,,,,,None,j,2.08824086189,,,2017_Jan_30_1443,59.3905616348,spr_backupper,001,Di10,
,Bei,In,Sie,Wir,Nicht,Mit,Sie,Jetzt,Außer,In,Im,100,Er,Wir,Ihr,In,Außer,Die,Wir,Die,Die,Er,Jungtiere,Beträchtliche,Am,In,Walter,Dass,Es,Bei,Die,Sie,Dort,Am,Mit,Die,Ich,Die,Außer,Wir,Jugendliche,Man,Viele,Die,Es,Der,Die,Im,Ich,In,Bei,In,Man,Die,Beträchtliche,Als,Nicht,Sie,Es,Die,Die,Ich,Die,Bei,Wir,Alle,Er,Wir,Außer,Er,Sie,100,Die,Er,Viele,In,Die,Die,Das,Die,Wir,In,Die,Die,Sie,Manche,Fernab,Danach,Wir,Die,Die,Wir,Die,Dort,Es,Sie,Es,Unter,,,,,,,,,,,,,,,,,,,,,,,12,0,12,0,0,0,0,0,,,,,,space,space,0.122200012207,,,,0.636690855026,,2017_Jan_30_1443,59.3905616348,spr_backupper,001,Di10,
,der,der,hatte,mussten,ein,dieser,verlassen,ist,dem,den,Fernrohr,g,hat,haben,Blutdruck,den,dem,Formen,mussten,Kinder,Schuhe,wurde,sollten,Stücke,äußersten,einer,Scheel,es,wurden,der,Lösung,haben,türmen,äußeren,dieser,Linie,nehme,Uhr,den,übergaben,können,machte,Tonnen,Stücke,hat,Flug,Gäste,Fernrohr,wurde,meinem,unserer,der,machte,Uhr,Stücke,die,ein,verbrauchen,waren,"Uhr,",Teilnehmerinnen,nehme,Autos,unserer,haben,Betten,stellt,übergaben,das,stellt,verlassen,g,Schule,wurde,Tonnen,diesem,Schuhe,Schule,Tuch,Eislaufbahnen,konnten,meinem,Gäste,Uhr,verbrauchen,Kreditnehmer,des,wurde,hatten,Autos,müden,hatten,Kinder,türmen,waren,hatte,wurden,keinen,,,,,,,,,,,,,,,,,,,,,,,12,0,12,0,0,1,1,1,,,,,,,space,0.549727916718,,,,,,2017_Jan_30_1443,59.3905616348,spr_backupper,001,Di10,
,Feier,Tat,keine,uns,Tropfen,Methode,wegen,genau,Essen,Kakao,sahen,brauner,ein,jede,kann,Kakao,Bürgermeister,wurden,uns,fuhren,in,trotz,immer,saftiges,Rand,Studie,war,"regnete,",Eimer,Feier,wird,die,sich,Rand,Methode,101,eine,schlug,Bürgermeister,das,Kleidung,mal,gebrauchte,wurden,uns,zum,suchen,sahen,damals,Studium,Ankunft,Tat,mal,schlug,saftigen,Sonne,Tropfen,60,nur,die,wussten,eine,beider,Ankunft,jede,wurden,die,dem,Essen,die,wegen,braunen,verbraucht,trotz,gebrauchter,Zirkus,in,verbraucht,wurde,wurden,dann,Studium,suchen,war,60,sind,Rummels,die,in,beider,Teilnehmer,in,fuhren,sich,nur,keine,Eimer,Umständen,,,,,,,,,,,,,,,,,,,,,,,12,0,12,0,0,2,2,2,,,,,,,space,0.470479011536,,,,,,2017_Jan_30_1443,59.3905616348,spr_backupper,001,Di10,
,gedachte,wissen,Lust,durch,königlichen,kann,des,die,kann,gehören,wir,Zucker,Hemd,Menge,schon,gehören,beschuldigten,unter,durch,mit,Größe,des,auf,Fleisch,der,wurde,der,hat,rote,gedachte,mit,Erlebnisse,Berge,der,kann,hält,große,"sporadisch,",beschuldigten,Auto,bei,wieder,Kleidung,aus,die,Mond,die,wir,schnell,las,stand,wissen,wieder,"sporadisch,",Fleischs,"unterging,",königliches,Liter,kleinere,er,überwiegend,große,beteiligten,stand,Menge,mit,Masse,Mann,kann,Masse,dem,Zuckers,260.000,dem,Kleidung,werden,Größe,260.000,dann,mit,mit,habe,die,aus,Liter,mit,wurde,Leinwand,Dänemark,beteiligter,wurden,Dänemark,mit,Berge,kleinere,Lust,roter,können,,,,,,,,,,,,,,,,,,,,,,,12,0,12,0,0,3,3,3,,,,,,,space,0.78264093399,,,,,,2017_Jan_30_1443,59.3905616348,spr_backupper,001,Di10,
,man,wir,auf,Büschel,Bluts,man,schönen,richtige,ich,immer,den,sind,aus,alten,bei,immer,die,"regelmäßigem,",Büschel,solch,36,bekannten,warmem,wurden,Stadt,jetzt,vierte,uns,Farbe,man,"reichlichem,",bei,schmutzige,Stadt,man,nicht,Packung,obwohl,die,dem,ausreichendem,viel,landen,"wertvollem,",Stimmung,dauerte,Wohnung,den,dank,ich,ein,wir,viel,obschon,wurden,war,Blut,sprudelnden,"Delikte,","trug,","nicht,",Packung,Fahrer,ein,alten,"üblichem,",mit,das,ich,mit,schönen,sind,Kilowattstunden,bekannten,landen,die,36,Kilowattstunden,mit,dauerhaftem,"minimalem,",ich,Wohnung,"Japan,",sprudelndes,"sämtlichem,",schon,aus,gelegentlich,Fahrer,mit,einen,solchen,schmutziger,"Delikte,",auf,Farbe,Neuwahlen,,,,,,,,,,,,,,,,,,,,,,,12,0,12,0,0,4,4,4,,,,,,,space,1.15797281265,,,,,,2017_Jan_30_1443,59.3905616348,spr_backupper,001,Di10,
,der,von,noch,frisches,hat,eine,Wetters,"Zeit,",leider,350,roten,auf,feinem,Krams,minimalem,350,Störenfriede,kaltem,frischen,unzureichenden,würden,Skandals,weichem,serviert.,liegen,"nachgewiesen,",Bundespräsident.,die,geschleudert.,den,purem,"frischem,",Wäsche.,liegen,eine,am,salzige,sie,Störenfriede,Mann,monatlichem,Lärm,im,klassischen,ziemlich,ungefähr,des,roten,täglichem,mehr,Glas,um,Lärm,sie,serviert.,die,hat,Trinkwassers.,derer,war,was,salziger,wurden,Glas,Kram,harten,einem,Auto,leider,einem,Wetter,auf,elektrischer,Skandal,im,Tiere,hätten,elektrische,"reichem,",feinem,sauberen,mehr,des,die,Trinkwasser.,künftigem,immer,seltenem,einen,wurden,zusätzlichem,gelegentlichen,unzureichenden,Wäsche.,deren,noch,geschleudert.,vor,,,,,,,,,,,,,,,,,,,,,,,12,0,12,0,0,5,5,5,,,,,,,space,0.711006879807,,,,,,2017_Jan_30_1443,59.3905616348,spr_backupper,001,Di10,
,Soldaten,den,eine,Gras,den,große,die,um,nichts,ml,Planeten,jeden,dichten,aus,täglichen,ml,jeden.,Abduschen,Grases,Helmen,seiner,wiedergewählt.,Untergrund,nan,die,dass,nan,Stimmung,nan,Soldaten,Alkohol,kaltem,nan,die,große,Hauptbahnhof.,Wurst,defekt,jeden.,mehr,Taschengeld,um,Müll.,Schmuck,"vermiest,",drei,Herrn,Planet,grünen,als,köstlicher,die,um,defekt,nan,Flut,den,nan,sie,aus,Tupperware,Wurst,verschrottet.,köstlichen,aus,Schaumstoff,Esslöffel,mehr,nichts,Esslöffel,die,jeden,Energie.,wiedergewählt.,Müll.,artgerecht,seiner,Energie.,goldenen,Kunsteis,Kraftstoff,als,Herrn,er,nan,Einkommen,ruhig,dichten,Besucher.,verschrottet.,schwarzem,Besucher.,Helmen,nan,sie,eine,nan,Dezember,,,,,,,,,,,,,,,,,,,,,,,12,0,12,0,0,6,6,6,,,,,,,space,0.529219865799,,,,,,2017_Jan_30_1443,59.3905616348,spr_backupper,001,Di10,
,des,Problemen,Sammlung,zwängen.,Boden,Menge,Wohnung.,Nadelhölzer,mitbringen.,warme,ganz,Fall,Stoff,dem,Einsatz,warmer,nan,gehärtet.,zwängen.,zur,Frau,nan,liegen.,nan,Slums.,das,nan,ziemlich,nan,des,verdünnt.,Saft,nan,Slums.,Menge,nan,mit,war.,nan,als,selber,jede,nan,umgearbeitet.,dass,Tage.,Gantenbeins.,ganz,Tee,einmal,Wein,Probleme,jede,war.,nan,zurückgekehrt.,Boden,nan,überführt,Japan.,ist.,mit,nan,Weins,dem,gefertigt.,warmen,als,mitbringen.,warmem,Wohnung.,Fall,nan,nan,nan,gehalten.,Frau,nan,Besatz,eingesprüht.,fahren.,einmal,Gantenbein.,trug.,nan,haftbar.,diskutiert.,Gewebe,nan,nan,Kaffee,nan,zur,nan,überführt,Sammlung,nan,stattfinden.,,,,,,,,,,,,,,,,,,,,,,,12,0,12,0,0,7,7,7,,,,,,,space,0.502213001251,,,,,,2017_Jan_30_1443,59.3905616348,spr_backupper,001,Di10,
,zweiten,im,dumme,nan,berührt.,dunkle,nan,umzusetzen.,nan,Milch.,deutlich.,genug.,gefertigt.,Haus,sinken.,Milch.,nan,nan,nan,Schule.,gepasst,nan,nan,nan,nan,Medikament,nan,vermiest.,nan,zweiten,nan,besprochen.,nan,nan,dunkler,nan,an,nan,nan,gerne.,kaufen.,Menge,nan,nan,es,nan,nan,deutlich.,wieder,Rilke.,schon,im,Menge,nan,nan,nan,berührt.,nan,wurden.,nan,nan,an,nan,schon,Haus,nan,Honigs,gerne.,nan,Honig,nan,genug.,nan,nan,nan,nan,gepasst.,nan,rekonstruiert.,nan,nan,Rilke,nan,nan,nan,nan,nan,wiederhergestellt.,nan,nan,wiederbelebt.,nan,Schule.,nan,wurden.,dummer,nan,nan,,,,,,,,,,,,,,,,,,,,,,,12,0,12,0,0,8,8,8,,,,,,,space,0.738265991211,,,,,,2017_Jan_30_1443,59.3905616348,spr_backupper,001,Di10,
,Weltkriegs.,Landkreis.,Sprüche.,nan,nan,Materie,nan,nan,nan,nan,nan,nan,nan,geschafft.,nan,nan,nan,nan,nan,nan,haben.,nan,nan,nan,nan,nicht,nan,nan,nan,Weltkriegs.,nan,nan,nan,nan,Materie,nan,den,nan,nan,nan,nan,heißer,nan,nan,regnete.,nan,nan,nan,fit.,nan,auf,Landkreis.,heiße,nan,nan,nan,nan,nan,nan,nan,nan,den,nan,auf,geschafft.,nan,her.,nan,nan,her.,nan,nan,nan,nan,nan,nan,nan,nan,nan,nan,nan,gelesen.,nan,nan,nan,nan,nan,nan,nan,nan,nan,nan,nan,nan,nan,Sprüche.,nan,nan,,,,,,,,,,,,,,,,,,,,,,,12,0,12,0,0,9,9,9,,,,,,,space,0.352413892746,,,,,,2017_Jan_30_1443,59.3905616348,spr_backupper,001,Di10,
,,,,,,,,,,,,,,,,,,,,,,,,,,,,,,,,,,,,,,,,,,,,,,,,,,,,,,,,,,,,,,,,,,,,,,,,,,,,,,,,,,,,,,,,,,,,,,,,,,,,,,,,,,,,,,,,,,,,,,,,,12,0,12,0,,,,,,,,,,,,,space,n,4.41086816788,,0.570432901382,2017_Jan_30_1443,59.3905616348,spr_backupper,001,Di10,
,Bei,In,Sie,Wir,Nicht,Mit,Sie,Jetzt,Außer,In,Im,100,Er,Wir,Ihr,In,Außer,Die,Wir,Die,Die,Er,Jungtiere,Beträchtliche,Am,In,Walter,Dass,Es,Bei,Die,Sie,Dort,Am,Mit,Die,Ich,Die,Außer,Wir,Jugendliche,Man,Viele,Die,Es,Der,Die,Im,Ich,In,Bei,In,Man,Die,Beträchtliche,Als,Nicht,Sie,Es,Die,Die,Ich,Die,Bei,Wir,Alle,Er,Wir,Außer,Er,Sie,100,Die,Er,Viele,In,Die,Die,Das,Die,Wir,In,Die,Die,Sie,Manche,Fernab,Danach,Wir,Die,Die,Wir,Die,Dort,Es,Sie,Es,Unter,,,,,,,,,,,,,,,,,,,,,,,13,0,13,0,0,0,0,0,,,,,,space,space,0.456618070602,,,,0.972505092621,,2017_Jan_30_1443,59.3905616348,spr_backupper,001,Di10,
,der,der,hatte,mussten,ein,dieser,verlassen,ist,dem,den,Fernrohr,g,hat,haben,Blutdruck,den,dem,Formen,mussten,Kinder,Schuhe,wurde,sollten,Stücke,äußersten,einer,Scheel,es,wurden,der,Lösung,haben,türmen,äußeren,dieser,Linie,nehme,Uhr,den,übergaben,können,machte,Tonnen,Stücke,hat,Flug,Gäste,Fernrohr,wurde,meinem,unserer,der,machte,Uhr,Stücke,die,ein,verbrauchen,waren,"Uhr,",Teilnehmerinnen,nehme,Autos,unserer,haben,Betten,stellt,übergaben,das,stellt,verlassen,g,Schule,wurde,Tonnen,diesem,Schuhe,Schule,Tuch,Eislaufbahnen,konnten,meinem,Gäste,Uhr,verbrauchen,Kreditnehmer,des,wurde,hatten,Autos,müden,hatten,Kinder,türmen,waren,hatte,wurden,keinen,,,,,,,,,,,,,,,,,,,,,,,13,0,13,0,0,1,1,1,,,,,,,space,0.434102058411,,,,,,2017_Jan_30_1443,59.3905616348,spr_backupper,001,Di10,
,Feier,Tat,keine,uns,Tropfen,Methode,wegen,genau,Essen,Kakao,sahen,brauner,ein,jede,kann,Kakao,Bürgermeister,wurden,uns,fuhren,in,trotz,immer,saftiges,Rand,Studie,war,"regnete,",Eimer,Feier,wird,die,sich,Rand,Methode,101,eine,schlug,Bürgermeister,das,Kleidung,mal,gebrauchte,wurden,uns,zum,suchen,sahen,damals,Studium,Ankunft,Tat,mal,schlug,saftigen,Sonne,Tropfen,60,nur,die,wussten,eine,beider,Ankunft,jede,wurden,die,dem,Essen,die,wegen,braunen,verbraucht,trotz,gebrauchter,Zirkus,in,verbraucht,wurde,wurden,dann,Studium,suchen,war,60,sind,Rummels,die,in,beider,Teilnehmer,in,fuhren,sich,nur,keine,Eimer,Umständen,,,,,,,,,,,,,,,,,,,,,,,13,0,13,0,0,2,2,2,,,,,,,space,0.449523925781,,,,,,2017_Jan_30_1443,59.3905616348,spr_backupper,001,Di10,
,gedachte,wissen,Lust,durch,königlichen,kann,des,die,kann,gehören,wir,Zucker,Hemd,Menge,schon,gehören,beschuldigten,unter,durch,mit,Größe,des,auf,Fleisch,der,wurde,der,hat,rote,gedachte,mit,Erlebnisse,Berge,der,kann,hält,große,"sporadisch,",beschuldigten,Auto,bei,wieder,Kleidung,aus,die,Mond,die,wir,schnell,las,stand,wissen,wieder,"sporadisch,",Fleischs,"unterging,",königliches,Liter,kleinere,er,überwiegend,große,beteiligten,stand,Menge,mit,Masse,Mann,kann,Masse,dem,Zuckers,260.000,dem,Kleidung,werden,Größe,260.000,dann,mit,mit,habe,die,aus,Liter,mit,wurde,Leinwand,Dänemark,beteiligter,wurden,Dänemark,mit,Berge,kleinere,Lust,roter,können,,,,,,,,,,,,,,,,,,,,,,,13,0,13,0,0,3,3,3,,,,,,,space,0.452163934708,,,,,,2017_Jan_30_1443,59.3905616348,spr_backupper,001,Di10,
,man,wir,auf,Büschel,Bluts,man,schönen,richtige,ich,immer,den,sind,aus,alten,bei,immer,die,"regelmäßigem,",Büschel,solch,36,bekannten,warmem,wurden,Stadt,jetzt,vierte,uns,Farbe,man,"reichlichem,",bei,schmutzige,Stadt,man,nicht,Packung,obwohl,die,dem,ausreichendem,viel,landen,"wertvollem,",Stimmung,dauerte,Wohnung,den,dank,ich,ein,wir,viel,obschon,wurden,war,Blut,sprudelnden,"Delikte,","trug,","nicht,",Packung,Fahrer,ein,alten,"üblichem,",mit,das,ich,mit,schönen,sind,Kilowattstunden,bekannten,landen,die,36,Kilowattstunden,mit,dauerhaftem,"minimalem,",ich,Wohnung,"Japan,",sprudelndes,"sämtlichem,",schon,aus,gelegentlich,Fahrer,mit,einen,solchen,schmutziger,"Delikte,",auf,Farbe,Neuwahlen,,,,,,,,,,,,,,,,,,,,,,,13,0,13,0,0,4,4,4,,,,,,,space,0.508862018585,,,,,,2017_Jan_30_1443,59.3905616348,spr_backupper,001,Di10,
,der,von,noch,frisches,hat,eine,Wetters,"Zeit,",leider,350,roten,auf,feinem,Krams,minimalem,350,Störenfriede,kaltem,frischen,unzureichenden,würden,Skandals,weichem,serviert.,liegen,"nachgewiesen,",Bundespräsident.,die,geschleudert.,den,purem,"frischem,",Wäsche.,liegen,eine,am,salzige,sie,Störenfriede,Mann,monatlichem,Lärm,im,klassischen,ziemlich,ungefähr,des,roten,täglichem,mehr,Glas,um,Lärm,sie,serviert.,die,hat,Trinkwassers.,derer,war,was,salziger,wurden,Glas,Kram,harten,einem,Auto,leider,einem,Wetter,auf,elektrischer,Skandal,im,Tiere,hätten,elektrische,"reichem,",feinem,sauberen,mehr,des,die,Trinkwasser.,künftigem,immer,seltenem,einen,wurden,zusätzlichem,gelegentlichen,unzureichenden,Wäsche.,deren,noch,geschleudert.,vor,,,,,,,,,,,,,,,,,,,,,,,13,0,13,0,0,5,5,5,,,,,,,space,0.453392982483,,,,,,2017_Jan_30_1443,59.3905616348,spr_backupper,001,Di10,
