text,sent48,sent9,sent8,sent15,sent3,sent2,sent1,sent14,sent7,sent6,sent5,sent4,sent57,sent56,sent55,sent54,sent53,sent52,sent51,sent50,sent13,sent12,sent11,sent10,sent17,sent16,sent59,sent58,sent93,sent92,sent91,sent90,sent97,sent96,sent95,sent94,sent98,sent22,sent23,sent20,sent21,sent26,sent27,sent24,sent25,sent28,sent29,sent68,sent69,sent66,sent67,sent64,sent65,sent62,sent63,sent60,sent61,sent31,sent30,sent33,sent32,sent35,sent34,sent37,sent36,sent39,sent38,sent79,sent78,sent75,sent74,sent77,sent76,sent71,sent70,sent73,sent72,sent19,sent49,sent18,sent44,sent45,sent84,sent85,sent86,sent87,sent80,sent81,sent82,sent83,sent40,sent41,sent42,sent43,sent88,sent89,sent46,sent47,intros.thisRepN,intros.thisTrialN,intros.thisN,intros.thisIndex,trials.thisRepN,trials.thisTrialN,trials.thisN,trials.thisIndex,testWords.thisRepN,testWords.thisTrialN,testWords.thisN,testWords.thisIndex,test1,test3,test2,test5,test4,test7,test6,test9,test8,test10,realTrials.thisRepN,realTrials.thisTrialN,realTrials.thisN,realTrials.thisIndex,words.thisRepN,words.thisTrialN,words.thisN,words.thisIndex,key_resp_3.keys,key_resp_3.rt,key_resp_8.keys,key_resp_10.keys,key_resp_10.rt,key_resp_6.keys,wordRead.keys,wordRead.rt,key_resp_5.keys,questAnswer.keys,questAnswer.rt,key_resp_6.rt,date,frameRate,expName,session,participant,
"Vielen Dank, dass Sie an diesem Experiment teilnehmen. Vor dem eigentlichen Experiment sehen Sie nun zuerst eine kurze Erläuterung, und Sie absolvieren ein kurze Übungsphase.

Das Experiment dauert insgesamt nicht mehr als 45 Minuten.",,,,,,,,,,,,,,,,,,,,,,,,,,,,,,,,,,,,,,,,,,,,,,,,,,,,,,,,,,,,,,,,,,,,,,,,,,,,,,,,,,,,,,,,,,,,,,,,,,,0,0,0,0,,,,,,,,,,,,,,,,,,,,,,,,,,,,,,,,,,,,,,,2017_Jan_24_1056,60.1970830786,spr_backupper,001,Di11,
"In diesem Experiment lesen Sie deutsche Sätze, indem Sie sich von Wort zu Wort mit der Leertaste durch den Satz klicken.",,,,,,,,,,,,,,,,,,,,,,,,,,,,,,,,,,,,,,,,,,,,,,,,,,,,,,,,,,,,,,,,,,,,,,,,,,,,,,,,,,,,,,,,,,,,,,,,,,,0,1,1,1,,,,,,,,,,,,,,,,,,,,,,,,,,,,,,,,,,,,,,,2017_Jan_24_1056,60.1970830786,spr_backupper,001,Di11,
"Sie sehen dabei immer nur das aktuelle Wort. Die Lesegeschwindigkeit bestimmen Sie vollständig selber. Vor jedem Satz sehen Sie in der Bildschirmmitte für zwei Sekunden ein + an der Stelle, an der dann die Wörter erscheinen.",,,,,,,,,,,,,,,,,,,,,,,,,,,,,,,,,,,,,,,,,,,,,,,,,,,,,,,,,,,,,,,,,,,,,,,,,,,,,,,,,,,,,,,,,,,,,,,,,,,0,2,2,2,,,,,,,,,,,,,,,,,,,,,,,,,,,,,,,,,,,,,,,2017_Jan_24_1056,60.1970830786,spr_backupper,001,Di11,
"Nach jedem Satz wird Ihnen eine Ja/Nein-Verständnisfrage zum zuvor gelesenen Satz gestellt, die Sie mit der J-Taste für "Ja" und der N-Taste für "Nein" beantworten. Antworten Sie möglichst spontan und ohne lange Nachzudenken.",,,,,,,,,,,,,,,,,,,,,,,,,,,,,,,,,,,,,,,,,,,,,,,,,,,,,,,,,,,,,,,,,,,,,,,,,,,,,,,,,,,,,,,,,,,,,,,,,,,0,3,3,3,,,,,,,,,,,,,,,,,,,,,,,,,,,,,,,,,,,,,,,2017_Jan_24_1056,60.1970830786,spr_backupper,001,Di11,
"Unterbrechen Sie das Experiment bitte auf keinen Fall, stellen Sie den ExperimentatorInnen nach dem Experimentbeginn keine Fragen, und lassen Sie sich nicht durch Umgebungsgeräusche ablenken.",,,,,,,,,,,,,,,,,,,,,,,,,,,,,,,,,,,,,,,,,,,,,,,,,,,,,,,,,,,,,,,,,,,,,,,,,,,,,,,,,,,,,,,,,,,,,,,,,,,0,4,4,4,,,,,,,,,,,,,,,,,,,,,,,,,,,,,,,,,,,,,,,2017_Jan_24_1056,60.1970830786,spr_backupper,001,Di11,
"Im nächsten Schritt beantworten Sie bitte eine Frage zu Ihren Deutschkenntnissen. Danach beginnt eine Übungseinheit, mit der Sie sich an die Art der Durchführung dieses Experiments gewöhnen können.",,,,,,,,,,,,,,,,,,,,,,,,,,,,,,,,,,,,,,,,,,,,,,,,,,,,,,,,,,,,,,,,,,,,,,,,,,,,,,,,,,,,,,,,,,,,,,,,,,,0,5,5,5,,,,,,,,,,,,,,,,,,,,,,,,,,,,,,,,,,,,,,,2017_Jan_24_1056,60.1970830786,spr_backupper,001,Di11,
,,,,,,,,,,,,,,,,,,,,,,,,,,,,,,,,,,,,,,,,,,,,,,,,,,,,,,,,,,,,,,,,,,,,,,,,,,,,,,,,,,,,,,,,,,,,,,,,,,,,,,,,,,,,,,,,,,,,,,,,,,,,,,,,,j,11.4873788357,,,,,,,,,,,2017_Jan_24_1056,60.1970830786,spr_backupper,001,Di11,
,,,,,,,,,,,,,,,,,,,,,,,,,,,,,,,,,,,,,,,,,,,,,,,,,,,,,,,,,,,,,,,,,,,,,,,,,,,,,,,,,,,,,,,,,,,,,,,,,,,,,,,0,0,0,0,,,,,,,,,,,,,,,,,,,,,,,,,None,,,,,,,,,,2017_Jan_24_1056,60.1970830786,spr_backupper,001,Di11,
,,,,,,,,,,,,,,,,,,,,,,,,,,,,,,,,,,,,,,,,,,,,,,,,,,,,,,,,,,,,,,,,,,,,,,,,,,,,,,,,,,,,,,,,,,,,,,,,,,,,,,,1,0,1,0,,,,,,,,,,,,,,,,,,,,,,,,,None,,,,,,,,,,2017_Jan_24_1056,60.1970830786,spr_backupper,001,Di11,
,,,,,,,,,,,,,,,,,,,,,,,,,,,,,,,,,,,,,,,,,,,,,,,,,,,,,,,,,,,,,,,,,,,,,,,,,,,,,,,,,,,,,,,,,,,,,,,,,,,,,,,2,0,2,0,,,,,,,,,,,,,,,,,,,,,,,,,None,,,,,,,,,,2017_Jan_24_1056,60.1970830786,spr_backupper,001,Di11,
,,,,,,,,,,,,,,,,,,,,,,,,,,,,,,,,,,,,,,,,,,,,,,,,,,,,,,,,,,,,,,,,,,,,,,,,,,,,,,,,,,,,,,,,,,,,,,,,,,,,,,,3,0,3,0,,,,,,,,,,,,,,,,,,,,,,,,,None,,,,,,,,,,2017_Jan_24_1056,60.1970830786,spr_backupper,001,Di11,
,,,,,,,,,,,,,,,,,,,,,,,,,,,,,,,,,,,,,,,,,,,,,,,,,,,,,,,,,,,,,,,,,,,,,,,,,,,,,,,,,,,,,,,,,,,,,,,,,,,,,,,4,0,4,0,,,,,,,,,,,,,,,,,,,,,,,,,None,,,,,,,,,,2017_Jan_24_1056,60.1970830786,spr_backupper,001,Di11,
,,,,,,,,,,,,,,,,,,,,,,,,,,,,,,,,,,,,,,,,,,,,,,,,,,,,,,,,,,,,,,,,,,,,,,,,,,,,,,,,,,,,,,,,,,,,,,,,,,,,,,,5,0,5,0,,,,,,,,,,,,,,,,,,,,,,,,,None,,,,,,,,,,2017_Jan_24_1056,60.1970830786,spr_backupper,001,Di11,
,,,,,,,,,,,,,,,,,,,,,,,,,,,,,,,,,,,,,,,,,,,,,,,,,,,,,,,,,,,,,,,,,,,,,,,,,,,,,,,,,,,,,,,,,,,,,,,,,,,,,,,6,0,6,0,,,,,,,,,,,,,,,,,,,,,,,,,None,,,,,,,,,,2017_Jan_24_1056,60.1970830786,spr_backupper,001,Di11,
,,,,,,,,,,,,,,,,,,,,,,,,,,,,,,,,,,,,,,,,,,,,,,,,,,,,,,,,,,,,,,,,,,,,,,,,,,,,,,,,,,,,,,,,,,,,,,,,,,,,,,,7,0,7,0,,,,,,,,,,,,,,,,,,,,,,,,,None,,,,,,,,,,2017_Jan_24_1056,60.1970830786,spr_backupper,001,Di11,
,,,,,,,,,,,,,,,,,,,,,,,,,,,,,,,,,,,,,,,,,,,,,,,,,,,,,,,,,,,,,,,,,,,,,,,,,,,,,,,,,,,,,,,,,,,,,,,,,,,,,,,8,0,8,0,,,,,,,,,,,,,,,,,,,,,,,,,None,,,,,,,,,,2017_Jan_24_1056,60.1970830786,spr_backupper,001,Di11,
,,,,,,,,,,,,,,,,,,,,,,,,,,,,,,,,,,,,,,,,,,,,,,,,,,,,,,,,,,,,,,,,,,,,,,,,,,,,,,,,,,,,,,,,,,,,,,,,,,,,,,,9,0,9,0,,,,,,,,,,,,,,,,,,,,,,,,,None,,,,,,,,,,2017_Jan_24_1056,60.1970830786,spr_backupper,001,Di11,
,,,,,,,,,,,,,,,,,,,,,,,,,,,,,,,,,,,,,,,,,,,,,,,,,,,,,,,,,,,,,,,,,,,,,,,,,,,,,,,,,,,,,,,,,,,,,,,,,,,,,,,,,,,,,,,,,,,,,,,,,,,,,,,,,,,,space,2.85045814514,,,,,,,,2017_Jan_24_1056,60.1970830786,spr_backupper,001,Di11,
,Er,Es,Er,Sie,Die,In,Wir,Wir,Dass,Als,Die,Er,Es,Sie,Bei,Man,Ich,In,Wir,Die,Ich,Fernab,Walter,Viele,Die,Außer,Das,Die,Dort,Der,In,Die,Außer,Sie,100,Unter,Jungtiere,Wir,Die,Sie,Nicht,Die,Die,Bei,Manche,Mit,Am,Wir,Die,Am,Im,Die,Nicht,Die,Beträchtliche,Jugendliche,Alle,In,Bei,Ihr,Sie,Dort,Man,Beträchtliche,Wir,Die,Danach,Er,Bei,Viele,Mit,Er,In,Sie,Wir,Es,Die,Sie,Die,In,Die,Die,Die,Die,Die,Außer,Jetzt,Wir,Wir,Es,In,Es,Außer,100,In,Die,Im,Ich,,,,,,,,,,,,,,,,,,,,,,,0,0,0,0,0,0,0,0,,,,,,None,space,3.1578810215,,,,,2017_Jan_24_1056,60.1970830786,spr_backupper,001,Di11,
,wurde,wurden,stellt,verlassen,Lösung,diesem,mussten,haben,es,die,Schule,hat,wurden,verlassen,der,machte,nehme,meinem,haben,Uhr,nehme,des,Scheel,Tonnen,Uhr,dem,Tuch,müden,türmen,Flug,einer,Autos,den,hatte,g,keinen,sollten,hatten,Schuhe,verbrauchen,ein,Kinder,Linie,der,Kreditnehmer,dieser,äußeren,hatten,Schule,äußersten,Fernrohr,Teilnehmerinnen,ein,Stücke,Stücke,können,Betten,der,unserer,Blutdruck,hatte,türmen,machte,Stücke,übergaben,Gäste,wurde,wurde,unserer,Tonnen,dieser,stellt,der,verbrauchen,konnten,hat,Schuhe,haben,Formen,den,Uhr,Autos,Gäste,Eislaufbahnen,"Uhr,",dem,ist,übergaben,mussten,waren,meinem,waren,das,g,den,Kinder,Fernrohr,wurde,,,,,,,,,,,,,,,,,,,,,,,0,0,0,0,0,1,1,1,,,,,,,space,2.30872917175,,,,,2017_Jan_24_1056,60.1970830786,spr_backupper,001,Di11,
,trotz,Eimer,die,wegen,wird,Zirkus,uns,jede,"regnete,",Sonne,verbraucht,ein,Eimer,wegen,Feier,mal,eine,Studium,jede,schlug,eine,Rummels,war,gebrauchter,schlug,Bürgermeister,wurde,Teilnehmer,sich,zum,Studie,beider,Bürgermeister,keine,brauner,Umständen,immer,in,in,60,Tropfen,fuhren,101,Feier,sind,Methode,Rand,in,verbraucht,Rand,sahen,wussten,Tropfen,wurden,saftiges,Kleidung,wurden,Tat,Ankunft,kann,keine,sich,mal,saftigen,dem,suchen,die,trotz,Ankunft,gebrauchte,Methode,die,Tat,60,dann,uns,in,die,wurden,Kakao,war,beider,suchen,wurden,die,Essen,genau,das,uns,nur,Studium,nur,Essen,braunen,Kakao,fuhren,sahen,damals,,,,,,,,,,,,,,,,,,,,,,,0,0,0,0,0,2,2,2,,,,,,,space,0.990222930908,,,,,2017_Jan_24_1056,60.1970830786,spr_backupper,001,Di11,
,dem,rote,Masse,dem,mit,werden,durch,Menge,hat,"unterging,",260.000,Hemd,roter,des,gedachte,wieder,große,habe,Menge,"sporadisch,",große,wurde,der,Kleidung,"sporadisch,",beschuldigten,dann,wurden,Berge,Mond,wurde,beteiligten,beschuldigten,Lust,Zucker,können,auf,Dänemark,Größe,Liter,königliches,mit,hält,gedachte,mit,kann,der,Dänemark,260.000,der,wir,überwiegend,königlichen,aus,Fleisch,bei,mit,wissen,stand,schon,Lust,Berge,wieder,Fleischs,Mann,die,Leinwand,des,stand,Kleidung,kann,Masse,wissen,Liter,mit,die,Größe,Erlebnisse,unter,gehören,aus,beteiligter,die,mit,er,kann,die,Auto,durch,kleinere,las,kleinere,kann,Zuckers,gehören,mit,wir,schnell,,,,,,,,,,,,,,,,,,,,,,,0,0,0,0,0,3,3,3,,,,,,,space,1.02323198318,,,,,2017_Jan_24_1056,60.1970830786,spr_backupper,001,Di11,
,bekannten,Farbe,mit,schönen,"reichlichem,",die,Büschel,alten,uns,war,Kilowattstunden,aus,Farbe,schönen,man,viel,Packung,ich,alten,obwohl,Packung,schon,vierte,landen,obschon,die,mit,mit,schmutziger,dauerte,jetzt,Fahrer,die,auf,sind,Neuwahlen,warmem,gelegentlich,36,sprudelndes,Blut,solch,nicht,man,"sämtlichem,",man,Stadt,einen,Kilowattstunden,Stadt,den,"nicht,",Bluts,"wertvollem,",wurden,ausreichendem,"üblichem,",wir,ein,bei,auf,schmutzige,viel,wurden,das,Wohnung,aus,bekannten,ein,landen,man,mit,wir,sprudelnden,"minimalem,",Stimmung,36,bei,"regelmäßigem,",immer,"Japan,",Fahrer,Wohnung,dauerhaftem,"trug,",ich,richtige,dem,Büschel,"Delikte,",ich,"Delikte,",ich,sind,immer,solchen,den,dank,,,,,,,,,,,,,,,,,,,,,,,0,0,0,0,0,4,4,4,,,,,,,space,1.11403608322,,,,,2017_Jan_24_1056,60.1970830786,spr_backupper,001,Di11,
,Skandal,geschleudert.,einem,Wetter,purem,Tiere,frischen,Krams,die,die,elektrischer,feinem,geschleudert.,Wetters,der,Lärm,salziger,mehr,Kram,sie,salzige,immer,Bundespräsident.,im,sie,Störenfriede,"reichem,",zusätzlichem,Wäsche.,ungefähr,"nachgewiesen,",wurden,Störenfriede,noch,auf,vor,weichem,einen,hätten,Trinkwasser.,hat,unzureichenden,am,den,künftigem,eine,liegen,gelegentlichen,elektrische,liegen,roten,was,hat,klassischen,serviert.,monatlichem,harten,um,Glas,minimalem,noch,Wäsche.,Lärm,serviert.,Auto,des,seltenem,Skandals,Glas,im,eine,einem,von,Trinkwassers.,sauberen,ziemlich,würden,"frischem,",kaltem,350,die,wurden,des,feinem,war,leider,"Zeit,",Mann,frisches,derer,mehr,deren,leider,auf,350,unzureichenden,roten,täglichem,,,,,,,,,,,,,,,,,,,,,,,0,0,0,0,0,5,5,5,,,,,,,space,1.00354409218,,,,,2017_Jan_24_1056,60.1970830786,spr_backupper,001,Di11,
,wiedergewählt.,nan,Esslöffel,die,Alkohol,artgerecht,Grases,aus,Stimmung,Flut,Energie.,dichten,nan,die,Soldaten,um,Wurst,als,aus,defekt,Wurst,ruhig,nan,Müll.,defekt,jeden.,goldenen,schwarzem,nan,drei,dass,verschrottet.,jeden.,eine,jeden,Dezember,Untergrund,Besucher.,seiner,nan,den,Helmen,Hauptbahnhof.,Soldaten,Einkommen,große,die,Besucher.,Energie.,die,Planeten,Tupperware,den,Schmuck,nan,Taschengeld,Schaumstoff,die,köstlicher,täglichen,eine,nan,um,nan,mehr,Herrn,dichten,wiedergewählt.,köstlichen,Müll.,große,Esslöffel,den,nan,Kraftstoff,"vermiest,",seiner,kaltem,Abduschen,ml,er,verschrottet.,Herrn,Kunsteis,aus,nichts,um,mehr,Gras,sie,als,sie,nichts,jeden,ml,Helmen,Planet,grünen,,,,,,,,,,,,,,,,,,,,,,,0,0,0,0,0,6,6,6,,,,,,,space,1.01212501526,,,,,2017_Jan_24_1056,60.1970830786,spr_backupper,001,Di11,
,nan,nan,warmem,Wohnung.,verdünnt.,gehalten.,zwängen.,dem,ziemlich,zurückgekehrt.,nan,Stoff,nan,Wohnung.,des,jede,mit,einmal,dem,war.,mit,diskutiert.,nan,nan,war.,nan,Besatz,Kaffee,nan,Tage.,das,nan,nan,Sammlung,Fall,stattfinden.,liegen.,nan,Frau,nan,Boden,zur,nan,des,haftbar.,Menge,Slums.,nan,nan,Slums.,ganz,ist.,Boden,umgearbeitet.,nan,selber,gefertigt.,Probleme,Wein,Einsatz,Sammlung,nan,jede,nan,als,Gantenbein.,Gewebe,nan,Weins,nan,Menge,warmen,Problemen,nan,fahren.,dass,Frau,Saft,gehärtet.,warmer,trug.,nan,Gantenbeins.,eingesprüht.,Japan.,mitbringen.,Nadelhölzer,als,zwängen.,überführt,einmal,überführt,mitbringen.,Fall,warme,zur,ganz,Tee,,,,,,,,,,,,,,,,,,,,,,,0,0,0,0,0,7,7,7,,,,,,,space,0.91134595871,,,,,2017_Jan_24_1056,60.1970830786,spr_backupper,001,Di11,
,,,,,,,,,,,,,,,,,,,,,,,,,,,,,,,,,,,,,,,,,,,,,,,,,,,,,,,,,,,,,,,,,,,,,,,,,,,,,,,,,,,,,,,,,,,,,,,,,,,,,,,,,,,,,,,,,,,,,,,,,0,0,0,0,,,,,,,,,,,,,None,n,2.4321770668,,2017_Jan_24_1056,60.1970830786,spr_backupper,001,Di11,
,Er,Es,Er,Sie,Die,In,Wir,Wir,Dass,Als,Die,Er,Es,Sie,Bei,Man,Ich,In,Wir,Die,Ich,Fernab,Walter,Viele,Die,Außer,Das,Die,Dort,Der,In,Die,Außer,Sie,100,Unter,Jungtiere,Wir,Die,Sie,Nicht,Die,Die,Bei,Manche,Mit,Am,Wir,Die,Am,Im,Die,Nicht,Die,Beträchtliche,Jugendliche,Alle,In,Bei,Ihr,Sie,Dort,Man,Beträchtliche,Wir,Die,Danach,Er,Bei,Viele,Mit,Er,In,Sie,Wir,Es,Die,Sie,Die,In,Die,Die,Die,Die,Die,Außer,Jetzt,Wir,Wir,Es,In,Es,Außer,100,In,Die,Im,Ich,,,,,,,,,,,,,,,,,,,,,,,1,0,1,0,0,0,0,0,,,,,,space,space,0.855515956879,,,,1.32518792152,2017_Jan_24_1056,60.1970830786,spr_backupper,001,Di11,
,wurde,wurden,stellt,verlassen,Lösung,diesem,mussten,haben,es,die,Schule,hat,wurden,verlassen,der,machte,nehme,meinem,haben,Uhr,nehme,des,Scheel,Tonnen,Uhr,dem,Tuch,müden,türmen,Flug,einer,Autos,den,hatte,g,keinen,sollten,hatten,Schuhe,verbrauchen,ein,Kinder,Linie,der,Kreditnehmer,dieser,äußeren,hatten,Schule,äußersten,Fernrohr,Teilnehmerinnen,ein,Stücke,Stücke,können,Betten,der,unserer,Blutdruck,hatte,türmen,machte,Stücke,übergaben,Gäste,wurde,wurde,unserer,Tonnen,dieser,stellt,der,verbrauchen,konnten,hat,Schuhe,haben,Formen,den,Uhr,Autos,Gäste,Eislaufbahnen,"Uhr,",dem,ist,übergaben,mussten,waren,meinem,waren,das,g,den,Kinder,Fernrohr,wurde,,,,,,,,,,,,,,,,,,,,,,,1,0,1,0,0,1,1,1,,,,,,,space,0.655294895172,,,,,2017_Jan_24_1056,60.1970830786,spr_backupper,001,Di11,
,trotz,Eimer,die,wegen,wird,Zirkus,uns,jede,"regnete,",Sonne,verbraucht,ein,Eimer,wegen,Feier,mal,eine,Studium,jede,schlug,eine,Rummels,war,gebrauchter,schlug,Bürgermeister,wurde,Teilnehmer,sich,zum,Studie,beider,Bürgermeister,keine,brauner,Umständen,immer,in,in,60,Tropfen,fuhren,101,Feier,sind,Methode,Rand,in,verbraucht,Rand,sahen,wussten,Tropfen,wurden,saftiges,Kleidung,wurden,Tat,Ankunft,kann,keine,sich,mal,saftigen,dem,suchen,die,trotz,Ankunft,gebrauchte,Methode,die,Tat,60,dann,uns,in,die,wurden,Kakao,war,beider,suchen,wurden,die,Essen,genau,das,uns,nur,Studium,nur,Essen,braunen,Kakao,fuhren,sahen,damals,,,,,,,,,,,,,,,,,,,,,,,1,0,1,0,0,2,2,2,,,,,,,space,0.868210077286,,,,,2017_Jan_24_1056,60.1970830786,spr_backupper,001,Di11,
,dem,rote,Masse,dem,mit,werden,durch,Menge,hat,"unterging,",260.000,Hemd,roter,des,gedachte,wieder,große,habe,Menge,"sporadisch,",große,wurde,der,Kleidung,"sporadisch,",beschuldigten,dann,wurden,Berge,Mond,wurde,beteiligten,beschuldigten,Lust,Zucker,können,auf,Dänemark,Größe,Liter,königliches,mit,hält,gedachte,mit,kann,der,Dänemark,260.000,der,wir,überwiegend,königlichen,aus,Fleisch,bei,mit,wissen,stand,schon,Lust,Berge,wieder,Fleischs,Mann,die,Leinwand,des,stand,Kleidung,kann,Masse,wissen,Liter,mit,die,Größe,Erlebnisse,unter,gehören,aus,beteiligter,die,mit,er,kann,die,Auto,durch,kleinere,las,kleinere,kann,Zuckers,gehören,mit,wir,schnell,,,,,,,,,,,,,,,,,,,,,,,1,0,1,0,0,3,3,3,,,,,,,space,0.570920944214,,,,,2017_Jan_24_1056,60.1970830786,spr_backupper,001,Di11,
,bekannten,Farbe,mit,schönen,"reichlichem,",die,Büschel,alten,uns,war,Kilowattstunden,aus,Farbe,schönen,man,viel,Packung,ich,alten,obwohl,Packung,schon,vierte,landen,obschon,die,mit,mit,schmutziger,dauerte,jetzt,Fahrer,die,auf,sind,Neuwahlen,warmem,gelegentlich,36,sprudelndes,Blut,solch,nicht,man,"sämtlichem,",man,Stadt,einen,Kilowattstunden,Stadt,den,"nicht,",Bluts,"wertvollem,",wurden,ausreichendem,"üblichem,",wir,ein,bei,auf,schmutzige,viel,wurden,das,Wohnung,aus,bekannten,ein,landen,man,mit,wir,sprudelnden,"minimalem,",Stimmung,36,bei,"regelmäßigem,",immer,"Japan,",Fahrer,Wohnung,dauerhaftem,"trug,",ich,richtige,dem,Büschel,"Delikte,",ich,"Delikte,",ich,sind,immer,solchen,den,dank,,,,,,,,,,,,,,,,,,,,,,,1,0,1,0,0,4,4,4,,,,,,,space,0.57048201561,,,,,2017_Jan_24_1056,60.1970830786,spr_backupper,001,Di11,
,Skandal,geschleudert.,einem,Wetter,purem,Tiere,frischen,Krams,die,die,elektrischer,feinem,geschleudert.,Wetters,der,Lärm,salziger,mehr,Kram,sie,salzige,immer,Bundespräsident.,im,sie,Störenfriede,"reichem,",zusätzlichem,Wäsche.,ungefähr,"nachgewiesen,",wurden,Störenfriede,noch,auf,vor,weichem,einen,hätten,Trinkwasser.,hat,unzureichenden,am,den,künftigem,eine,liegen,gelegentlichen,elektrische,liegen,roten,was,hat,klassischen,serviert.,monatlichem,harten,um,Glas,minimalem,noch,Wäsche.,Lärm,serviert.,Auto,des,seltenem,Skandals,Glas,im,eine,einem,von,Trinkwassers.,sauberen,ziemlich,würden,"frischem,",kaltem,350,die,wurden,des,feinem,war,leider,"Zeit,",Mann,frisches,derer,mehr,deren,leider,auf,350,unzureichenden,roten,täglichem,,,,,,,,,,,,,,,,,,,,,,,1,0,1,0,0,5,5,5,,,,,,,space,0.598433017731,,,,,2017_Jan_24_1056,60.1970830786,spr_backupper,001,Di11,
,wiedergewählt.,nan,Esslöffel,die,Alkohol,artgerecht,Grases,aus,Stimmung,Flut,Energie.,dichten,nan,die,Soldaten,um,Wurst,als,aus,defekt,Wurst,ruhig,nan,Müll.,defekt,jeden.,goldenen,schwarzem,nan,drei,dass,verschrottet.,jeden.,eine,jeden,Dezember,Untergrund,Besucher.,seiner,nan,den,Helmen,Hauptbahnhof.,Soldaten,Einkommen,große,die,Besucher.,Energie.,die,Planeten,Tupperware,den,Schmuck,nan,Taschengeld,Schaumstoff,die,köstlicher,täglichen,eine,nan,um,nan,mehr,Herrn,dichten,wiedergewählt.,köstlichen,Müll.,große,Esslöffel,den,nan,Kraftstoff,"vermiest,",seiner,kaltem,Abduschen,ml,er,verschrottet.,Herrn,Kunsteis,aus,nichts,um,mehr,Gras,sie,als,sie,nichts,jeden,ml,Helmen,Planet,grünen,,,,,,,,,,,,,,,,,,,,,,,1,0,1,0,0,6,6,6,,,,,,,space,0.755285024643,,,,,2017_Jan_24_1056,60.1970830786,spr_backupper,001,Di11,
,nan,nan,warmem,Wohnung.,verdünnt.,gehalten.,zwängen.,dem,ziemlich,zurückgekehrt.,nan,Stoff,nan,Wohnung.,des,jede,mit,einmal,dem,war.,mit,diskutiert.,nan,nan,war.,nan,Besatz,Kaffee,nan,Tage.,das,nan,nan,Sammlung,Fall,stattfinden.,liegen.,nan,Frau,nan,Boden,zur,nan,des,haftbar.,Menge,Slums.,nan,nan,Slums.,ganz,ist.,Boden,umgearbeitet.,nan,selber,gefertigt.,Probleme,Wein,Einsatz,Sammlung,nan,jede,nan,als,Gantenbein.,Gewebe,nan,Weins,nan,Menge,warmen,Problemen,nan,fahren.,dass,Frau,Saft,gehärtet.,warmer,trug.,nan,Gantenbeins.,eingesprüht.,Japan.,mitbringen.,Nadelhölzer,als,zwängen.,überführt,einmal,überführt,mitbringen.,Fall,warme,zur,ganz,Tee,,,,,,,,,,,,,,,,,,,,,,,1,0,1,0,0,7,7,7,,,,,,,space,0.526365041733,,,,,2017_Jan_24_1056,60.1970830786,spr_backupper,001,Di11,
,,,,,,,,,,,,,,,,,,,,,,,,,,,,,,,,,,,,,,,,,,,,,,,,,,,,,,,,,,,,,,,,,,,,,,,,,,,,,,,,,,,,,,,,,,,,,,,,,,,,,,,,,,,,,,,,,,,,,,,,,1,0,1,0,,,,,,,,,,,,,None,j,2.58272099495,,2017_Jan_24_1056,60.1970830786,spr_backupper,001,Di11,
,Er,Es,Er,Sie,Die,In,Wir,Wir,Dass,Als,Die,Er,Es,Sie,Bei,Man,Ich,In,Wir,Die,Ich,Fernab,Walter,Viele,Die,Außer,Das,Die,Dort,Der,In,Die,Außer,Sie,100,Unter,Jungtiere,Wir,Die,Sie,Nicht,Die,Die,Bei,Manche,Mit,Am,Wir,Die,Am,Im,Die,Nicht,Die,Beträchtliche,Jugendliche,Alle,In,Bei,Ihr,Sie,Dort,Man,Beträchtliche,Wir,Die,Danach,Er,Bei,Viele,Mit,Er,In,Sie,Wir,Es,Die,Sie,Die,In,Die,Die,Die,Die,Die,Außer,Jetzt,Wir,Wir,Es,In,Es,Außer,100,In,Die,Im,Ich,,,,,,,,,,,,,,,,,,,,,,,2,0,2,0,0,0,0,0,,,,,,space,space,0.550707101822,,,,0.537674188614,2017_Jan_24_1056,60.1970830786,spr_backupper,001,Di11,
,wurde,wurden,stellt,verlassen,Lösung,diesem,mussten,haben,es,die,Schule,hat,wurden,verlassen,der,machte,nehme,meinem,haben,Uhr,nehme,des,Scheel,Tonnen,Uhr,dem,Tuch,müden,türmen,Flug,einer,Autos,den,hatte,g,keinen,sollten,hatten,Schuhe,verbrauchen,ein,Kinder,Linie,der,Kreditnehmer,dieser,äußeren,hatten,Schule,äußersten,Fernrohr,Teilnehmerinnen,ein,Stücke,Stücke,können,Betten,der,unserer,Blutdruck,hatte,türmen,machte,Stücke,übergaben,Gäste,wurde,wurde,unserer,Tonnen,dieser,stellt,der,verbrauchen,konnten,hat,Schuhe,haben,Formen,den,Uhr,Autos,Gäste,Eislaufbahnen,"Uhr,",dem,ist,übergaben,mussten,waren,meinem,waren,das,g,den,Kinder,Fernrohr,wurde,,,,,,,,,,,,,,,,,,,,,,,2,0,2,0,0,1,1,1,,,,,,,space,0.582712888718,,,,,2017_Jan_24_1056,60.1970830786,spr_backupper,001,Di11,
,trotz,Eimer,die,wegen,wird,Zirkus,uns,jede,"regnete,",Sonne,verbraucht,ein,Eimer,wegen,Feier,mal,eine,Studium,jede,schlug,eine,Rummels,war,gebrauchter,schlug,Bürgermeister,wurde,Teilnehmer,sich,zum,Studie,beider,Bürgermeister,keine,brauner,Umständen,immer,in,in,60,Tropfen,fuhren,101,Feier,sind,Methode,Rand,in,verbraucht,Rand,sahen,wussten,Tropfen,wurden,saftiges,Kleidung,wurden,Tat,Ankunft,kann,keine,sich,mal,saftigen,dem,suchen,die,trotz,Ankunft,gebrauchte,Methode,die,Tat,60,dann,uns,in,die,wurden,Kakao,war,beider,suchen,wurden,die,Essen,genau,das,uns,nur,Studium,nur,Essen,braunen,Kakao,fuhren,sahen,damals,,,,,,,,,,,,,,,,,,,,,,,2,0,2,0,0,2,2,2,,,,,,,space,0.517347812653,,,,,2017_Jan_24_1056,60.1970830786,spr_backupper,001,Di11,
,dem,rote,Masse,dem,mit,werden,durch,Menge,hat,"unterging,",260.000,Hemd,roter,des,gedachte,wieder,große,habe,Menge,"sporadisch,",große,wurde,der,Kleidung,"sporadisch,",beschuldigten,dann,wurden,Berge,Mond,wurde,beteiligten,beschuldigten,Lust,Zucker,können,auf,Dänemark,Größe,Liter,königliches,mit,hält,gedachte,mit,kann,der,Dänemark,260.000,der,wir,überwiegend,königlichen,aus,Fleisch,bei,mit,wissen,stand,schon,Lust,Berge,wieder,Fleischs,Mann,die,Leinwand,des,stand,Kleidung,kann,Masse,wissen,Liter,mit,die,Größe,Erlebnisse,unter,gehören,aus,beteiligter,die,mit,er,kann,die,Auto,durch,kleinere,las,kleinere,kann,Zuckers,gehören,mit,wir,schnell,,,,,,,,,,,,,,,,,,,,,,,2,0,2,0,0,3,3,3,,,,,,,space,0.504251003265,,,,,2017_Jan_24_1056,60.1970830786,spr_backupper,001,Di11,
,bekannten,Farbe,mit,schönen,"reichlichem,",die,Büschel,alten,uns,war,Kilowattstunden,aus,Farbe,schönen,man,viel,Packung,ich,alten,obwohl,Packung,schon,vierte,landen,obschon,die,mit,mit,schmutziger,dauerte,jetzt,Fahrer,die,auf,sind,Neuwahlen,warmem,gelegentlich,36,sprudelndes,Blut,solch,nicht,man,"sämtlichem,",man,Stadt,einen,Kilowattstunden,Stadt,den,"nicht,",Bluts,"wertvollem,",wurden,ausreichendem,"üblichem,",wir,ein,bei,auf,schmutzige,viel,wurden,das,Wohnung,aus,bekannten,ein,landen,man,mit,wir,sprudelnden,"minimalem,",Stimmung,36,bei,"regelmäßigem,",immer,"Japan,",Fahrer,Wohnung,dauerhaftem,"trug,",ich,richtige,dem,Büschel,"Delikte,",ich,"Delikte,",ich,sind,immer,solchen,den,dank,,,,,,,,,,,,,,,,,,,,,,,2,0,2,0,0,4,4,4,,,,,,,space,1.20002698898,,,,,2017_Jan_24_1056,60.1970830786,spr_backupper,001,Di11,
,Skandal,geschleudert.,einem,Wetter,purem,Tiere,frischen,Krams,die,die,elektrischer,feinem,geschleudert.,Wetters,der,Lärm,salziger,mehr,Kram,sie,salzige,immer,Bundespräsident.,im,sie,Störenfriede,"reichem,",zusätzlichem,Wäsche.,ungefähr,"nachgewiesen,",wurden,Störenfriede,noch,auf,vor,weichem,einen,hätten,Trinkwasser.,hat,unzureichenden,am,den,künftigem,eine,liegen,gelegentlichen,elektrische,liegen,roten,was,hat,klassischen,serviert.,monatlichem,harten,um,Glas,minimalem,noch,Wäsche.,Lärm,serviert.,Auto,des,seltenem,Skandals,Glas,im,eine,einem,von,Trinkwassers.,sauberen,ziemlich,würden,"frischem,",kaltem,350,die,wurden,des,feinem,war,leider,"Zeit,",Mann,frisches,derer,mehr,deren,leider,auf,350,unzureichenden,roten,täglichem,,,,,,,,,,,,,,,,,,,,,,,2,0,2,0,0,5,5,5,,,,,,,space,0.986623048782,,,,,2017_Jan_24_1056,60.1970830786,spr_backupper,001,Di11,
,wiedergewählt.,nan,Esslöffel,die,Alkohol,artgerecht,Grases,aus,Stimmung,Flut,Energie.,dichten,nan,die,Soldaten,um,Wurst,als,aus,defekt,Wurst,ruhig,nan,Müll.,defekt,jeden.,goldenen,schwarzem,nan,drei,dass,verschrottet.,jeden.,eine,jeden,Dezember,Untergrund,Besucher.,seiner,nan,den,Helmen,Hauptbahnhof.,Soldaten,Einkommen,große,die,Besucher.,Energie.,die,Planeten,Tupperware,den,Schmuck,nan,Taschengeld,Schaumstoff,die,köstlicher,täglichen,eine,nan,um,nan,mehr,Herrn,dichten,wiedergewählt.,köstlichen,Müll.,große,Esslöffel,den,nan,Kraftstoff,"vermiest,",seiner,kaltem,Abduschen,ml,er,verschrottet.,Herrn,Kunsteis,aus,nichts,um,mehr,Gras,sie,als,sie,nichts,jeden,ml,Helmen,Planet,grünen,,,,,,,,,,,,,,,,,,,,,,,2,0,2,0,0,6,6,6,,,,,,,space,1.37998890877,,,,,2017_Jan_24_1056,60.1970830786,spr_backupper,001,Di11,
,nan,nan,warmem,Wohnung.,verdünnt.,gehalten.,zwängen.,dem,ziemlich,zurückgekehrt.,nan,Stoff,nan,Wohnung.,des,jede,mit,einmal,dem,war.,mit,diskutiert.,nan,nan,war.,nan,Besatz,Kaffee,nan,Tage.,das,nan,nan,Sammlung,Fall,stattfinden.,liegen.,nan,Frau,nan,Boden,zur,nan,des,haftbar.,Menge,Slums.,nan,nan,Slums.,ganz,ist.,Boden,umgearbeitet.,nan,selber,gefertigt.,Probleme,Wein,Einsatz,Sammlung,nan,jede,nan,als,Gantenbein.,Gewebe,nan,Weins,nan,Menge,warmen,Problemen,nan,fahren.,dass,Frau,Saft,gehärtet.,warmer,trug.,nan,Gantenbeins.,eingesprüht.,Japan.,mitbringen.,Nadelhölzer,als,zwängen.,überführt,einmal,überführt,mitbringen.,Fall,warme,zur,ganz,Tee,,,,,,,,,,,,,,,,,,,,,,,2,0,2,0,0,7,7,7,,,,,,,space,0.721817970276,,,,,2017_Jan_24_1056,60.1970830786,spr_backupper,001,Di11,
,,,,,,,,,,,,,,,,,,,,,,,,,,,,,,,,,,,,,,,,,,,,,,,,,,,,,,,,,,,,,,,,,,,,,,,,,,,,,,,,,,,,,,,,,,,,,,,,,,,,,,,,,,,,,,,,,,,,,,,,,2,0,2,0,,,,,,,,,,,,,None,j,1.76213216782,,2017_Jan_24_1056,60.1970830786,spr_backupper,001,Di11,
,Er,Es,Er,Sie,Die,In,Wir,Wir,Dass,Als,Die,Er,Es,Sie,Bei,Man,Ich,In,Wir,Die,Ich,Fernab,Walter,Viele,Die,Außer,Das,Die,Dort,Der,In,Die,Außer,Sie,100,Unter,Jungtiere,Wir,Die,Sie,Nicht,Die,Die,Bei,Manche,Mit,Am,Wir,Die,Am,Im,Die,Nicht,Die,Beträchtliche,Jugendliche,Alle,In,Bei,Ihr,Sie,Dort,Man,Beträchtliche,Wir,Die,Danach,Er,Bei,Viele,Mit,Er,In,Sie,Wir,Es,Die,Sie,Die,In,Die,Die,Die,Die,Die,Außer,Jetzt,Wir,Wir,Es,In,Es,Außer,100,In,Die,Im,Ich,,,,,,,,,,,,,,,,,,,,,,,3,0,3,0,0,0,0,0,,,,,,space,space,0.492484092712,,,,0.569654941559,2017_Jan_24_1056,60.1970830786,spr_backupper,001,Di11,
,wurde,wurden,stellt,verlassen,Lösung,diesem,mussten,haben,es,die,Schule,hat,wurden,verlassen,der,machte,nehme,meinem,haben,Uhr,nehme,des,Scheel,Tonnen,Uhr,dem,Tuch,müden,türmen,Flug,einer,Autos,den,hatte,g,keinen,sollten,hatten,Schuhe,verbrauchen,ein,Kinder,Linie,der,Kreditnehmer,dieser,äußeren,hatten,Schule,äußersten,Fernrohr,Teilnehmerinnen,ein,Stücke,Stücke,können,Betten,der,unserer,Blutdruck,hatte,türmen,machte,Stücke,übergaben,Gäste,wurde,wurde,unserer,Tonnen,dieser,stellt,der,verbrauchen,konnten,hat,Schuhe,haben,Formen,den,Uhr,Autos,Gäste,Eislaufbahnen,"Uhr,",dem,ist,übergaben,mussten,waren,meinem,waren,das,g,den,Kinder,Fernrohr,wurde,,,,,,,,,,,,,,,,,,,,,,,3,0,3,0,0,1,1,1,,,,,,,space,0.458131790161,,,,,2017_Jan_24_1056,60.1970830786,spr_backupper,001,Di11,
,trotz,Eimer,die,wegen,wird,Zirkus,uns,jede,"regnete,",Sonne,verbraucht,ein,Eimer,wegen,Feier,mal,eine,Studium,jede,schlug,eine,Rummels,war,gebrauchter,schlug,Bürgermeister,wurde,Teilnehmer,sich,zum,Studie,beider,Bürgermeister,keine,brauner,Umständen,immer,in,in,60,Tropfen,fuhren,101,Feier,sind,Methode,Rand,in,verbraucht,Rand,sahen,wussten,Tropfen,wurden,saftiges,Kleidung,wurden,Tat,Ankunft,kann,keine,sich,mal,saftigen,dem,suchen,die,trotz,Ankunft,gebrauchte,Methode,die,Tat,60,dann,uns,in,die,wurden,Kakao,war,beider,suchen,wurden,die,Essen,genau,das,uns,nur,Studium,nur,Essen,braunen,Kakao,fuhren,sahen,damals,,,,,,,,,,,,,,,,,,,,,,,3,0,3,0,0,2,2,2,,,,,,,space,0.470484972,,,,,2017_Jan_24_1056,60.1970830786,spr_backupper,001,Di11,
,dem,rote,Masse,dem,mit,werden,durch,Menge,hat,"unterging,",260.000,Hemd,roter,des,gedachte,wieder,große,habe,Menge,"sporadisch,",große,wurde,der,Kleidung,"sporadisch,",beschuldigten,dann,wurden,Berge,Mond,wurde,beteiligten,beschuldigten,Lust,Zucker,können,auf,Dänemark,Größe,Liter,königliches,mit,hält,gedachte,mit,kann,der,Dänemark,260.000,der,wir,überwiegend,königlichen,aus,Fleisch,bei,mit,wissen,stand,schon,Lust,Berge,wieder,Fleischs,Mann,die,Leinwand,des,stand,Kleidung,kann,Masse,wissen,Liter,mit,die,Größe,Erlebnisse,unter,gehören,aus,beteiligter,die,mit,er,kann,die,Auto,durch,kleinere,las,kleinere,kann,Zuckers,gehören,mit,wir,schnell,,,,,,,,,,,,,,,,,,,,,,,3,0,3,0,0,3,3,3,,,,,,,space,0.427753210068,,,,,2017_Jan_24_1056,60.1970830786,spr_backupper,001,Di11,
,bekannten,Farbe,mit,schönen,"reichlichem,",die,Büschel,alten,uns,war,Kilowattstunden,aus,Farbe,schönen,man,viel,Packung,ich,alten,obwohl,Packung,schon,vierte,landen,obschon,die,mit,mit,schmutziger,dauerte,jetzt,Fahrer,die,auf,sind,Neuwahlen,warmem,gelegentlich,36,sprudelndes,Blut,solch,nicht,man,"sämtlichem,",man,Stadt,einen,Kilowattstunden,Stadt,den,"nicht,",Bluts,"wertvollem,",wurden,ausreichendem,"üblichem,",wir,ein,bei,auf,schmutzige,viel,wurden,das,Wohnung,aus,bekannten,ein,landen,man,mit,wir,sprudelnden,"minimalem,",Stimmung,36,bei,"regelmäßigem,",immer,"Japan,",Fahrer,Wohnung,dauerhaftem,"trug,",ich,richtige,dem,Büschel,"Delikte,",ich,"Delikte,",ich,sind,immer,solchen,den,dank,,,,,,,,,,,,,,,,,,,,,,,3,0,3,0,0,4,4,4,,,,,,,space,0.48521399498,,,,,2017_Jan_24_1056,60.1970830786,spr_backupper,001,Di11,
,Skandal,geschleudert.,einem,Wetter,purem,Tiere,frischen,Krams,die,die,elektrischer,feinem,geschleudert.,Wetters,der,Lärm,salziger,mehr,Kram,sie,salzige,immer,Bundespräsident.,im,sie,Störenfriede,"reichem,",zusätzlichem,Wäsche.,ungefähr,"nachgewiesen,",wurden,Störenfriede,noch,auf,vor,weichem,einen,hätten,Trinkwasser.,hat,unzureichenden,am,den,künftigem,eine,liegen,gelegentlichen,elektrische,liegen,roten,was,hat,klassischen,serviert.,monatlichem,harten,um,Glas,minimalem,noch,Wäsche.,Lärm,serviert.,Auto,des,seltenem,Skandals,Glas,im,eine,einem,von,Trinkwassers.,sauberen,ziemlich,würden,"frischem,",kaltem,350,die,wurden,des,feinem,war,leider,"Zeit,",Mann,frisches,derer,mehr,deren,leider,auf,350,unzureichenden,roten,täglichem,,,,,,,,,,,,,,,,,,,,,,,3,0,3,0,0,5,5,5,,,,,,,space,0.727302789688,,,,,2017_Jan_24_1056,60.1970830786,spr_backupper,001,Di11,
,wiedergewählt.,nan,Esslöffel,die,Alkohol,artgerecht,Grases,aus,Stimmung,Flut,Energie.,dichten,nan,die,Soldaten,um,Wurst,als,aus,defekt,Wurst,ruhig,nan,Müll.,defekt,jeden.,goldenen,schwarzem,nan,drei,dass,verschrottet.,jeden.,eine,jeden,Dezember,Untergrund,Besucher.,seiner,nan,den,Helmen,Hauptbahnhof.,Soldaten,Einkommen,große,die,Besucher.,Energie.,die,Planeten,Tupperware,den,Schmuck,nan,Taschengeld,Schaumstoff,die,köstlicher,täglichen,eine,nan,um,nan,mehr,Herrn,dichten,wiedergewählt.,köstlichen,Müll.,große,Esslöffel,den,nan,Kraftstoff,"vermiest,",seiner,kaltem,Abduschen,ml,er,verschrottet.,Herrn,Kunsteis,aus,nichts,um,mehr,Gras,sie,als,sie,nichts,jeden,ml,Helmen,Planet,grünen,,,,,,,,,,,,,,,,,,,,,,,3,0,3,0,0,6,6,6,,,,,,,space,0.686202049255,,,,,2017_Jan_24_1056,60.1970830786,spr_backupper,001,Di11,
,nan,nan,warmem,Wohnung.,verdünnt.,gehalten.,zwängen.,dem,ziemlich,zurückgekehrt.,nan,Stoff,nan,Wohnung.,des,jede,mit,einmal,dem,war.,mit,diskutiert.,nan,nan,war.,nan,Besatz,Kaffee,nan,Tage.,das,nan,nan,Sammlung,Fall,stattfinden.,liegen.,nan,Frau,nan,Boden,zur,nan,des,haftbar.,Menge,Slums.,nan,nan,Slums.,ganz,ist.,Boden,umgearbeitet.,nan,selber,gefertigt.,Probleme,Wein,Einsatz,Sammlung,nan,jede,nan,als,Gantenbein.,Gewebe,nan,Weins,nan,Menge,warmen,Problemen,nan,fahren.,dass,Frau,Saft,gehärtet.,warmer,trug.,nan,Gantenbeins.,eingesprüht.,Japan.,mitbringen.,Nadelhölzer,als,zwängen.,überführt,einmal,überführt,mitbringen.,Fall,warme,zur,ganz,Tee,,,,,,,,,,,,,,,,,,,,,,,3,0,3,0,0,7,7,7,,,,,,,space,0.889435052872,,,,,2017_Jan_24_1056,60.1970830786,spr_backupper,001,Di11,
,nan,nan,Honig,nan,nan,nan,nan,Haus,vermiest.,nan,nan,gefertigt.,nan,nan,zweiten,Menge,an,Rilke,Haus,nan,an,nan,nan,nan,nan,nan,rekonstruiert.,wiederbelebt.,nan,nan,Medikament,nan,nan,dumme,genug.,nan,nan,nan,gepasst.,nan,berührt.,Schule.,nan,zweiten,nan,dunkler,nan,nan,nan,nan,deutlich.,nan,berührt.,nan,nan,kaufen.,nan,im,schon,sinken.,dummer,nan,Menge,nan,gerne.,nan,wiederhergestellt.,nan,schon,nan,dunkle,Honigs,im,nan,nan,es,gepasst,besprochen.,nan,Milch.,nan,nan,nan,nan,nan,nan,umzusetzen.,gerne.,nan,wurden.,Rilke.,wurden.,nan,genug.,Milch.,Schule.,deutlich.,wieder,,,,,,,,,,,,,,,,,,,,,,,3,0,3,0,0,8,8,8,,,,,,,space,0.76010799408,,,,,2017_Jan_24_1056,60.1970830786,spr_backupper,001,Di11,
,,,,,,,,,,,,,,,,,,,,,,,,,,,,,,,,,,,,,,,,,,,,,,,,,,,,,,,,,,,,,,,,,,,,,,,,,,,,,,,,,,,,,,,,,,,,,,,,,,,,,,,,,,,,,,,,,,,,,,,,,3,0,3,0,,,,,,,,,,,,,None,n,2.07729411125,,2017_Jan_24_1056,60.1970830786,spr_backupper,001,Di11,
,Er,Es,Er,Sie,Die,In,Wir,Wir,Dass,Als,Die,Er,Es,Sie,Bei,Man,Ich,In,Wir,Die,Ich,Fernab,Walter,Viele,Die,Außer,Das,Die,Dort,Der,In,Die,Außer,Sie,100,Unter,Jungtiere,Wir,Die,Sie,Nicht,Die,Die,Bei,Manche,Mit,Am,Wir,Die,Am,Im,Die,Nicht,Die,Beträchtliche,Jugendliche,Alle,In,Bei,Ihr,Sie,Dort,Man,Beträchtliche,Wir,Die,Danach,Er,Bei,Viele,Mit,Er,In,Sie,Wir,Es,Die,Sie,Die,In,Die,Die,Die,Die,Die,Außer,Jetzt,Wir,Wir,Es,In,Es,Außer,100,In,Die,Im,Ich,,,,,,,,,,,,,,,,,,,,,,,4,0,4,0,0,0,0,0,,,,,,space,space,0.419445037842,,,,0.536382198334,2017_Jan_24_1056,60.1970830786,spr_backupper,001,Di11,
,wurde,wurden,stellt,verlassen,Lösung,diesem,mussten,haben,es,die,Schule,hat,wurden,verlassen,der,machte,nehme,meinem,haben,Uhr,nehme,des,Scheel,Tonnen,Uhr,dem,Tuch,müden,türmen,Flug,einer,Autos,den,hatte,g,keinen,sollten,hatten,Schuhe,verbrauchen,ein,Kinder,Linie,der,Kreditnehmer,dieser,äußeren,hatten,Schule,äußersten,Fernrohr,Teilnehmerinnen,ein,Stücke,Stücke,können,Betten,der,unserer,Blutdruck,hatte,türmen,machte,Stücke,übergaben,Gäste,wurde,wurde,unserer,Tonnen,dieser,stellt,der,verbrauchen,konnten,hat,Schuhe,haben,Formen,den,Uhr,Autos,Gäste,Eislaufbahnen,"Uhr,",dem,ist,übergaben,mussten,waren,meinem,waren,das,g,den,Kinder,Fernrohr,wurde,,,,,,,,,,,,,,,,,,,,,,,4,0,4,0,0,1,1,1,,,,,,,space,0.737234830856,,,,,2017_Jan_24_1056,60.1970830786,spr_backupper,001,Di11,
,trotz,Eimer,die,wegen,wird,Zirkus,uns,jede,"regnete,",Sonne,verbraucht,ein,Eimer,wegen,Feier,mal,eine,Studium,jede,schlug,eine,Rummels,war,gebrauchter,schlug,Bürgermeister,wurde,Teilnehmer,sich,zum,Studie,beider,Bürgermeister,keine,brauner,Umständen,immer,in,in,60,Tropfen,fuhren,101,Feier,sind,Methode,Rand,in,verbraucht,Rand,sahen,wussten,Tropfen,wurden,saftiges,Kleidung,wurden,Tat,Ankunft,kann,keine,sich,mal,saftigen,dem,suchen,die,trotz,Ankunft,gebrauchte,Methode,die,Tat,60,dann,uns,in,die,wurden,Kakao,war,beider,suchen,wurden,die,Essen,genau,das,uns,nur,Studium,nur,Essen,braunen,Kakao,fuhren,sahen,damals,,,,,,,,,,,,,,,,,,,,,,,4,0,4,0,0,2,2,2,,,,,,,space,0.682149171829,,,,,2017_Jan_24_1056,60.1970830786,spr_backupper,001,Di11,
,dem,rote,Masse,dem,mit,werden,durch,Menge,hat,"unterging,",260.000,Hemd,roter,des,gedachte,wieder,große,habe,Menge,"sporadisch,",große,wurde,der,Kleidung,"sporadisch,",beschuldigten,dann,wurden,Berge,Mond,wurde,beteiligten,beschuldigten,Lust,Zucker,können,auf,Dänemark,Größe,Liter,königliches,mit,hält,gedachte,mit,kann,der,Dänemark,260.000,der,wir,überwiegend,königlichen,aus,Fleisch,bei,mit,wissen,stand,schon,Lust,Berge,wieder,Fleischs,Mann,die,Leinwand,des,stand,Kleidung,kann,Masse,wissen,Liter,mit,die,Größe,Erlebnisse,unter,gehören,aus,beteiligter,die,mit,er,kann,die,Auto,durch,kleinere,las,kleinere,kann,Zuckers,gehören,mit,wir,schnell,,,,,,,,,,,,,,,,,,,,,,,4,0,4,0,0,3,3,3,,,,,,,space,1.10663700104,,,,,2017_Jan_24_1056,60.1970830786,spr_backupper,001,Di11,
,bekannten,Farbe,mit,schönen,"reichlichem,",die,Büschel,alten,uns,war,Kilowattstunden,aus,Farbe,schönen,man,viel,Packung,ich,alten,obwohl,Packung,schon,vierte,landen,obschon,die,mit,mit,schmutziger,dauerte,jetzt,Fahrer,die,auf,sind,Neuwahlen,warmem,gelegentlich,36,sprudelndes,Blut,solch,nicht,man,"sämtlichem,",man,Stadt,einen,Kilowattstunden,Stadt,den,"nicht,",Bluts,"wertvollem,",wurden,ausreichendem,"üblichem,",wir,ein,bei,auf,schmutzige,viel,wurden,das,Wohnung,aus,bekannten,ein,landen,man,mit,wir,sprudelnden,"minimalem,",Stimmung,36,bei,"regelmäßigem,",immer,"Japan,",Fahrer,Wohnung,dauerhaftem,"trug,",ich,richtige,dem,Büschel,"Delikte,",ich,"Delikte,",ich,sind,immer,solchen,den,dank,,,,,,,,,,,,,,,,,,,,,,,4,0,4,0,0,4,4,4,,,,,,,space,0.906704902649,,,,,2017_Jan_24_1056,60.1970830786,spr_backupper,001,Di11,
,Skandal,geschleudert.,einem,Wetter,purem,Tiere,frischen,Krams,die,die,elektrischer,feinem,geschleudert.,Wetters,der,Lärm,salziger,mehr,Kram,sie,salzige,immer,Bundespräsident.,im,sie,Störenfriede,"reichem,",zusätzlichem,Wäsche.,ungefähr,"nachgewiesen,",wurden,Störenfriede,noch,auf,vor,weichem,einen,hätten,Trinkwasser.,hat,unzureichenden,am,den,künftigem,eine,liegen,gelegentlichen,elektrische,liegen,roten,was,hat,klassischen,serviert.,monatlichem,harten,um,Glas,minimalem,noch,Wäsche.,Lärm,serviert.,Auto,des,seltenem,Skandals,Glas,im,eine,einem,von,Trinkwassers.,sauberen,ziemlich,würden,"frischem,",kaltem,350,die,wurden,des,feinem,war,leider,"Zeit,",Mann,frisches,derer,mehr,deren,leider,auf,350,unzureichenden,roten,täglichem,,,,,,,,,,,,,,,,,,,,,,,4,0,4,0,0,5,5,5,,,,,,,space,0.745807170868,,,,,2017_Jan_24_1056,60.1970830786,spr_backupper,001,Di11,
,wiedergewählt.,nan,Esslöffel,die,Alkohol,artgerecht,Grases,aus,Stimmung,Flut,Energie.,dichten,nan,die,Soldaten,um,Wurst,als,aus,defekt,Wurst,ruhig,nan,Müll.,defekt,jeden.,goldenen,schwarzem,nan,drei,dass,verschrottet.,jeden.,eine,jeden,Dezember,Untergrund,Besucher.,seiner,nan,den,Helmen,Hauptbahnhof.,Soldaten,Einkommen,große,die,Besucher.,Energie.,die,Planeten,Tupperware,den,Schmuck,nan,Taschengeld,Schaumstoff,die,köstlicher,täglichen,eine,nan,um,nan,mehr,Herrn,dichten,wiedergewählt.,köstlichen,Müll.,große,Esslöffel,den,nan,Kraftstoff,"vermiest,",seiner,kaltem,Abduschen,ml,er,verschrottet.,Herrn,Kunsteis,aus,nichts,um,mehr,Gras,sie,als,sie,nichts,jeden,ml,Helmen,Planet,grünen,,,,,,,,,,,,,,,,,,,,,,,4,0,4,0,0,6,6,6,,,,,,,space,0.608717918396,,,,,2017_Jan_24_1056,60.1970830786,spr_backupper,001,Di11,
,,,,,,,,,,,,,,,,,,,,,,,,,,,,,,,,,,,,,,,,,,,,,,,,,,,,,,,,,,,,,,,,,,,,,,,,,,,,,,,,,,,,,,,,,,,,,,,,,,,,,,,,,,,,,,,,,,,,,,,,,4,0,4,0,,,,,,,,,,,,,None,j,2.02365088463,,2017_Jan_24_1056,60.1970830786,spr_backupper,001,Di11,
,Er,Es,Er,Sie,Die,In,Wir,Wir,Dass,Als,Die,Er,Es,Sie,Bei,Man,Ich,In,Wir,Die,Ich,Fernab,Walter,Viele,Die,Außer,Das,Die,Dort,Der,In,Die,Außer,Sie,100,Unter,Jungtiere,Wir,Die,Sie,Nicht,Die,Die,Bei,Manche,Mit,Am,Wir,Die,Am,Im,Die,Nicht,Die,Beträchtliche,Jugendliche,Alle,In,Bei,Ihr,Sie,Dort,Man,Beträchtliche,Wir,Die,Danach,Er,Bei,Viele,Mit,Er,In,Sie,Wir,Es,Die,Sie,Die,In,Die,Die,Die,Die,Die,Außer,Jetzt,Wir,Wir,Es,In,Es,Außer,100,In,Die,Im,Ich,,,,,,,,,,,,,,,,,,,,,,,5,0,5,0,0,0,0,0,,,,,,space,space,0.624558925629,,,,0.502784967422,2017_Jan_24_1056,60.1970830786,spr_backupper,001,Di11,
,wurde,wurden,stellt,verlassen,Lösung,diesem,mussten,haben,es,die,Schule,hat,wurden,verlassen,der,machte,nehme,meinem,haben,Uhr,nehme,des,Scheel,Tonnen,Uhr,dem,Tuch,müden,türmen,Flug,einer,Autos,den,hatte,g,keinen,sollten,hatten,Schuhe,verbrauchen,ein,Kinder,Linie,der,Kreditnehmer,dieser,äußeren,hatten,Schule,äußersten,Fernrohr,Teilnehmerinnen,ein,Stücke,Stücke,können,Betten,der,unserer,Blutdruck,hatte,türmen,machte,Stücke,übergaben,Gäste,wurde,wurde,unserer,Tonnen,dieser,stellt,der,verbrauchen,konnten,hat,Schuhe,haben,Formen,den,Uhr,Autos,Gäste,Eislaufbahnen,"Uhr,",dem,ist,übergaben,mussten,waren,meinem,waren,das,g,den,Kinder,Fernrohr,wurde,,,,,,,,,,,,,,,,,,,,,,,5,0,5,0,0,1,1,1,,,,,,,space,0.56389093399,,,,,2017_Jan_24_1056,60.1970830786,spr_backupper,001,Di11,
,trotz,Eimer,die,wegen,wird,Zirkus,uns,jede,"regnete,",Sonne,verbraucht,ein,Eimer,wegen,Feier,mal,eine,Studium,jede,schlug,eine,Rummels,war,gebrauchter,schlug,Bürgermeister,wurde,Teilnehmer,sich,zum,Studie,beider,Bürgermeister,keine,brauner,Umständen,immer,in,in,60,Tropfen,fuhren,101,Feier,sind,Methode,Rand,in,verbraucht,Rand,sahen,wussten,Tropfen,wurden,saftiges,Kleidung,wurden,Tat,Ankunft,kann,keine,sich,mal,saftigen,dem,suchen,die,trotz,Ankunft,gebrauchte,Methode,die,Tat,60,dann,uns,in,die,wurden,Kakao,war,beider,suchen,wurden,die,Essen,genau,das,uns,nur,Studium,nur,Essen,braunen,Kakao,fuhren,sahen,damals,,,,,,,,,,,,,,,,,,,,,,,5,0,5,0,0,2,2,2,,,,,,,space,0.460417032242,,,,,2017_Jan_24_1056,60.1970830786,spr_backupper,001,Di11,
,dem,rote,Masse,dem,mit,werden,durch,Menge,hat,"unterging,",260.000,Hemd,roter,des,gedachte,wieder,große,habe,Menge,"sporadisch,",große,wurde,der,Kleidung,"sporadisch,",beschuldigten,dann,wurden,Berge,Mond,wurde,beteiligten,beschuldigten,Lust,Zucker,können,auf,Dänemark,Größe,Liter,königliches,mit,hält,gedachte,mit,kann,der,Dänemark,260.000,der,wir,überwiegend,königlichen,aus,Fleisch,bei,mit,wissen,stand,schon,Lust,Berge,wieder,Fleischs,Mann,die,Leinwand,des,stand,Kleidung,kann,Masse,wissen,Liter,mit,die,Größe,Erlebnisse,unter,gehören,aus,beteiligter,die,mit,er,kann,die,Auto,durch,kleinere,las,kleinere,kann,Zuckers,gehören,mit,wir,schnell,,,,,,,,,,,,,,,,,,,,,,,5,0,5,0,0,3,3,3,,,,,,,space,0.476135969162,,,,,2017_Jan_24_1056,60.1970830786,spr_backupper,001,Di11,
,bekannten,Farbe,mit,schönen,"reichlichem,",die,Büschel,alten,uns,war,Kilowattstunden,aus,Farbe,schönen,man,viel,Packung,ich,alten,obwohl,Packung,schon,vierte,landen,obschon,die,mit,mit,schmutziger,dauerte,jetzt,Fahrer,die,auf,sind,Neuwahlen,warmem,gelegentlich,36,sprudelndes,Blut,solch,nicht,man,"sämtlichem,",man,Stadt,einen,Kilowattstunden,Stadt,den,"nicht,",Bluts,"wertvollem,",wurden,ausreichendem,"üblichem,",wir,ein,bei,auf,schmutzige,viel,wurden,das,Wohnung,aus,bekannten,ein,landen,man,mit,wir,sprudelnden,"minimalem,",Stimmung,36,bei,"regelmäßigem,",immer,"Japan,",Fahrer,Wohnung,dauerhaftem,"trug,",ich,richtige,dem,Büschel,"Delikte,",ich,"Delikte,",ich,sind,immer,solchen,den,dank,,,,,,,,,,,,,,,,,,,,,,,5,0,5,0,0,4,4,4,,,,,,,space,0.537163972855,,,,,2017_Jan_24_1056,60.1970830786,spr_backupper,001,Di11,
,Skandal,geschleudert.,einem,Wetter,purem,Tiere,frischen,Krams,die,die,elektrischer,feinem,geschleudert.,Wetters,der,Lärm,salziger,mehr,Kram,sie,salzige,immer,Bundespräsident.,im,sie,Störenfriede,"reichem,",zusätzlichem,Wäsche.,ungefähr,"nachgewiesen,",wurden,Störenfriede,noch,auf,vor,weichem,einen,hätten,Trinkwasser.,hat,unzureichenden,am,den,künftigem,eine,liegen,gelegentlichen,elektrische,liegen,roten,was,hat,klassischen,serviert.,monatlichem,harten,um,Glas,minimalem,noch,Wäsche.,Lärm,serviert.,Auto,des,seltenem,Skandals,Glas,im,eine,einem,von,Trinkwassers.,sauberen,ziemlich,würden,"frischem,",kaltem,350,die,wurden,des,feinem,war,leider,"Zeit,",Mann,frisches,derer,mehr,deren,leider,auf,350,unzureichenden,roten,täglichem,,,,,,,,,,,,,,,,,,,,,,,5,0,5,0,0,5,5,5,,,,,,,space,0.430389881134,,,,,2017_Jan_24_1056,60.1970830786,spr_backupper,001,Di11,
,wiedergewählt.,nan,Esslöffel,die,Alkohol,artgerecht,Grases,aus,Stimmung,Flut,Energie.,dichten,nan,die,Soldaten,um,Wurst,als,aus,defekt,Wurst,ruhig,nan,Müll.,defekt,jeden.,goldenen,schwarzem,nan,drei,dass,verschrottet.,jeden.,eine,jeden,Dezember,Untergrund,Besucher.,seiner,nan,den,Helmen,Hauptbahnhof.,Soldaten,Einkommen,große,die,Besucher.,Energie.,die,Planeten,Tupperware,den,Schmuck,nan,Taschengeld,Schaumstoff,die,köstlicher,täglichen,eine,nan,um,nan,mehr,Herrn,dichten,wiedergewählt.,köstlichen,Müll.,große,Esslöffel,den,nan,Kraftstoff,"vermiest,",seiner,kaltem,Abduschen,ml,er,verschrottet.,Herrn,Kunsteis,aus,nichts,um,mehr,Gras,sie,als,sie,nichts,jeden,ml,Helmen,Planet,grünen,,,,,,,,,,,,,,,,,,,,,,,5,0,5,0,0,6,6,6,,,,,,,space,0.44516992569,,,,,2017_Jan_24_1056,60.1970830786,spr_backupper,001,Di11,
,nan,nan,warmem,Wohnung.,verdünnt.,gehalten.,zwängen.,dem,ziemlich,zurückgekehrt.,nan,Stoff,nan,Wohnung.,des,jede,mit,einmal,dem,war.,mit,diskutiert.,nan,nan,war.,nan,Besatz,Kaffee,nan,Tage.,das,nan,nan,Sammlung,Fall,stattfinden.,liegen.,nan,Frau,nan,Boden,zur,nan,des,haftbar.,Menge,Slums.,nan,nan,Slums.,ganz,ist.,Boden,umgearbeitet.,nan,selber,gefertigt.,Probleme,Wein,Einsatz,Sammlung,nan,jede,nan,als,Gantenbein.,Gewebe,nan,Weins,nan,Menge,warmen,Problemen,nan,fahren.,dass,Frau,Saft,gehärtet.,warmer,trug.,nan,Gantenbeins.,eingesprüht.,Japan.,mitbringen.,Nadelhölzer,als,zwängen.,überführt,einmal,überführt,mitbringen.,Fall,warme,zur,ganz,Tee,,,,,,,,,,,,,,,,,,,,,,,5,0,5,0,0,7,7,7,,,,,,,space,0.852630138397,,,,,2017_Jan_24_1056,60.1970830786,spr_backupper,001,Di11,
,,,,,,,,,,,,,,,,,,,,,,,,,,,,,,,,,,,,,,,,,,,,,,,,,,,,,,,,,,,,,,,,,,,,,,,,,,,,,,,,,,,,,,,,,,,,,,,,,,,,,,,,,,,,,,,,,,,,,,,,,5,0,5,0,,,,,,,,,,,,,None,j,11.2888009548,,2017_Jan_24_1056,60.1970830786,spr_backupper,001,Di11,
,Er,Es,Er,Sie,Die,In,Wir,Wir,Dass,Als,Die,Er,Es,Sie,Bei,Man,Ich,In,Wir,Die,Ich,Fernab,Walter,Viele,Die,Außer,Das,Die,Dort,Der,In,Die,Außer,Sie,100,Unter,Jungtiere,Wir,Die,Sie,Nicht,Die,Die,Bei,Manche,Mit,Am,Wir,Die,Am,Im,Die,Nicht,Die,Beträchtliche,Jugendliche,Alle,In,Bei,Ihr,Sie,Dort,Man,Beträchtliche,Wir,Die,Danach,Er,Bei,Viele,Mit,Er,In,Sie,Wir,Es,Die,Sie,Die,In,Die,Die,Die,Die,Die,Außer,Jetzt,Wir,Wir,Es,In,Es,Außer,100,In,Die,Im,Ich,,,,,,,,,,,,,,,,,,,,,,,6,0,6,0,0,0,0,0,,,,,,space,space,0.571491956711,,,,0.486559867859,2017_Jan_24_1056,60.1970830786,spr_backupper,001,Di11,
,wurde,wurden,stellt,verlassen,Lösung,diesem,mussten,haben,es,die,Schule,hat,wurden,verlassen,der,machte,nehme,meinem,haben,Uhr,nehme,des,Scheel,Tonnen,Uhr,dem,Tuch,müden,türmen,Flug,einer,Autos,den,hatte,g,keinen,sollten,hatten,Schuhe,verbrauchen,ein,Kinder,Linie,der,Kreditnehmer,dieser,äußeren,hatten,Schule,äußersten,Fernrohr,Teilnehmerinnen,ein,Stücke,Stücke,können,Betten,der,unserer,Blutdruck,hatte,türmen,machte,Stücke,übergaben,Gäste,wurde,wurde,unserer,Tonnen,dieser,stellt,der,verbrauchen,konnten,hat,Schuhe,haben,Formen,den,Uhr,Autos,Gäste,Eislaufbahnen,"Uhr,",dem,ist,übergaben,mussten,waren,meinem,waren,das,g,den,Kinder,Fernrohr,wurde,,,,,,,,,,,,,,,,,,,,,,,6,0,6,0,0,1,1,1,,,,,,,space,0.436187028885,,,,,2017_Jan_24_1056,60.1970830786,spr_backupper,001,Di11,
,trotz,Eimer,die,wegen,wird,Zirkus,uns,jede,"regnete,",Sonne,verbraucht,ein,Eimer,wegen,Feier,mal,eine,Studium,jede,schlug,eine,Rummels,war,gebrauchter,schlug,Bürgermeister,wurde,Teilnehmer,sich,zum,Studie,beider,Bürgermeister,keine,brauner,Umständen,immer,in,in,60,Tropfen,fuhren,101,Feier,sind,Methode,Rand,in,verbraucht,Rand,sahen,wussten,Tropfen,wurden,saftiges,Kleidung,wurden,Tat,Ankunft,kann,keine,sich,mal,saftigen,dem,suchen,die,trotz,Ankunft,gebrauchte,Methode,die,Tat,60,dann,uns,in,die,wurden,Kakao,war,beider,suchen,wurden,die,Essen,genau,das,uns,nur,Studium,nur,Essen,braunen,Kakao,fuhren,sahen,damals,,,,,,,,,,,,,,,,,,,,,,,6,0,6,0,0,2,2,2,,,,,,,space,0.492706775665,,,,,2017_Jan_24_1056,60.1970830786,spr_backupper,001,Di11,
,dem,rote,Masse,dem,mit,werden,durch,Menge,hat,"unterging,",260.000,Hemd,roter,des,gedachte,wieder,große,habe,Menge,"sporadisch,",große,wurde,der,Kleidung,"sporadisch,",beschuldigten,dann,wurden,Berge,Mond,wurde,beteiligten,beschuldigten,Lust,Zucker,können,auf,Dänemark,Größe,Liter,königliches,mit,hält,gedachte,mit,kann,der,Dänemark,260.000,der,wir,überwiegend,königlichen,aus,Fleisch,bei,mit,wissen,stand,schon,Lust,Berge,wieder,Fleischs,Mann,die,Leinwand,des,stand,Kleidung,kann,Masse,wissen,Liter,mit,die,Größe,Erlebnisse,unter,gehören,aus,beteiligter,die,mit,er,kann,die,Auto,durch,kleinere,las,kleinere,kann,Zuckers,gehören,mit,wir,schnell,,,,,,,,,,,,,,,,,,,,,,,6,0,6,0,0,3,3,3,,,,,,,space,0.460870027542,,,,,2017_Jan_24_1056,60.1970830786,spr_backupper,001,Di11,
,bekannten,Farbe,mit,schönen,"reichlichem,",die,Büschel,alten,uns,war,Kilowattstunden,aus,Farbe,schönen,man,viel,Packung,ich,alten,obwohl,Packung,schon,vierte,landen,obschon,die,mit,mit,schmutziger,dauerte,jetzt,Fahrer,die,auf,sind,Neuwahlen,warmem,gelegentlich,36,sprudelndes,Blut,solch,nicht,man,"sämtlichem,",man,Stadt,einen,Kilowattstunden,Stadt,den,"nicht,",Bluts,"wertvollem,",wurden,ausreichendem,"üblichem,",wir,ein,bei,auf,schmutzige,viel,wurden,das,Wohnung,aus,bekannten,ein,landen,man,mit,wir,sprudelnden,"minimalem,",Stimmung,36,bei,"regelmäßigem,",immer,"Japan,",Fahrer,Wohnung,dauerhaftem,"trug,",ich,richtige,dem,Büschel,"Delikte,",ich,"Delikte,",ich,sind,immer,solchen,den,dank,,,,,,,,,,,,,,,,,,,,,,,6,0,6,0,0,4,4,4,,,,,,,space,0.402704000473,,,,,2017_Jan_24_1056,60.1970830786,spr_backupper,001,Di11,
,Skandal,geschleudert.,einem,Wetter,purem,Tiere,frischen,Krams,die,die,elektrischer,feinem,geschleudert.,Wetters,der,Lärm,salziger,mehr,Kram,sie,salzige,immer,Bundespräsident.,im,sie,Störenfriede,"reichem,",zusätzlichem,Wäsche.,ungefähr,"nachgewiesen,",wurden,Störenfriede,noch,auf,vor,weichem,einen,hätten,Trinkwasser.,hat,unzureichenden,am,den,künftigem,eine,liegen,gelegentlichen,elektrische,liegen,roten,was,hat,klassischen,serviert.,monatlichem,harten,um,Glas,minimalem,noch,Wäsche.,Lärm,serviert.,Auto,des,seltenem,Skandals,Glas,im,eine,einem,von,Trinkwassers.,sauberen,ziemlich,würden,"frischem,",kaltem,350,die,wurden,des,feinem,war,leider,"Zeit,",Mann,frisches,derer,mehr,deren,leider,auf,350,unzureichenden,roten,täglichem,,,,,,,,,,,,,,,,,,,,,,,6,0,6,0,0,5,5,5,,,,,,,space,0.419305086136,,,,,2017_Jan_24_1056,60.1970830786,spr_backupper,001,Di11,
,wiedergewählt.,nan,Esslöffel,die,Alkohol,artgerecht,Grases,aus,Stimmung,Flut,Energie.,dichten,nan,die,Soldaten,um,Wurst,als,aus,defekt,Wurst,ruhig,nan,Müll.,defekt,jeden.,goldenen,schwarzem,nan,drei,dass,verschrottet.,jeden.,eine,jeden,Dezember,Untergrund,Besucher.,seiner,nan,den,Helmen,Hauptbahnhof.,Soldaten,Einkommen,große,die,Besucher.,Energie.,die,Planeten,Tupperware,den,Schmuck,nan,Taschengeld,Schaumstoff,die,köstlicher,täglichen,eine,nan,um,nan,mehr,Herrn,dichten,wiedergewählt.,köstlichen,Müll.,große,Esslöffel,den,nan,Kraftstoff,"vermiest,",seiner,kaltem,Abduschen,ml,er,verschrottet.,Herrn,Kunsteis,aus,nichts,um,mehr,Gras,sie,als,sie,nichts,jeden,ml,Helmen,Planet,grünen,,,,,,,,,,,,,,,,,,,,,,,6,0,6,0,0,6,6,6,,,,,,,space,0.537698984146,,,,,2017_Jan_24_1056,60.1970830786,spr_backupper,001,Di11,
,nan,nan,warmem,Wohnung.,verdünnt.,gehalten.,zwängen.,dem,ziemlich,zurückgekehrt.,nan,Stoff,nan,Wohnung.,des,jede,mit,einmal,dem,war.,mit,diskutiert.,nan,nan,war.,nan,Besatz,Kaffee,nan,Tage.,das,nan,nan,Sammlung,Fall,stattfinden.,liegen.,nan,Frau,nan,Boden,zur,nan,des,haftbar.,Menge,Slums.,nan,nan,Slums.,ganz,ist.,Boden,umgearbeitet.,nan,selber,gefertigt.,Probleme,Wein,Einsatz,Sammlung,nan,jede,nan,als,Gantenbein.,Gewebe,nan,Weins,nan,Menge,warmen,Problemen,nan,fahren.,dass,Frau,Saft,gehärtet.,warmer,trug.,nan,Gantenbeins.,eingesprüht.,Japan.,mitbringen.,Nadelhölzer,als,zwängen.,überführt,einmal,überführt,mitbringen.,Fall,warme,zur,ganz,Tee,,,,,,,,,,,,,,,,,,,,,,,6,0,6,0,0,7,7,7,,,,,,,space,0.5026948452,,,,,2017_Jan_24_1056,60.1970830786,spr_backupper,001,Di11,
,nan,nan,Honig,nan,nan,nan,nan,Haus,vermiest.,nan,nan,gefertigt.,nan,nan,zweiten,Menge,an,Rilke,Haus,nan,an,nan,nan,nan,nan,nan,rekonstruiert.,wiederbelebt.,nan,nan,Medikament,nan,nan,dumme,genug.,nan,nan,nan,gepasst.,nan,berührt.,Schule.,nan,zweiten,nan,dunkler,nan,nan,nan,nan,deutlich.,nan,berührt.,nan,nan,kaufen.,nan,im,schon,sinken.,dummer,nan,Menge,nan,gerne.,nan,wiederhergestellt.,nan,schon,nan,dunkle,Honigs,im,nan,nan,es,gepasst,besprochen.,nan,Milch.,nan,nan,nan,nan,nan,nan,umzusetzen.,gerne.,nan,wurden.,Rilke.,wurden.,nan,genug.,Milch.,Schule.,deutlich.,wieder,,,,,,,,,,,,,,,,,,,,,,,6,0,6,0,0,8,8,8,,,,,,,space,0.727866172791,,,,,2017_Jan_24_1056,60.1970830786,spr_backupper,001,Di11,
,,,,,,,,,,,,,,,,,,,,,,,,,,,,,,,,,,,,,,,,,,,,,,,,,,,,,,,,,,,,,,,,,,,,,,,,,,,,,,,,,,,,,,,,,,,,,,,,,,,,,,,,,,,,,,,,,,,,,,,,,6,0,6,0,,,,,,,,,,,,,None,n,1.71080684662,,2017_Jan_24_1056,60.1970830786,spr_backupper,001,Di11,
,Er,Es,Er,Sie,Die,In,Wir,Wir,Dass,Als,Die,Er,Es,Sie,Bei,Man,Ich,In,Wir,Die,Ich,Fernab,Walter,Viele,Die,Außer,Das,Die,Dort,Der,In,Die,Außer,Sie,100,Unter,Jungtiere,Wir,Die,Sie,Nicht,Die,Die,Bei,Manche,Mit,Am,Wir,Die,Am,Im,Die,Nicht,Die,Beträchtliche,Jugendliche,Alle,In,Bei,Ihr,Sie,Dort,Man,Beträchtliche,Wir,Die,Danach,Er,Bei,Viele,Mit,Er,In,Sie,Wir,Es,Die,Sie,Die,In,Die,Die,Die,Die,Die,Außer,Jetzt,Wir,Wir,Es,In,Es,Außer,100,In,Die,Im,Ich,,,,,,,,,,,,,,,,,,,,,,,7,0,7,0,0,0,0,0,,,,,,space,space,0.302543878555,,,,0.453953027725,2017_Jan_24_1056,60.1970830786,spr_backupper,001,Di11,
,wurde,wurden,stellt,verlassen,Lösung,diesem,mussten,haben,es,die,Schule,hat,wurden,verlassen,der,machte,nehme,meinem,haben,Uhr,nehme,des,Scheel,Tonnen,Uhr,dem,Tuch,müden,türmen,Flug,einer,Autos,den,hatte,g,keinen,sollten,hatten,Schuhe,verbrauchen,ein,Kinder,Linie,der,Kreditnehmer,dieser,äußeren,hatten,Schule,äußersten,Fernrohr,Teilnehmerinnen,ein,Stücke,Stücke,können,Betten,der,unserer,Blutdruck,hatte,türmen,machte,Stücke,übergaben,Gäste,wurde,wurde,unserer,Tonnen,dieser,stellt,der,verbrauchen,konnten,hat,Schuhe,haben,Formen,den,Uhr,Autos,Gäste,Eislaufbahnen,"Uhr,",dem,ist,übergaben,mussten,waren,meinem,waren,das,g,den,Kinder,Fernrohr,wurde,,,,,,,,,,,,,,,,,,,,,,,7,0,7,0,0,1,1,1,,,,,,,space,0.567296028137,,,,,2017_Jan_24_1056,60.1970830786,spr_backupper,001,Di11,
,trotz,Eimer,die,wegen,wird,Zirkus,uns,jede,"regnete,",Sonne,verbraucht,ein,Eimer,wegen,Feier,mal,eine,Studium,jede,schlug,eine,Rummels,war,gebrauchter,schlug,Bürgermeister,wurde,Teilnehmer,sich,zum,Studie,beider,Bürgermeister,keine,brauner,Umständen,immer,in,in,60,Tropfen,fuhren,101,Feier,sind,Methode,Rand,in,verbraucht,Rand,sahen,wussten,Tropfen,wurden,saftiges,Kleidung,wurden,Tat,Ankunft,kann,keine,sich,mal,saftigen,dem,suchen,die,trotz,Ankunft,gebrauchte,Methode,die,Tat,60,dann,uns,in,die,wurden,Kakao,war,beider,suchen,wurden,die,Essen,genau,das,uns,nur,Studium,nur,Essen,braunen,Kakao,fuhren,sahen,damals,,,,,,,,,,,,,,,,,,,,,,,7,0,7,0,0,2,2,2,,,,,,,space,0.385603189468,,,,,2017_Jan_24_1056,60.1970830786,spr_backupper,001,Di11,
,dem,rote,Masse,dem,mit,werden,durch,Menge,hat,"unterging,",260.000,Hemd,roter,des,gedachte,wieder,große,habe,Menge,"sporadisch,",große,wurde,der,Kleidung,"sporadisch,",beschuldigten,dann,wurden,Berge,Mond,wurde,beteiligten,beschuldigten,Lust,Zucker,können,auf,Dänemark,Größe,Liter,königliches,mit,hält,gedachte,mit,kann,der,Dänemark,260.000,der,wir,überwiegend,königlichen,aus,Fleisch,bei,mit,wissen,stand,schon,Lust,Berge,wieder,Fleischs,Mann,die,Leinwand,des,stand,Kleidung,kann,Masse,wissen,Liter,mit,die,Größe,Erlebnisse,unter,gehören,aus,beteiligter,die,mit,er,kann,die,Auto,durch,kleinere,las,kleinere,kann,Zuckers,gehören,mit,wir,schnell,,,,,,,,,,,,,,,,,,,,,,,7,0,7,0,0,3,3,3,,,,,,,space,0.402978897095,,,,,2017_Jan_24_1056,60.1970830786,spr_backupper,001,Di11,
,bekannten,Farbe,mit,schönen,"reichlichem,",die,Büschel,alten,uns,war,Kilowattstunden,aus,Farbe,schönen,man,viel,Packung,ich,alten,obwohl,Packung,schon,vierte,landen,obschon,die,mit,mit,schmutziger,dauerte,jetzt,Fahrer,die,auf,sind,Neuwahlen,warmem,gelegentlich,36,sprudelndes,Blut,solch,nicht,man,"sämtlichem,",man,Stadt,einen,Kilowattstunden,Stadt,den,"nicht,",Bluts,"wertvollem,",wurden,ausreichendem,"üblichem,",wir,ein,bei,auf,schmutzige,viel,wurden,das,Wohnung,aus,bekannten,ein,landen,man,mit,wir,sprudelnden,"minimalem,",Stimmung,36,bei,"regelmäßigem,",immer,"Japan,",Fahrer,Wohnung,dauerhaftem,"trug,",ich,richtige,dem,Büschel,"Delikte,",ich,"Delikte,",ich,sind,immer,solchen,den,dank,,,,,,,,,,,,,,,,,,,,,,,7,0,7,0,0,4,4,4,,,,,,,space,0.430359125137,,,,,2017_Jan_24_1056,60.1970830786,spr_backupper,001,Di11,
,Skandal,geschleudert.,einem,Wetter,purem,Tiere,frischen,Krams,die,die,elektrischer,feinem,geschleudert.,Wetters,der,Lärm,salziger,mehr,Kram,sie,salzige,immer,Bundespräsident.,im,sie,Störenfriede,"reichem,",zusätzlichem,Wäsche.,ungefähr,"nachgewiesen,",wurden,Störenfriede,noch,auf,vor,weichem,einen,hätten,Trinkwasser.,hat,unzureichenden,am,den,künftigem,eine,liegen,gelegentlichen,elektrische,liegen,roten,was,hat,klassischen,serviert.,monatlichem,harten,um,Glas,minimalem,noch,Wäsche.,Lärm,serviert.,Auto,des,seltenem,Skandals,Glas,im,eine,einem,von,Trinkwassers.,sauberen,ziemlich,würden,"frischem,",kaltem,350,die,wurden,des,feinem,war,leider,"Zeit,",Mann,frisches,derer,mehr,deren,leider,auf,350,unzureichenden,roten,täglichem,,,,,,,,,,,,,,,,,,,,,,,7,0,7,0,0,5,5,5,,,,,,,space,0.459799051285,,,,,2017_Jan_24_1056,60.1970830786,spr_backupper,001,Di11,
,wiedergewählt.,nan,Esslöffel,die,Alkohol,artgerecht,Grases,aus,Stimmung,Flut,Energie.,dichten,nan,die,Soldaten,um,Wurst,als,aus,defekt,Wurst,ruhig,nan,Müll.,defekt,jeden.,goldenen,schwarzem,nan,drei,dass,verschrottet.,jeden.,eine,jeden,Dezember,Untergrund,Besucher.,seiner,nan,den,Helmen,Hauptbahnhof.,Soldaten,Einkommen,große,die,Besucher.,Energie.,die,Planeten,Tupperware,den,Schmuck,nan,Taschengeld,Schaumstoff,die,köstlicher,täglichen,eine,nan,um,nan,mehr,Herrn,dichten,wiedergewählt.,köstlichen,Müll.,große,Esslöffel,den,nan,Kraftstoff,"vermiest,",seiner,kaltem,Abduschen,ml,er,verschrottet.,Herrn,Kunsteis,aus,nichts,um,mehr,Gras,sie,als,sie,nichts,jeden,ml,Helmen,Planet,grünen,,,,,,,,,,,,,,,,,,,,,,,7,0,7,0,0,6,6,6,,,,,,,space,0.457969903946,,,,,2017_Jan_24_1056,60.1970830786,spr_backupper,001,Di11,
,nan,nan,warmem,Wohnung.,verdünnt.,gehalten.,zwängen.,dem,ziemlich,zurückgekehrt.,nan,Stoff,nan,Wohnung.,des,jede,mit,einmal,dem,war.,mit,diskutiert.,nan,nan,war.,nan,Besatz,Kaffee,nan,Tage.,das,nan,nan,Sammlung,Fall,stattfinden.,liegen.,nan,Frau,nan,Boden,zur,nan,des,haftbar.,Menge,Slums.,nan,nan,Slums.,ganz,ist.,Boden,umgearbeitet.,nan,selber,gefertigt.,Probleme,Wein,Einsatz,Sammlung,nan,jede,nan,als,Gantenbein.,Gewebe,nan,Weins,nan,Menge,warmen,Problemen,nan,fahren.,dass,Frau,Saft,gehärtet.,warmer,trug.,nan,Gantenbeins.,eingesprüht.,Japan.,mitbringen.,Nadelhölzer,als,zwängen.,überführt,einmal,überführt,mitbringen.,Fall,warme,zur,ganz,Tee,,,,,,,,,,,,,,,,,,,,,,,7,0,7,0,0,7,7,7,,,,,,,space,0.688920021057,,,,,2017_Jan_24_1056,60.1970830786,spr_backupper,001,Di11,
,nan,nan,Honig,nan,nan,nan,nan,Haus,vermiest.,nan,nan,gefertigt.,nan,nan,zweiten,Menge,an,Rilke,Haus,nan,an,nan,nan,nan,nan,nan,rekonstruiert.,wiederbelebt.,nan,nan,Medikament,nan,nan,dumme,genug.,nan,nan,nan,gepasst.,nan,berührt.,Schule.,nan,zweiten,nan,dunkler,nan,nan,nan,nan,deutlich.,nan,berührt.,nan,nan,kaufen.,nan,im,schon,sinken.,dummer,nan,Menge,nan,gerne.,nan,wiederhergestellt.,nan,schon,nan,dunkle,Honigs,im,nan,nan,es,gepasst,besprochen.,nan,Milch.,nan,nan,nan,nan,nan,nan,umzusetzen.,gerne.,nan,wurden.,Rilke.,wurden.,nan,genug.,Milch.,Schule.,deutlich.,wieder,,,,,,,,,,,,,,,,,,,,,,,7,0,7,0,0,8,8,8,,,,,,,space,0.600812911987,,,,,2017_Jan_24_1056,60.1970830786,spr_backupper,001,Di11,
,nan,nan,her.,nan,nan,nan,nan,geschafft.,nan,nan,nan,nan,nan,nan,Weltkriegs.,heißer,den,gelesen.,geschafft.,nan,den,nan,nan,nan,nan,nan,nan,nan,nan,nan,nicht,nan,nan,Sprüche.,nan,nan,nan,nan,nan,nan,nan,nan,nan,Weltkriegs.,nan,Materie,nan,nan,nan,nan,nan,nan,nan,nan,nan,nan,nan,Landkreis.,auf,nan,Sprüche.,nan,heiße,nan,nan,nan,nan,nan,auf,nan,Materie,her.,Landkreis.,nan,nan,regnete.,haben.,nan,nan,nan,nan,nan,nan,nan,nan,nan,nan,nan,nan,nan,nan,nan,nan,nan,nan,nan,nan,fit.,,,,,,,,,,,,,,,,,,,,,,,7,0,7,0,0,9,9,9,,,,,,,space,0.525521993637,,,,,2017_Jan_24_1056,60.1970830786,spr_backupper,001,Di11,
,,,,,,,,,,,,,,,,,,,,,,,,,,,,,,,,,,,,,,,,,,,,,,,,,,,,,,,,,,,,,,,,,,,,,,,,,,,,,,,,,,,,,,,,,,,,,,,,,,,,,,,,,,,,,,,,,,,,,,,,,7,0,7,0,,,,,,,,,,,,,None,n,3.67492008209,,2017_Jan_24_1056,60.1970830786,spr_backupper,001,Di11,
,Er,Es,Er,Sie,Die,In,Wir,Wir,Dass,Als,Die,Er,Es,Sie,Bei,Man,Ich,In,Wir,Die,Ich,Fernab,Walter,Viele,Die,Außer,Das,Die,Dort,Der,In,Die,Außer,Sie,100,Unter,Jungtiere,Wir,Die,Sie,Nicht,Die,Die,Bei,Manche,Mit,Am,Wir,Die,Am,Im,Die,Nicht,Die,Beträchtliche,Jugendliche,Alle,In,Bei,Ihr,Sie,Dort,Man,Beträchtliche,Wir,Die,Danach,Er,Bei,Viele,Mit,Er,In,Sie,Wir,Es,Die,Sie,Die,In,Die,Die,Die,Die,Die,Außer,Jetzt,Wir,Wir,Es,In,Es,Außer,100,In,Die,Im,Ich,,,,,,,,,,,,,,,,,,,,,,,8,0,8,0,0,0,0,0,,,,,,space,space,0.498564958572,,,,0.4856569767,2017_Jan_24_1056,60.1970830786,spr_backupper,001,Di11,
,wurde,wurden,stellt,verlassen,Lösung,diesem,mussten,haben,es,die,Schule,hat,wurden,verlassen,der,machte,nehme,meinem,haben,Uhr,nehme,des,Scheel,Tonnen,Uhr,dem,Tuch,müden,türmen,Flug,einer,Autos,den,hatte,g,keinen,sollten,hatten,Schuhe,verbrauchen,ein,Kinder,Linie,der,Kreditnehmer,dieser,äußeren,hatten,Schule,äußersten,Fernrohr,Teilnehmerinnen,ein,Stücke,Stücke,können,Betten,der,unserer,Blutdruck,hatte,türmen,machte,Stücke,übergaben,Gäste,wurde,wurde,unserer,Tonnen,dieser,stellt,der,verbrauchen,konnten,hat,Schuhe,haben,Formen,den,Uhr,Autos,Gäste,Eislaufbahnen,"Uhr,",dem,ist,übergaben,mussten,waren,meinem,waren,das,g,den,Kinder,Fernrohr,wurde,,,,,,,,,,,,,,,,,,,,,,,8,0,8,0,0,1,1,1,,,,,,,space,0.592981815338,,,,,2017_Jan_24_1056,60.1970830786,spr_backupper,001,Di11,
,trotz,Eimer,die,wegen,wird,Zirkus,uns,jede,"regnete,",Sonne,verbraucht,ein,Eimer,wegen,Feier,mal,eine,Studium,jede,schlug,eine,Rummels,war,gebrauchter,schlug,Bürgermeister,wurde,Teilnehmer,sich,zum,Studie,beider,Bürgermeister,keine,brauner,Umständen,immer,in,in,60,Tropfen,fuhren,101,Feier,sind,Methode,Rand,in,verbraucht,Rand,sahen,wussten,Tropfen,wurden,saftiges,Kleidung,wurden,Tat,Ankunft,kann,keine,sich,mal,saftigen,dem,suchen,die,trotz,Ankunft,gebrauchte,Methode,die,Tat,60,dann,uns,in,die,wurden,Kakao,war,beider,suchen,wurden,die,Essen,genau,das,uns,nur,Studium,nur,Essen,braunen,Kakao,fuhren,sahen,damals,,,,,,,,,,,,,,,,,,,,,,,8,0,8,0,0,2,2,2,,,,,,,space,0.616060972214,,,,,2017_Jan_24_1056,60.1970830786,spr_backupper,001,Di11,
,dem,rote,Masse,dem,mit,werden,durch,Menge,hat,"unterging,",260.000,Hemd,roter,des,gedachte,wieder,große,habe,Menge,"sporadisch,",große,wurde,der,Kleidung,"sporadisch,",beschuldigten,dann,wurden,Berge,Mond,wurde,beteiligten,beschuldigten,Lust,Zucker,können,auf,Dänemark,Größe,Liter,königliches,mit,hält,gedachte,mit,kann,der,Dänemark,260.000,der,wir,überwiegend,königlichen,aus,Fleisch,bei,mit,wissen,stand,schon,Lust,Berge,wieder,Fleischs,Mann,die,Leinwand,des,stand,Kleidung,kann,Masse,wissen,Liter,mit,die,Größe,Erlebnisse,unter,gehören,aus,beteiligter,die,mit,er,kann,die,Auto,durch,kleinere,las,kleinere,kann,Zuckers,gehören,mit,wir,schnell,,,,,,,,,,,,,,,,,,,,,,,8,0,8,0,0,3,3,3,,,,,,,space,0.554576158524,,,,,2017_Jan_24_1056,60.1970830786,spr_backupper,001,Di11,
,bekannten,Farbe,mit,schönen,"reichlichem,",die,Büschel,alten,uns,war,Kilowattstunden,aus,Farbe,schönen,man,viel,Packung,ich,alten,obwohl,Packung,schon,vierte,landen,obschon,die,mit,mit,schmutziger,dauerte,jetzt,Fahrer,die,auf,sind,Neuwahlen,warmem,gelegentlich,36,sprudelndes,Blut,solch,nicht,man,"sämtlichem,",man,Stadt,einen,Kilowattstunden,Stadt,den,"nicht,",Bluts,"wertvollem,",wurden,ausreichendem,"üblichem,",wir,ein,bei,auf,schmutzige,viel,wurden,das,Wohnung,aus,bekannten,ein,landen,man,mit,wir,sprudelnden,"minimalem,",Stimmung,36,bei,"regelmäßigem,",immer,"Japan,",Fahrer,Wohnung,dauerhaftem,"trug,",ich,richtige,dem,Büschel,"Delikte,",ich,"Delikte,",ich,sind,immer,solchen,den,dank,,,,,,,,,,,,,,,,,,,,,,,8,0,8,0,0,4,4,4,,,,,,,space,0.51124215126,,,,,2017_Jan_24_1056,60.1970830786,spr_backupper,001,Di11,
,Skandal,geschleudert.,einem,Wetter,purem,Tiere,frischen,Krams,die,die,elektrischer,feinem,geschleudert.,Wetters,der,Lärm,salziger,mehr,Kram,sie,salzige,immer,Bundespräsident.,im,sie,Störenfriede,"reichem,",zusätzlichem,Wäsche.,ungefähr,"nachgewiesen,",wurden,Störenfriede,noch,auf,vor,weichem,einen,hätten,Trinkwasser.,hat,unzureichenden,am,den,künftigem,eine,liegen,gelegentlichen,elektrische,liegen,roten,was,hat,klassischen,serviert.,monatlichem,harten,um,Glas,minimalem,noch,Wäsche.,Lärm,serviert.,Auto,des,seltenem,Skandals,Glas,im,eine,einem,von,Trinkwassers.,sauberen,ziemlich,würden,"frischem,",kaltem,350,die,wurden,des,feinem,war,leider,"Zeit,",Mann,frisches,derer,mehr,deren,leider,auf,350,unzureichenden,roten,täglichem,,,,,,,,,,,,,,,,,,,,,,,8,0,8,0,0,5,5,5,,,,,,,space,0.726191997528,,,,,2017_Jan_24_1056,60.1970830786,spr_backupper,001,Di11,
,,,,,,,,,,,,,,,,,,,,,,,,,,,,,,,,,,,,,,,,,,,,,,,,,,,,,,,,,,,,,,,,,,,,,,,,,,,,,,,,,,,,,,,,,,,,,,,,,,,,,,,,,,,,,,,,,,,,,,,,,8,0,8,0,,,,,,,,,,,,,None,n,1.79773211479,,2017_Jan_24_1056,60.1970830786,spr_backupper,001,Di11,
,Er,Es,Er,Sie,Die,In,Wir,Wir,Dass,Als,Die,Er,Es,Sie,Bei,Man,Ich,In,Wir,Die,Ich,Fernab,Walter,Viele,Die,Außer,Das,Die,Dort,Der,In,Die,Außer,Sie,100,Unter,Jungtiere,Wir,Die,Sie,Nicht,Die,Die,Bei,Manche,Mit,Am,Wir,Die,Am,Im,Die,Nicht,Die,Beträchtliche,Jugendliche,Alle,In,Bei,Ihr,Sie,Dort,Man,Beträchtliche,Wir,Die,Danach,Er,Bei,Viele,Mit,Er,In,Sie,Wir,Es,Die,Sie,Die,In,Die,Die,Die,Die,Die,Außer,Jetzt,Wir,Wir,Es,In,Es,Außer,100,In,Die,Im,Ich,,,,,,,,,,,,,,,,,,,,,,,9,0,9,0,0,0,0,0,,,,,,space,space,0.391135931015,,,,0.453844070435,2017_Jan_24_1056,60.1970830786,spr_backupper,001,Di11,
,wurde,wurden,stellt,verlassen,Lösung,diesem,mussten,haben,es,die,Schule,hat,wurden,verlassen,der,machte,nehme,meinem,haben,Uhr,nehme,des,Scheel,Tonnen,Uhr,dem,Tuch,müden,türmen,Flug,einer,Autos,den,hatte,g,keinen,sollten,hatten,Schuhe,verbrauchen,ein,Kinder,Linie,der,Kreditnehmer,dieser,äußeren,hatten,Schule,äußersten,Fernrohr,Teilnehmerinnen,ein,Stücke,Stücke,können,Betten,der,unserer,Blutdruck,hatte,türmen,machte,Stücke,übergaben,Gäste,wurde,wurde,unserer,Tonnen,dieser,stellt,der,verbrauchen,konnten,hat,Schuhe,haben,Formen,den,Uhr,Autos,Gäste,Eislaufbahnen,"Uhr,",dem,ist,übergaben,mussten,waren,meinem,waren,das,g,den,Kinder,Fernrohr,wurde,,,,,,,,,,,,,,,,,,,,,,,9,0,9,0,0,1,1,1,,,,,,,space,0.525962114334,,,,,2017_Jan_24_1056,60.1970830786,spr_backupper,001,Di11,
,trotz,Eimer,die,wegen,wird,Zirkus,uns,jede,"regnete,",Sonne,verbraucht,ein,Eimer,wegen,Feier,mal,eine,Studium,jede,schlug,eine,Rummels,war,gebrauchter,schlug,Bürgermeister,wurde,Teilnehmer,sich,zum,Studie,beider,Bürgermeister,keine,brauner,Umständen,immer,in,in,60,Tropfen,fuhren,101,Feier,sind,Methode,Rand,in,verbraucht,Rand,sahen,wussten,Tropfen,wurden,saftiges,Kleidung,wurden,Tat,Ankunft,kann,keine,sich,mal,saftigen,dem,suchen,die,trotz,Ankunft,gebrauchte,Methode,die,Tat,60,dann,uns,in,die,wurden,Kakao,war,beider,suchen,wurden,die,Essen,genau,das,uns,nur,Studium,nur,Essen,braunen,Kakao,fuhren,sahen,damals,,,,,,,,,,,,,,,,,,,,,,,9,0,9,0,0,2,2,2,,,,,,,space,0.537363052368,,,,,2017_Jan_24_1056,60.1970830786,spr_backupper,001,Di11,
,dem,rote,Masse,dem,mit,werden,durch,Menge,hat,"unterging,",260.000,Hemd,roter,des,gedachte,wieder,große,habe,Menge,"sporadisch,",große,wurde,der,Kleidung,"sporadisch,",beschuldigten,dann,wurden,Berge,Mond,wurde,beteiligten,beschuldigten,Lust,Zucker,können,auf,Dänemark,Größe,Liter,königliches,mit,hält,gedachte,mit,kann,der,Dänemark,260.000,der,wir,überwiegend,königlichen,aus,Fleisch,bei,mit,wissen,stand,schon,Lust,Berge,wieder,Fleischs,Mann,die,Leinwand,des,stand,Kleidung,kann,Masse,wissen,Liter,mit,die,Größe,Erlebnisse,unter,gehören,aus,beteiligter,die,mit,er,kann,die,Auto,durch,kleinere,las,kleinere,kann,Zuckers,gehören,mit,wir,schnell,,,,,,,,,,,,,,,,,,,,,,,9,0,9,0,0,3,3,3,,,,,,,space,0.506052970886,,,,,2017_Jan_24_1056,60.1970830786,spr_backupper,001,Di11,
,bekannten,Farbe,mit,schönen,"reichlichem,",die,Büschel,alten,uns,war,Kilowattstunden,aus,Farbe,schönen,man,viel,Packung,ich,alten,obwohl,Packung,schon,vierte,landen,obschon,die,mit,mit,schmutziger,dauerte,jetzt,Fahrer,die,auf,sind,Neuwahlen,warmem,gelegentlich,36,sprudelndes,Blut,solch,nicht,man,"sämtlichem,",man,Stadt,einen,Kilowattstunden,Stadt,den,"nicht,",Bluts,"wertvollem,",wurden,ausreichendem,"üblichem,",wir,ein,bei,auf,schmutzige,viel,wurden,das,Wohnung,aus,bekannten,ein,landen,man,mit,wir,sprudelnden,"minimalem,",Stimmung,36,bei,"regelmäßigem,",immer,"Japan,",Fahrer,Wohnung,dauerhaftem,"trug,",ich,richtige,dem,Büschel,"Delikte,",ich,"Delikte,",ich,sind,immer,solchen,den,dank,,,,,,,,,,,,,,,,,,,,,,,9,0,9,0,0,4,4,4,,,,,,,space,0.572036027908,,,,,2017_Jan_24_1056,60.1970830786,spr_backupper,001,Di11,
,Skandal,geschleudert.,einem,Wetter,purem,Tiere,frischen,Krams,die,die,elektrischer,feinem,geschleudert.,Wetters,der,Lärm,salziger,mehr,Kram,sie,salzige,immer,Bundespräsident.,im,sie,Störenfriede,"reichem,",zusätzlichem,Wäsche.,ungefähr,"nachgewiesen,",wurden,Störenfriede,noch,auf,vor,weichem,einen,hätten,Trinkwasser.,hat,unzureichenden,am,den,künftigem,eine,liegen,gelegentlichen,elektrische,liegen,roten,was,hat,klassischen,serviert.,monatlichem,harten,um,Glas,minimalem,noch,Wäsche.,Lärm,serviert.,Auto,des,seltenem,Skandals,Glas,im,eine,einem,von,Trinkwassers.,sauberen,ziemlich,würden,"frischem,",kaltem,350,die,wurden,des,feinem,war,leider,"Zeit,",Mann,frisches,derer,mehr,deren,leider,auf,350,unzureichenden,roten,täglichem,,,,,,,,,,,,,,,,,,,,,,,9,0,9,0,0,5,5,5,,,,,,,space,0.443318128586,,,,,2017_Jan_24_1056,60.1970830786,spr_backupper,001,Di11,
,wiedergewählt.,nan,Esslöffel,die,Alkohol,artgerecht,Grases,aus,Stimmung,Flut,Energie.,dichten,nan,die,Soldaten,um,Wurst,als,aus,defekt,Wurst,ruhig,nan,Müll.,defekt,jeden.,goldenen,schwarzem,nan,drei,dass,verschrottet.,jeden.,eine,jeden,Dezember,Untergrund,Besucher.,seiner,nan,den,Helmen,Hauptbahnhof.,Soldaten,Einkommen,große,die,Besucher.,Energie.,die,Planeten,Tupperware,den,Schmuck,nan,Taschengeld,Schaumstoff,die,köstlicher,täglichen,eine,nan,um,nan,mehr,Herrn,dichten,wiedergewählt.,köstlichen,Müll.,große,Esslöffel,den,nan,Kraftstoff,"vermiest,",seiner,kaltem,Abduschen,ml,er,verschrottet.,Herrn,Kunsteis,aus,nichts,um,mehr,Gras,sie,als,sie,nichts,jeden,ml,Helmen,Planet,grünen,,,,,,,,,,,,,,,,,,,,,,,9,0,9,0,0,6,6,6,,,,,,,space,0.480946779251,,,,,2017_Jan_24_1056,60.1970830786,spr_backupper,001,Di11,
,,,,,,,,,,,,,,,,,,,,,,,,,,,,,,,,,,,,,,,,,,,,,,,,,,,,,,,,,,,,,,,,,,,,,,,,,,,,,,,,,,,,,,,,,,,,,,,,,,,,,,,,,,,,,,,,,,,,,,,,,9,0,9,0,,,,,,,,,,,,,None,j,20.3153100014,,2017_Jan_24_1056,60.1970830786,spr_backupper,001,Di11,
,Er,Es,Er,Sie,Die,In,Wir,Wir,Dass,Als,Die,Er,Es,Sie,Bei,Man,Ich,In,Wir,Die,Ich,Fernab,Walter,Viele,Die,Außer,Das,Die,Dort,Der,In,Die,Außer,Sie,100,Unter,Jungtiere,Wir,Die,Sie,Nicht,Die,Die,Bei,Manche,Mit,Am,Wir,Die,Am,Im,Die,Nicht,Die,Beträchtliche,Jugendliche,Alle,In,Bei,Ihr,Sie,Dort,Man,Beträchtliche,Wir,Die,Danach,Er,Bei,Viele,Mit,Er,In,Sie,Wir,Es,Die,Sie,Die,In,Die,Die,Die,Die,Die,Außer,Jetzt,Wir,Wir,Es,In,Es,Außer,100,In,Die,Im,Ich,,,,,,,,,,,,,,,,,,,,,,,10,0,10,0,0,0,0,0,,,,,,space,space,0.588387966156,,,,1.22502493858,2017_Jan_24_1056,60.1970830786,spr_backupper,001,Di11,
,wurde,wurden,stellt,verlassen,Lösung,diesem,mussten,haben,es,die,Schule,hat,wurden,verlassen,der,machte,nehme,meinem,haben,Uhr,nehme,des,Scheel,Tonnen,Uhr,dem,Tuch,müden,türmen,Flug,einer,Autos,den,hatte,g,keinen,sollten,hatten,Schuhe,verbrauchen,ein,Kinder,Linie,der,Kreditnehmer,dieser,äußeren,hatten,Schule,äußersten,Fernrohr,Teilnehmerinnen,ein,Stücke,Stücke,können,Betten,der,unserer,Blutdruck,hatte,türmen,machte,Stücke,übergaben,Gäste,wurde,wurde,unserer,Tonnen,dieser,stellt,der,verbrauchen,konnten,hat,Schuhe,haben,Formen,den,Uhr,Autos,Gäste,Eislaufbahnen,"Uhr,",dem,ist,übergaben,mussten,waren,meinem,waren,das,g,den,Kinder,Fernrohr,wurde,,,,,,,,,,,,,,,,,,,,,,,10,0,10,0,0,1,1,1,,,,,,,space,0.390176057816,,,,,2017_Jan_24_1056,60.1970830786,spr_backupper,001,Di11,
,trotz,Eimer,die,wegen,wird,Zirkus,uns,jede,"regnete,",Sonne,verbraucht,ein,Eimer,wegen,Feier,mal,eine,Studium,jede,schlug,eine,Rummels,war,gebrauchter,schlug,Bürgermeister,wurde,Teilnehmer,sich,zum,Studie,beider,Bürgermeister,keine,brauner,Umständen,immer,in,in,60,Tropfen,fuhren,101,Feier,sind,Methode,Rand,in,verbraucht,Rand,sahen,wussten,Tropfen,wurden,saftiges,Kleidung,wurden,Tat,Ankunft,kann,keine,sich,mal,saftigen,dem,suchen,die,trotz,Ankunft,gebrauchte,Methode,die,Tat,60,dann,uns,in,die,wurden,Kakao,war,beider,suchen,wurden,die,Essen,genau,das,uns,nur,Studium,nur,Essen,braunen,Kakao,fuhren,sahen,damals,,,,,,,,,,,,,,,,,,,,,,,10,0,10,0,0,2,2,2,,,,,,,space,0.470431089401,,,,,2017_Jan_24_1056,60.1970830786,spr_backupper,001,Di11,
,dem,rote,Masse,dem,mit,werden,durch,Menge,hat,"unterging,",260.000,Hemd,roter,des,gedachte,wieder,große,habe,Menge,"sporadisch,",große,wurde,der,Kleidung,"sporadisch,",beschuldigten,dann,wurden,Berge,Mond,wurde,beteiligten,beschuldigten,Lust,Zucker,können,auf,Dänemark,Größe,Liter,königliches,mit,hält,gedachte,mit,kann,der,Dänemark,260.000,der,wir,überwiegend,königlichen,aus,Fleisch,bei,mit,wissen,stand,schon,Lust,Berge,wieder,Fleischs,Mann,die,Leinwand,des,stand,Kleidung,kann,Masse,wissen,Liter,mit,die,Größe,Erlebnisse,unter,gehören,aus,beteiligter,die,mit,er,kann,die,Auto,durch,kleinere,las,kleinere,kann,Zuckers,gehören,mit,wir,schnell,,,,,,,,,,,,,,,,,,,,,,,10,0,10,0,0,3,3,3,,,,,,,space,0.392674922943,,,,,2017_Jan_24_1056,60.1970830786,spr_backupper,001,Di11,
,bekannten,Farbe,mit,schönen,"reichlichem,",die,Büschel,alten,uns,war,Kilowattstunden,aus,Farbe,schönen,man,viel,Packung,ich,alten,obwohl,Packung,schon,vierte,landen,obschon,die,mit,mit,schmutziger,dauerte,jetzt,Fahrer,die,auf,sind,Neuwahlen,warmem,gelegentlich,36,sprudelndes,Blut,solch,nicht,man,"sämtlichem,",man,Stadt,einen,Kilowattstunden,Stadt,den,"nicht,",Bluts,"wertvollem,",wurden,ausreichendem,"üblichem,",wir,ein,bei,auf,schmutzige,viel,wurden,das,Wohnung,aus,bekannten,ein,landen,man,mit,wir,sprudelnden,"minimalem,",Stimmung,36,bei,"regelmäßigem,",immer,"Japan,",Fahrer,Wohnung,dauerhaftem,"trug,",ich,richtige,dem,Büschel,"Delikte,",ich,"Delikte,",ich,sind,immer,solchen,den,dank,,,,,,,,,,,,,,,,,,,,,,,10,0,10,0,0,4,4,4,,,,,,,space,0.486347913742,,,,,2017_Jan_24_1056,60.1970830786,spr_backupper,001,Di11,
,Skandal,geschleudert.,einem,Wetter,purem,Tiere,frischen,Krams,die,die,elektrischer,feinem,geschleudert.,Wetters,der,Lärm,salziger,mehr,Kram,sie,salzige,immer,Bundespräsident.,im,sie,Störenfriede,"reichem,",zusätzlichem,Wäsche.,ungefähr,"nachgewiesen,",wurden,Störenfriede,noch,auf,vor,weichem,einen,hätten,Trinkwasser.,hat,unzureichenden,am,den,künftigem,eine,liegen,gelegentlichen,elektrische,liegen,roten,was,hat,klassischen,serviert.,monatlichem,harten,um,Glas,minimalem,noch,Wäsche.,Lärm,serviert.,Auto,des,seltenem,Skandals,Glas,im,eine,einem,von,Trinkwassers.,sauberen,ziemlich,würden,"frischem,",kaltem,350,die,wurden,des,feinem,war,leider,"Zeit,",Mann,frisches,derer,mehr,deren,leider,auf,350,unzureichenden,roten,täglichem,,,,,,,,,,,,,,,,,,,,,,,10,0,10,0,0,5,5,5,,,,,,,space,0.621603965759,,,,,2017_Jan_24_1056,60.1970830786,spr_backupper,001,Di11,
,,,,,,,,,,,,,,,,,,,,,,,,,,,,,,,,,,,,,,,,,,,,,,,,,,,,,,,,,,,,,,,,,,,,,,,,,,,,,,,,,,,,,,,,,,,,,,,,,,,,,,,,,,,,,,,,,,,,,,,,,10,0,10,0,,,,,,,,,,,,,None,n,2.88943815231,,2017_Jan_24_1056,60.1970830786,spr_backupper,001,Di11,
,Er,Es,Er,Sie,Die,In,Wir,Wir,Dass,Als,Die,Er,Es,Sie,Bei,Man,Ich,In,Wir,Die,Ich,Fernab,Walter,Viele,Die,Außer,Das,Die,Dort,Der,In,Die,Außer,Sie,100,Unter,Jungtiere,Wir,Die,Sie,Nicht,Die,Die,Bei,Manche,Mit,Am,Wir,Die,Am,Im,Die,Nicht,Die,Beträchtliche,Jugendliche,Alle,In,Bei,Ihr,Sie,Dort,Man,Beträchtliche,Wir,Die,Danach,Er,Bei,Viele,Mit,Er,In,Sie,Wir,Es,Die,Sie,Die,In,Die,Die,Die,Die,Die,Außer,Jetzt,Wir,Wir,Es,In,Es,Außer,100,In,Die,Im,Ich,,,,,,,,,,,,,,,,,,,,,,,11,0,11,0,0,0,0,0,,,,,,space,space,0.610957145691,,,,0.754982948303,2017_Jan_24_1056,60.1970830786,spr_backupper,001,Di11,
,wurde,wurden,stellt,verlassen,Lösung,diesem,mussten,haben,es,die,Schule,hat,wurden,verlassen,der,machte,nehme,meinem,haben,Uhr,nehme,des,Scheel,Tonnen,Uhr,dem,Tuch,müden,türmen,Flug,einer,Autos,den,hatte,g,keinen,sollten,hatten,Schuhe,verbrauchen,ein,Kinder,Linie,der,Kreditnehmer,dieser,äußeren,hatten,Schule,äußersten,Fernrohr,Teilnehmerinnen,ein,Stücke,Stücke,können,Betten,der,unserer,Blutdruck,hatte,türmen,machte,Stücke,übergaben,Gäste,wurde,wurde,unserer,Tonnen,dieser,stellt,der,verbrauchen,konnten,hat,Schuhe,haben,Formen,den,Uhr,Autos,Gäste,Eislaufbahnen,"Uhr,",dem,ist,übergaben,mussten,waren,meinem,waren,das,g,den,Kinder,Fernrohr,wurde,,,,,,,,,,,,,,,,,,,,,,,11,0,11,0,0,1,1,1,,,,,,,space,0.453655958176,,,,,2017_Jan_24_1056,60.1970830786,spr_backupper,001,Di11,
,trotz,Eimer,die,wegen,wird,Zirkus,uns,jede,"regnete,",Sonne,verbraucht,ein,Eimer,wegen,Feier,mal,eine,Studium,jede,schlug,eine,Rummels,war,gebrauchter,schlug,Bürgermeister,wurde,Teilnehmer,sich,zum,Studie,beider,Bürgermeister,keine,brauner,Umständen,immer,in,in,60,Tropfen,fuhren,101,Feier,sind,Methode,Rand,in,verbraucht,Rand,sahen,wussten,Tropfen,wurden,saftiges,Kleidung,wurden,Tat,Ankunft,kann,keine,sich,mal,saftigen,dem,suchen,die,trotz,Ankunft,gebrauchte,Methode,die,Tat,60,dann,uns,in,die,wurden,Kakao,war,beider,suchen,wurden,die,Essen,genau,das,uns,nur,Studium,nur,Essen,braunen,Kakao,fuhren,sahen,damals,,,,,,,,,,,,,,,,,,,,,,,11,0,11,0,0,2,2,2,,,,,,,space,0.600131988525,,,,,2017_Jan_24_1056,60.1970830786,spr_backupper,001,Di11,
,dem,rote,Masse,dem,mit,werden,durch,Menge,hat,"unterging,",260.000,Hemd,roter,des,gedachte,wieder,große,habe,Menge,"sporadisch,",große,wurde,der,Kleidung,"sporadisch,",beschuldigten,dann,wurden,Berge,Mond,wurde,beteiligten,beschuldigten,Lust,Zucker,können,auf,Dänemark,Größe,Liter,königliches,mit,hält,gedachte,mit,kann,der,Dänemark,260.000,der,wir,überwiegend,königlichen,aus,Fleisch,bei,mit,wissen,stand,schon,Lust,Berge,wieder,Fleischs,Mann,die,Leinwand,des,stand,Kleidung,kann,Masse,wissen,Liter,mit,die,Größe,Erlebnisse,unter,gehören,aus,beteiligter,die,mit,er,kann,die,Auto,durch,kleinere,las,kleinere,kann,Zuckers,gehören,mit,wir,schnell,,,,,,,,,,,,,,,,,,,,,,,11,0,11,0,0,3,3,3,,,,,,,space,0.451940059662,,,,,2017_Jan_24_1056,60.1970830786,spr_backupper,001,Di11,
,bekannten,Farbe,mit,schönen,"reichlichem,",die,Büschel,alten,uns,war,Kilowattstunden,aus,Farbe,schönen,man,viel,Packung,ich,alten,obwohl,Packung,schon,vierte,landen,obschon,die,mit,mit,schmutziger,dauerte,jetzt,Fahrer,die,auf,sind,Neuwahlen,warmem,gelegentlich,36,sprudelndes,Blut,solch,nicht,man,"sämtlichem,",man,Stadt,einen,Kilowattstunden,Stadt,den,"nicht,",Bluts,"wertvollem,",wurden,ausreichendem,"üblichem,",wir,ein,bei,auf,schmutzige,viel,wurden,das,Wohnung,aus,bekannten,ein,landen,man,mit,wir,sprudelnden,"minimalem,",Stimmung,36,bei,"regelmäßigem,",immer,"Japan,",Fahrer,Wohnung,dauerhaftem,"trug,",ich,richtige,dem,Büschel,"Delikte,",ich,"Delikte,",ich,sind,immer,solchen,den,dank,,,,,,,,,,,,,,,,,,,,,,,11,0,11,0,0,4,4,4,,,,,,,space,0.459279060364,,,,,2017_Jan_24_1056,60.1970830786,spr_backupper,001,Di11,
,Skandal,geschleudert.,einem,Wetter,purem,Tiere,frischen,Krams,die,die,elektrischer,feinem,geschleudert.,Wetters,der,Lärm,salziger,mehr,Kram,sie,salzige,immer,Bundespräsident.,im,sie,Störenfriede,"reichem,",zusätzlichem,Wäsche.,ungefähr,"nachgewiesen,",wurden,Störenfriede,noch,auf,vor,weichem,einen,hätten,Trinkwasser.,hat,unzureichenden,am,den,künftigem,eine,liegen,gelegentlichen,elektrische,liegen,roten,was,hat,klassischen,serviert.,monatlichem,harten,um,Glas,minimalem,noch,Wäsche.,Lärm,serviert.,Auto,des,seltenem,Skandals,Glas,im,eine,einem,von,Trinkwassers.,sauberen,ziemlich,würden,"frischem,",kaltem,350,die,wurden,des,feinem,war,leider,"Zeit,",Mann,frisches,derer,mehr,deren,leider,auf,350,unzureichenden,roten,täglichem,,,,,,,,,,,,,,,,,,,,,,,11,0,11,0,0,5,5,5,,,,,,,space,0.416217803955,,,,,2017_Jan_24_1056,60.1970830786,spr_backupper,001,Di11,
,wiedergewählt.,nan,Esslöffel,die,Alkohol,artgerecht,Grases,aus,Stimmung,Flut,Energie.,dichten,nan,die,Soldaten,um,Wurst,als,aus,defekt,Wurst,ruhig,nan,Müll.,defekt,jeden.,goldenen,schwarzem,nan,drei,dass,verschrottet.,jeden.,eine,jeden,Dezember,Untergrund,Besucher.,seiner,nan,den,Helmen,Hauptbahnhof.,Soldaten,Einkommen,große,die,Besucher.,Energie.,die,Planeten,Tupperware,den,Schmuck,nan,Taschengeld,Schaumstoff,die,köstlicher,täglichen,eine,nan,um,nan,mehr,Herrn,dichten,wiedergewählt.,köstlichen,Müll.,große,Esslöffel,den,nan,Kraftstoff,"vermiest,",seiner,kaltem,Abduschen,ml,er,verschrottet.,Herrn,Kunsteis,aus,nichts,um,mehr,Gras,sie,als,sie,nichts,jeden,ml,Helmen,Planet,grünen,,,,,,,,,,,,,,,,,,,,,,,11,0,11,0,0,6,6,6,,,,,,,space,0.483829021454,,,,,2017_Jan_24_1056,60.1970830786,spr_backupper,001,Di11,
,nan,nan,warmem,Wohnung.,verdünnt.,gehalten.,zwängen.,dem,ziemlich,zurückgekehrt.,nan,Stoff,nan,Wohnung.,des,jede,mit,einmal,dem,war.,mit,diskutiert.,nan,nan,war.,nan,Besatz,Kaffee,nan,Tage.,das,nan,nan,Sammlung,Fall,stattfinden.,liegen.,nan,Frau,nan,Boden,zur,nan,des,haftbar.,Menge,Slums.,nan,nan,Slums.,ganz,ist.,Boden,umgearbeitet.,nan,selber,gefertigt.,Probleme,Wein,Einsatz,Sammlung,nan,jede,nan,als,Gantenbein.,Gewebe,nan,Weins,nan,Menge,warmen,Problemen,nan,fahren.,dass,Frau,Saft,gehärtet.,warmer,trug.,nan,Gantenbeins.,eingesprüht.,Japan.,mitbringen.,Nadelhölzer,als,zwängen.,überführt,einmal,überführt,mitbringen.,Fall,warme,zur,ganz,Tee,,,,,,,,,,,,,,,,,,,,,,,11,0,11,0,0,7,7,7,,,,,,,space,0.620108127594,,,,,2017_Jan_24_1056,60.1970830786,spr_backupper,001,Di11,
,,,,,,,,,,,,,,,,,,,,,,,,,,,,,,,,,,,,,,,,,,,,,,,,,,,,,,,,,,,,,,,,,,,,,,,,,,,,,,,,,,,,,,,,,,,,,,,,,,,,,,,,,,,,,,,,,,,,,,,,,11,0,11,0,,,,,,,,,,,,,None,j,2.3329679966,,2017_Jan_24_1056,60.1970830786,spr_backupper,001,Di11,
,Er,Es,Er,Sie,Die,In,Wir,Wir,Dass,Als,Die,Er,Es,Sie,Bei,Man,Ich,In,Wir,Die,Ich,Fernab,Walter,Viele,Die,Außer,Das,Die,Dort,Der,In,Die,Außer,Sie,100,Unter,Jungtiere,Wir,Die,Sie,Nicht,Die,Die,Bei,Manche,Mit,Am,Wir,Die,Am,Im,Die,Nicht,Die,Beträchtliche,Jugendliche,Alle,In,Bei,Ihr,Sie,Dort,Man,Beträchtliche,Wir,Die,Danach,Er,Bei,Viele,Mit,Er,In,Sie,Wir,Es,Die,Sie,Die,In,Die,Die,Die,Die,Die,Außer,Jetzt,Wir,Wir,Es,In,Es,Außer,100,In,Die,Im,Ich,,,,,,,,,,,,,,,,,,,,,,,12,0,12,0,0,0,0,0,,,,,,space,space,0.503051996231,,,,0.68735408783,2017_Jan_24_1056,60.1970830786,spr_backupper,001,Di11,
,wurde,wurden,stellt,verlassen,Lösung,diesem,mussten,haben,es,die,Schule,hat,wurden,verlassen,der,machte,nehme,meinem,haben,Uhr,nehme,des,Scheel,Tonnen,Uhr,dem,Tuch,müden,türmen,Flug,einer,Autos,den,hatte,g,keinen,sollten,hatten,Schuhe,verbrauchen,ein,Kinder,Linie,der,Kreditnehmer,dieser,äußeren,hatten,Schule,äußersten,Fernrohr,Teilnehmerinnen,ein,Stücke,Stücke,können,Betten,der,unserer,Blutdruck,hatte,türmen,machte,Stücke,übergaben,Gäste,wurde,wurde,unserer,Tonnen,dieser,stellt,der,verbrauchen,konnten,hat,Schuhe,haben,Formen,den,Uhr,Autos,Gäste,Eislaufbahnen,"Uhr,",dem,ist,übergaben,mussten,waren,meinem,waren,das,g,den,Kinder,Fernrohr,wurde,,,,,,,,,,,,,,,,,,,,,,,12,0,12,0,0,1,1,1,,,,,,,space,0.425774097443,,,,,2017_Jan_24_1056,60.1970830786,spr_backupper,001,Di11,
,trotz,Eimer,die,wegen,wird,Zirkus,uns,jede,"regnete,",Sonne,verbraucht,ein,Eimer,wegen,Feier,mal,eine,Studium,jede,schlug,eine,Rummels,war,gebrauchter,schlug,Bürgermeister,wurde,Teilnehmer,sich,zum,Studie,beider,Bürgermeister,keine,brauner,Umständen,immer,in,in,60,Tropfen,fuhren,101,Feier,sind,Methode,Rand,in,verbraucht,Rand,sahen,wussten,Tropfen,wurden,saftiges,Kleidung,wurden,Tat,Ankunft,kann,keine,sich,mal,saftigen,dem,suchen,die,trotz,Ankunft,gebrauchte,Methode,die,Tat,60,dann,uns,in,die,wurden,Kakao,war,beider,suchen,wurden,die,Essen,genau,das,uns,nur,Studium,nur,Essen,braunen,Kakao,fuhren,sahen,damals,,,,,,,,,,,,,,,,,,,,,,,12,0,12,0,0,2,2,2,,,,,,,space,0.420201063156,,,,,2017_Jan_24_1056,60.1970830786,spr_backupper,001,Di11,
,dem,rote,Masse,dem,mit,werden,durch,Menge,hat,"unterging,",260.000,Hemd,roter,des,gedachte,wieder,große,habe,Menge,"sporadisch,",große,wurde,der,Kleidung,"sporadisch,",beschuldigten,dann,wurden,Berge,Mond,wurde,beteiligten,beschuldigten,Lust,Zucker,können,auf,Dänemark,Größe,Liter,königliches,mit,hält,gedachte,mit,kann,der,Dänemark,260.000,der,wir,überwiegend,königlichen,aus,Fleisch,bei,mit,wissen,stand,schon,Lust,Berge,wieder,Fleischs,Mann,die,Leinwand,des,stand,Kleidung,kann,Masse,wissen,Liter,mit,die,Größe,Erlebnisse,unter,gehören,aus,beteiligter,die,mit,er,kann,die,Auto,durch,kleinere,las,kleinere,kann,Zuckers,gehören,mit,wir,schnell,,,,,,,,,,,,,,,,,,,,,,,12,0,12,0,0,3,3,3,,,,,,,space,0.421603918076,,,,,2017_Jan_24_1056,60.1970830786,spr_backupper,001,Di11,
,bekannten,Farbe,mit,schönen,"reichlichem,",die,Büschel,alten,uns,war,Kilowattstunden,aus,Farbe,schönen,man,viel,Packung,ich,alten,obwohl,Packung,schon,vierte,landen,obschon,die,mit,mit,schmutziger,dauerte,jetzt,Fahrer,die,auf,sind,Neuwahlen,warmem,gelegentlich,36,sprudelndes,Blut,solch,nicht,man,"sämtlichem,",man,Stadt,einen,Kilowattstunden,Stadt,den,"nicht,",Bluts,"wertvollem,",wurden,ausreichendem,"üblichem,",wir,ein,bei,auf,schmutzige,viel,wurden,das,Wohnung,aus,bekannten,ein,landen,man,mit,wir,sprudelnden,"minimalem,",Stimmung,36,bei,"regelmäßigem,",immer,"Japan,",Fahrer,Wohnung,dauerhaftem,"trug,",ich,richtige,dem,Büschel,"Delikte,",ich,"Delikte,",ich,sind,immer,solchen,den,dank,,,,,,,,,,,,,,,,,,,,,,,12,0,12,0,0,4,4,4,,,,,,,space,0.503216981888,,,,,2017_Jan_24_1056,60.1970830786,spr_backupper,001,Di11,
,Skandal,geschleudert.,einem,Wetter,purem,Tiere,frischen,Krams,die,die,elektrischer,feinem,geschleudert.,Wetters,der,Lärm,salziger,mehr,Kram,sie,salzige,immer,Bundespräsident.,im,sie,Störenfriede,"reichem,",zusätzlichem,Wäsche.,ungefähr,"nachgewiesen,",wurden,Störenfriede,noch,auf,vor,weichem,einen,hätten,Trinkwasser.,hat,unzureichenden,am,den,künftigem,eine,liegen,gelegentlichen,elektrische,liegen,roten,was,hat,klassischen,serviert.,monatlichem,harten,um,Glas,minimalem,noch,Wäsche.,Lärm,serviert.,Auto,des,seltenem,Skandals,Glas,im,eine,einem,von,Trinkwassers.,sauberen,ziemlich,würden,"frischem,",kaltem,350,die,wurden,des,feinem,war,leider,"Zeit,",Mann,frisches,derer,mehr,deren,leider,auf,350,unzureichenden,roten,täglichem,,,,,,,,,,,,,,,,,,,,,,,12,0,12,0,0,5,5,5,,,,,,,space,0.503237962723,,,,,2017_Jan_24_1056,60.1970830786,spr_backupper,001,Di11,
,wiedergewählt.,nan,Esslöffel,die,Alkohol,artgerecht,Grases,aus,Stimmung,Flut,Energie.,dichten,nan,die,Soldaten,um,Wurst,als,aus,defekt,Wurst,ruhig,nan,Müll.,defekt,jeden.,goldenen,schwarzem,nan,drei,dass,verschrottet.,jeden.,eine,jeden,Dezember,Untergrund,Besucher.,seiner,nan,den,Helmen,Hauptbahnhof.,Soldaten,Einkommen,große,die,Besucher.,Energie.,die,Planeten,Tupperware,den,Schmuck,nan,Taschengeld,Schaumstoff,die,köstlicher,täglichen,eine,nan,um,nan,mehr,Herrn,dichten,wiedergewählt.,köstlichen,Müll.,große,Esslöffel,den,nan,Kraftstoff,"vermiest,",seiner,kaltem,Abduschen,ml,er,verschrottet.,Herrn,Kunsteis,aus,nichts,um,mehr,Gras,sie,als,sie,nichts,jeden,ml,Helmen,Planet,grünen,,,,,,,,,,,,,,,,,,,,,,,12,0,12,0,0,6,6,6,,,,,,,space,0.553877830505,,,,,2017_Jan_24_1056,60.1970830786,spr_backupper,001,Di11,
,nan,nan,warmem,Wohnung.,verdünnt.,gehalten.,zwängen.,dem,ziemlich,zurückgekehrt.,nan,Stoff,nan,Wohnung.,des,jede,mit,einmal,dem,war.,mit,diskutiert.,nan,nan,war.,nan,Besatz,Kaffee,nan,Tage.,das,nan,nan,Sammlung,Fall,stattfinden.,liegen.,nan,Frau,nan,Boden,zur,nan,des,haftbar.,Menge,Slums.,nan,nan,Slums.,ganz,ist.,Boden,umgearbeitet.,nan,selber,gefertigt.,Probleme,Wein,Einsatz,Sammlung,nan,jede,nan,als,Gantenbein.,Gewebe,nan,Weins,nan,Menge,warmen,Problemen,nan,fahren.,dass,Frau,Saft,gehärtet.,warmer,trug.,nan,Gantenbeins.,eingesprüht.,Japan.,mitbringen.,Nadelhölzer,als,zwängen.,überführt,einmal,überführt,mitbringen.,Fall,warme,zur,ganz,Tee,,,,,,,,,,,,,,,,,,,,,,,12,0,12,0,0,7,7,7,,,,,,,space,0.519335031509,,,,,2017_Jan_24_1056,60.1970830786,spr_backupper,001,Di11,
,nan,nan,Honig,nan,nan,nan,nan,Haus,vermiest.,nan,nan,gefertigt.,nan,nan,zweiten,Menge,an,Rilke,Haus,nan,an,nan,nan,nan,nan,nan,rekonstruiert.,wiederbelebt.,nan,nan,Medikament,nan,nan,dumme,genug.,nan,nan,nan,gepasst.,nan,berührt.,Schule.,nan,zweiten,nan,dunkler,nan,nan,nan,nan,deutlich.,nan,berührt.,nan,nan,kaufen.,nan,im,schon,sinken.,dummer,nan,Menge,nan,gerne.,nan,wiederhergestellt.,nan,schon,nan,dunkle,Honigs,im,nan,nan,es,gepasst,besprochen.,nan,Milch.,nan,nan,nan,nan,nan,nan,umzusetzen.,gerne.,nan,wurden.,Rilke.,wurden.,nan,genug.,Milch.,Schule.,deutlich.,wieder,,,,,,,,,,,,,,,,,,,,,,,12,0,12,0,0,8,8,8,,,,,,,space,0.437819004059,,,,,2017_Jan_24_1056,60.1970830786,spr_backupper,001,Di11,
,nan,nan,her.,nan,nan,nan,nan,geschafft.,nan,nan,nan,nan,nan,nan,Weltkriegs.,heißer,den,gelesen.,geschafft.,nan,den,nan,nan,nan,nan,nan,nan,nan,nan,nan,nicht,nan,nan,Sprüche.,nan,nan,nan,nan,nan,nan,nan,nan,nan,Weltkriegs.,nan,Materie,nan,nan,nan,nan,nan,nan,nan,nan,nan,nan,nan,Landkreis.,auf,nan,Sprüche.,nan,heiße,nan,nan,nan,nan,nan,auf,nan,Materie,her.,Landkreis.,nan,nan,regnete.,haben.,nan,nan,nan,nan,nan,nan,nan,nan,nan,nan,nan,nan,nan,nan,nan,nan,nan,nan,nan,nan,fit.,,,,,,,,,,,,,,,,,,,,,,,12,0,12,0,0,9,9,9,,,,,,,space,0.392773866653,,,,,2017_Jan_24_1056,60.1970830786,spr_backupper,001,Di11,
,nan,nan,nan,nan,nan,nan,nan,nan,nan,nan,nan,nan,nan,nan,nan,Luft.,See.,nan,nan,nan,See.,nan,nan,nan,nan,nan,nan,nan,nan,nan,wirkt.,nan,nan,nan,nan,nan,nan,nan,nan,nan,nan,nan,nan,nan,nan,erzeugen.,nan,nan,nan,nan,nan,nan,nan,nan,nan,nan,nan,nan,dem,nan,nan,nan,Luft.,nan,nan,nan,nan,nan,dem,nan,erzeugen.,nan,nan,nan,nan,nan,nan,nan,nan,nan,nan,nan,nan,nan,nan,nan,nan,nan,nan,nan,nan,nan,nan,nan,nan,nan,nan,nan,,,,,,,,,,,,,,,,,,,,,,,12,0,12,0,0,10,10,10,,,,,,,space,0.446314811707,,,,,2017_Jan_24_1056,60.1970830786,spr_backupper,001,Di11,
,,,,,,,,,,,,,,,,,,,,,,,,,,,,,,,,,,,,,,,,,,,,,,,,,,,,,,,,,,,,,,,,,,,,,,,,,,,,,,,,,,,,,,,,,,,,,,,,,,,,,,,,,,,,,,,,,,,,,,,,,12,0,12,0,,,,,,,,,,,,,None,n,4.84771203995,,2017_Jan_24_1056,60.1970830786,spr_backupper,001,Di11,
,Er,Es,Er,Sie,Die,In,Wir,Wir,Dass,Als,Die,Er,Es,Sie,Bei,Man,Ich,In,Wir,Die,Ich,Fernab,Walter,Viele,Die,Außer,Das,Die,Dort,Der,In,Die,Außer,Sie,100,Unter,Jungtiere,Wir,Die,Sie,Nicht,Die,Die,Bei,Manche,Mit,Am,Wir,Die,Am,Im,Die,Nicht,Die,Beträchtliche,Jugendliche,Alle,In,Bei,Ihr,Sie,Dort,Man,Beträchtliche,Wir,Die,Danach,Er,Bei,Viele,Mit,Er,In,Sie,Wir,Es,Die,Sie,Die,In,Die,Die,Die,Die,Die,Außer,Jetzt,Wir,Wir,Es,In,Es,Außer,100,In,Die,Im,Ich,,,,,,,,,,,,,,,,,,,,,,,13,0,13,0,0,0,0,0,,,,,,space,space,0.621670007706,,,,0.737869024277,2017_Jan_24_1056,60.1970830786,spr_backupper,001,Di11,
,wurde,wurden,stellt,verlassen,Lösung,diesem,mussten,haben,es,die,Schule,hat,wurden,verlassen,der,machte,nehme,meinem,haben,Uhr,nehme,des,Scheel,Tonnen,Uhr,dem,Tuch,müden,türmen,Flug,einer,Autos,den,hatte,g,keinen,sollten,hatten,Schuhe,verbrauchen,ein,Kinder,Linie,der,Kreditnehmer,dieser,äußeren,hatten,Schule,äußersten,Fernrohr,Teilnehmerinnen,ein,Stücke,Stücke,können,Betten,der,unserer,Blutdruck,hatte,türmen,machte,Stücke,übergaben,Gäste,wurde,wurde,unserer,Tonnen,dieser,stellt,der,verbrauchen,konnten,hat,Schuhe,haben,Formen,den,Uhr,Autos,Gäste,Eislaufbahnen,"Uhr,",dem,ist,übergaben,mussten,waren,meinem,waren,das,g,den,Kinder,Fernrohr,wurde,,,,,,,,,,,,,,,,,,,,,,,13,0,13,0,0,1,1,1,,,,,,,space,0.396587133408,,,,,2017_Jan_24_1056,60.1970830786,spr_backupper,001,Di11,
,trotz,Eimer,die,wegen,wird,Zirkus,uns,jede,"regnete,",Sonne,verbraucht,ein,Eimer,wegen,Feier,mal,eine,Studium,jede,schlug,eine,Rummels,war,gebrauchter,schlug,Bürgermeister,wurde,Teilnehmer,sich,zum,Studie,beider,Bürgermeister,keine,brauner,Umständen,immer,in,in,60,Tropfen,fuhren,101,Feier,sind,Methode,Rand,in,verbraucht,Rand,sahen,wussten,Tropfen,wurden,saftiges,Kleidung,wurden,Tat,Ankunft,kann,keine,sich,mal,saftigen,dem,suchen,die,trotz,Ankunft,gebrauchte,Methode,die,Tat,60,dann,uns,in,die,wurden,Kakao,war,beider,suchen,wurden,die,Essen,genau,das,uns,nur,Studium,nur,Essen,braunen,Kakao,fuhren,sahen,damals,,,,,,,,,,,,,,,,,,,,,,,13,0,13,0,0,2,2,2,,,,,,,space,0.395299911499,,,,,2017_Jan_24_1056,60.1970830786,spr_backupper,001,Di11,
,dem,rote,Masse,dem,mit,werden,durch,Menge,hat,"unterging,",260.000,Hemd,roter,des,gedachte,wieder,große,habe,Menge,"sporadisch,",große,wurde,der,Kleidung,"sporadisch,",beschuldigten,dann,wurden,Berge,Mond,wurde,beteiligten,beschuldigten,Lust,Zucker,können,auf,Dänemark,Größe,Liter,königliches,mit,hält,gedachte,mit,kann,der,Dänemark,260.000,der,wir,überwiegend,königlichen,aus,Fleisch,bei,mit,wissen,stand,schon,Lust,Berge,wieder,Fleischs,Mann,die,Leinwand,des,stand,Kleidung,kann,Masse,wissen,Liter,mit,die,Größe,Erlebnisse,unter,gehören,aus,beteiligter,die,mit,er,kann,die,Auto,durch,kleinere,las,kleinere,kann,Zuckers,gehören,mit,wir,schnell,,,,,,,,,,,,,,,,,,,,,,,13,0,13,0,0,3,3,3,,,,,,,space,0.453955888748,,,,,2017_Jan_24_1056,60.1970830786,spr_backupper,001,Di11,
,bekannten,Farbe,mit,schönen,"reichlichem,",die,Büschel,alten,uns,war,Kilowattstunden,aus,Farbe,schönen,man,viel,Packung,ich,alten,obwohl,Packung,schon,vierte,landen,obschon,die,mit,mit,schmutziger,dauerte,jetzt,Fahrer,die,auf,sind,Neuwahlen,warmem,gelegentlich,36,sprudelndes,Blut,solch,nicht,man,"sämtlichem,",man,Stadt,einen,Kilowattstunden,Stadt,den,"nicht,",Bluts,"wertvollem,",wurden,ausreichendem,"üblichem,",wir,ein,bei,auf,schmutzige,viel,wurden,das,Wohnung,aus,bekannten,ein,landen,man,mit,wir,sprudelnden,"minimalem,",Stimmung,36,bei,"regelmäßigem,",immer,"Japan,",Fahrer,Wohnung,dauerhaftem,"trug,",ich,richtige,dem,Büschel,"Delikte,",ich,"Delikte,",ich,sind,immer,solchen,den,dank,,,,,,,,,,,,,,,,,,,,,,,13,0,13,0,0,4,4,4,,,,,,,space,0.481503009796,,,,,2017_Jan_24_1056,60.1970830786,spr_backupper,001,Di11,
,Skandal,geschleudert.,einem,Wetter,purem,Tiere,frischen,Krams,die,die,elektrischer,feinem,geschleudert.,Wetters,der,Lärm,salziger,mehr,Kram,sie,salzige,immer,Bundespräsident.,im,sie,Störenfriede,"reichem,",zusätzlichem,Wäsche.,ungefähr,"nachgewiesen,",wurden,Störenfriede,noch,auf,vor,weichem,einen,hätten,Trinkwasser.,hat,unzureichenden,am,den,künftigem,eine,liegen,gelegentlichen,elektrische,liegen,roten,was,hat,klassischen,serviert.,monatlichem,harten,um,Glas,minimalem,noch,Wäsche.,Lärm,serviert.,Auto,des,seltenem,Skandals,Glas,im,eine,einem,von,Trinkwassers.,sauberen,ziemlich,würden,"frischem,",kaltem,350,die,wurden,des,feinem,war,leider,"Zeit,",Mann,frisches,derer,mehr,deren,leider,auf,350,unzureichenden,roten,täglichem,,,,,,,,,,,,,,,,,,,,,,,13,0,13,0,0,5,5,5,,,,,,,space,0.57731795311,,,,,2017_Jan_24_1056,60.1970830786,spr_backupper,001,Di11,
,wiedergewählt.,nan,Esslöffel,die,Alkohol,artgerecht,Grases,aus,Stimmung,Flut,Energie.,dichten,nan,die,Soldaten,um,Wurst,als,aus,defekt,Wurst,ruhig,nan,Müll.,defekt,jeden.,goldenen,schwarzem,nan,drei,dass,verschrottet.,jeden.,eine,jeden,Dezember,Untergrund,Besucher.,seiner,nan,den,Helmen,Hauptbahnhof.,Soldaten,Einkommen,große,die,Besucher.,Energie.,die,Planeten,Tupperware,den,Schmuck,nan,Taschengeld,Schaumstoff,die,köstlicher,täglichen,eine,nan,um,nan,mehr,Herrn,dichten,wiedergewählt.,köstlichen,Müll.,große,Esslöffel,den,nan,Kraftstoff,"vermiest,",seiner,kaltem,Abduschen,ml,er,verschrottet.,Herrn,Kunsteis,aus,nichts,um,mehr,Gras,sie,als,sie,nichts,jeden,ml,Helmen,Planet,grünen,,,,,,,,,,,,,,,,,,,,,,,13,0,13,0,0,6,6,6,,,,,,,space,0.476480960846,,,,,2017_Jan_24_1056,60.1970830786,spr_backupper,001,Di11,
,nan,nan,warmem,Wohnung.,verdünnt.,gehalten.,zwängen.,dem,ziemlich,zurückgekehrt.,nan,Stoff,nan,Wohnung.,des,jede,mit,einmal,dem,war.,mit,diskutiert.,nan,nan,war.,nan,Besatz,Kaffee,nan,Tage.,das,nan,nan,Sammlung,Fall,stattfinden.,liegen.,nan,Frau,nan,Boden,zur,nan,des,haftbar.,Menge,Slums.,nan,nan,Slums.,ganz,ist.,Boden,umgearbeitet.,nan,selber,gefertigt.,Probleme,Wein,Einsatz,Sammlung,nan,jede,nan,als,Gantenbein.,Gewebe,nan,Weins,nan,Menge,warmen,Problemen,nan,fahren.,dass,Frau,Saft,gehärtet.,warmer,trug.,nan,Gantenbeins.,eingesprüht.,Japan.,mitbringen.,Nadelhölzer,als,zwängen.,überführt,einmal,überführt,mitbringen.,Fall,warme,zur,ganz,Tee,,,,,,,,,,,,,,,,,,,,,,,13,0,13,0,0,7,7,7,,,,,,,space,0.426240921021,,,,,2017_Jan_24_1056,60.1970830786,spr_backupper,001,Di11,
,nan,nan,Honig,nan,nan,nan,nan,Haus,vermiest.,nan,nan,gefertigt.,nan,nan,zweiten,Menge,an,Rilke,Haus,nan,an,nan,nan,nan,nan,nan,rekonstruiert.,wiederbelebt.,nan,nan,Medikament,nan,nan,dumme,genug.,nan,nan,nan,gepasst.,nan,berührt.,Schule.,nan,zweiten,nan,dunkler,nan,nan,nan,nan,deutlich.,nan,berührt.,nan,nan,kaufen.,nan,im,schon,sinken.,dummer,nan,Menge,nan,gerne.,nan,wiederhergestellt.,nan,schon,nan,dunkle,Honigs,im,nan,nan,es,gepasst,besprochen.,nan,Milch.,nan,nan,nan,nan,nan,nan,umzusetzen.,gerne.,nan,wurden.,Rilke.,wurden.,nan,genug.,Milch.,Schule.,deutlich.,wieder,,,,,,,,,,,,,,,,,,,,,,,13,0,13,0,0,8,8,8,,,,,,,space,0.511900901794,,,,,2017_Jan_24_1056,60.1970830786,spr_backupper,001,Di11,
,nan,nan,her.,nan,nan,nan,nan,geschafft.,nan,nan,nan,nan,nan,nan,Weltkriegs.,heißer,den,gelesen.,geschafft.,nan,den,nan,nan,nan,nan,nan,nan,nan,nan,nan,nicht,nan,nan,Sprüche.,nan,nan,nan,nan,nan,nan,nan,nan,nan,Weltkriegs.,nan,Materie,nan,nan,nan,nan,nan,nan,nan,nan,nan,nan,nan,Landkreis.,auf,nan,Sprüche.,nan,heiße,nan,nan,nan,nan,nan,auf,nan,Materie,her.,Landkreis.,nan,nan,regnete.,haben.,nan,nan,nan,nan,nan,nan,nan,nan,nan,nan,nan,nan,nan,nan,nan,nan,nan,nan,nan,nan,fit.,,,,,,,,,,,,,,,,,,,,,,,13,0,13,0,0,9,9,9,,,,,,,space,0.526952981949,,,,,2017_Jan_24_1056,60.1970830786,spr_backupper,001,Di11,
,,,,,,,,,,,,,,,,,,,,,,,,,,,,,,,,,,,,,,,,,,,,,,,,,,,,,,,,,,,,,,,,,,,,,,,,,,,,,,,,,,,,,,,,,,,,,,,,,,,,,,,,,,,,,,,,,,,,,,,,,13,0,13,0,,,,,,,,,,,,,None,n,6.26697897911,,2017_Jan_24_1056,60.1970830786,spr_backupper,001,Di11,
,Er,Es,Er,Sie,Die,In,Wir,Wir,Dass,Als,Die,Er,Es,Sie,Bei,Man,Ich,In,Wir,Die,Ich,Fernab,Walter,Viele,Die,Außer,Das,Die,Dort,Der,In,Die,Außer,Sie,100,Unter,Jungtiere,Wir,Die,Sie,Nicht,Die,Die,Bei,Manche,Mit,Am,Wir,Die,Am,Im,Die,Nicht,Die,Beträchtliche,Jugendliche,Alle,In,Bei,Ihr,Sie,Dort,Man,Beträchtliche,Wir,Die,Danach,Er,Bei,Viele,Mit,Er,In,Sie,Wir,Es,Die,Sie,Die,In,Die,Die,Die,Die,Die,Außer,Jetzt,Wir,Wir,Es,In,Es,Außer,100,In,Die,Im,Ich,,,,,,,,,,,,,,,,,,,,,,,14,0,14,0,0,0,0,0,,,,,,space,space,0.489684104919,,,,0.420168876648,2017_Jan_24_1056,60.1970830786,spr_backupper,001,Di11,
,wurde,wurden,stellt,verlassen,Lösung,diesem,mussten,haben,es,die,Schule,hat,wurden,verlassen,der,machte,nehme,meinem,haben,Uhr,nehme,des,Scheel,Tonnen,Uhr,dem,Tuch,müden,türmen,Flug,einer,Autos,den,hatte,g,keinen,sollten,hatten,Schuhe,verbrauchen,ein,Kinder,Linie,der,Kreditnehmer,dieser,äußeren,hatten,Schule,äußersten,Fernrohr,Teilnehmerinnen,ein,Stücke,Stücke,können,Betten,der,unserer,Blutdruck,hatte,türmen,machte,Stücke,übergaben,Gäste,wurde,wurde,unserer,Tonnen,dieser,stellt,der,verbrauchen,konnten,hat,Schuhe,haben,Formen,den,Uhr,Autos,Gäste,Eislaufbahnen,"Uhr,",dem,ist,übergaben,mussten,waren,meinem,waren,das,g,den,Kinder,Fernrohr,wurde,,,,,,,,,,,,,,,,,,,,,,,14,0,14,0,0,1,1,1,,,,,,,space,0.439337015152,,,,,2017_Jan_24_1056,60.1970830786,spr_backupper,001,Di11,
,trotz,Eimer,die,wegen,wird,Zirkus,uns,jede,"regnete,",Sonne,verbraucht,ein,Eimer,wegen,Feier,mal,eine,Studium,jede,schlug,eine,Rummels,war,gebrauchter,schlug,Bürgermeister,wurde,Teilnehmer,sich,zum,Studie,beider,Bürgermeister,keine,brauner,Umständen,immer,in,in,60,Tropfen,fuhren,101,Feier,sind,Methode,Rand,in,verbraucht,Rand,sahen,wussten,Tropfen,wurden,saftiges,Kleidung,wurden,Tat,Ankunft,kann,keine,sich,mal,saftigen,dem,suchen,die,trotz,Ankunft,gebrauchte,Methode,die,Tat,60,dann,uns,in,die,wurden,Kakao,war,beider,suchen,wurden,die,Essen,genau,das,uns,nur,Studium,nur,Essen,braunen,Kakao,fuhren,sahen,damals,,,,,,,,,,,,,,,,,,,,,,,14,0,14,0,0,2,2,2,,,,,,,space,0.436640977859,,,,,2017_Jan_24_1056,60.1970830786,spr_backupper,001,Di11,
,dem,rote,Masse,dem,mit,werden,durch,Menge,hat,"unterging,",260.000,Hemd,roter,des,gedachte,wieder,große,habe,Menge,"sporadisch,",große,wurde,der,Kleidung,"sporadisch,",beschuldigten,dann,wurden,Berge,Mond,wurde,beteiligten,beschuldigten,Lust,Zucker,können,auf,Dänemark,Größe,Liter,königliches,mit,hält,gedachte,mit,kann,der,Dänemark,260.000,der,wir,überwiegend,königlichen,aus,Fleisch,bei,mit,wissen,stand,schon,Lust,Berge,wieder,Fleischs,Mann,die,Leinwand,des,stand,Kleidung,kann,Masse,wissen,Liter,mit,die,Größe,Erlebnisse,unter,gehören,aus,beteiligter,die,mit,er,kann,die,Auto,durch,kleinere,las,kleinere,kann,Zuckers,gehören,mit,wir,schnell,,,,,,,,,,,,,,,,,,,,,,,14,0,14,0,0,3,3,3,,,,,,,space,0.477363109589,,,,,2017_Jan_24_1056,60.1970830786,spr_backupper,001,Di11,
,bekannten,Farbe,mit,schönen,"reichlichem,",die,Büschel,alten,uns,war,Kilowattstunden,aus,Farbe,schönen,man,viel,Packung,ich,alten,obwohl,Packung,schon,vierte,landen,obschon,die,mit,mit,schmutziger,dauerte,jetzt,Fahrer,die,auf,sind,Neuwahlen,warmem,gelegentlich,36,sprudelndes,Blut,solch,nicht,man,"sämtlichem,",man,Stadt,einen,Kilowattstunden,Stadt,den,"nicht,",Bluts,"wertvollem,",wurden,ausreichendem,"üblichem,",wir,ein,bei,auf,schmutzige,viel,wurden,das,Wohnung,aus,bekannten,ein,landen,man,mit,wir,sprudelnden,"minimalem,",Stimmung,36,bei,"regelmäßigem,",immer,"Japan,",Fahrer,Wohnung,dauerhaftem,"trug,",ich,richtige,dem,Büschel,"Delikte,",ich,"Delikte,",ich,sind,immer,solchen,den,dank,,,,,,,,,,,,,,,,,,,,,,,14,0,14,0,0,4,4,4,,,,,,,space,0.440459012985,,,,,2017_Jan_24_1056,60.1970830786,spr_backupper,001,Di11,
