text,sent48,sent9,sent8,sent15,sent3,sent2,sent1,sent14,sent7,sent6,sent5,sent4,sent57,sent56,sent55,sent54,sent53,sent52,sent51,sent50,sent13,sent12,sent11,sent10,sent17,sent16,sent59,sent58,sent93,sent92,sent91,sent90,sent97,sent96,sent95,sent94,sent98,sent22,sent23,sent20,sent21,sent26,sent27,sent24,sent25,sent28,sent29,sent68,sent69,sent66,sent67,sent64,sent65,sent62,sent63,sent60,sent61,sent31,sent30,sent33,sent32,sent35,sent34,sent37,sent36,sent39,sent38,sent79,sent78,sent75,sent74,sent77,sent76,sent71,sent70,sent73,sent72,sent19,sent49,sent18,sent44,sent45,sent84,sent85,sent86,sent87,sent80,sent81,sent82,sent83,sent40,sent41,sent42,sent43,sent88,sent89,sent46,sent47,intros.thisRepN,intros.thisTrialN,intros.thisN,intros.thisIndex,trials.thisRepN,trials.thisTrialN,trials.thisN,trials.thisIndex,testWords.thisRepN,testWords.thisTrialN,testWords.thisN,testWords.thisIndex,test1,test3,test2,test5,test4,test7,test6,test9,test8,test10,realTrials.thisRepN,realTrials.thisTrialN,realTrials.thisN,realTrials.thisIndex,words.thisRepN,words.thisTrialN,words.thisN,words.thisIndex,key_resp_3.keys,key_resp_3.rt,key_resp_8.keys,key_resp_8.rt,key_resp_10.keys,key_resp_10.rt,key_resp_6.keys,wordRead.keys,wordRead.rt,key_resp_5.keys,key_resp_5.rt,questAnswer.keys,questAnswer.rt,key_resp_6.rt,date,frameRate,expName,session,participant,
"Vielen Dank, dass Sie an diesem Experiment teilnehmen. Vor dem eigentlichen Experiment sehen Sie nun zuerst eine kurze Erläuterung, und Sie absolvieren ein kurze Übungsphase.

Das Experiment dauert insgesamt nicht mehr als 45 Minuten.",,,,,,,,,,,,,,,,,,,,,,,,,,,,,,,,,,,,,,,,,,,,,,,,,,,,,,,,,,,,,,,,,,,,,,,,,,,,,,,,,,,,,,,,,,,,,,,,,,,0,0,0,0,,,,,,,,,,,,,,,,,,,,,,,,,,,,,,,,,,,,,,,,,2017_Jan_24_1200,59.4145386499,spr_backupper,001,Di12,
"In diesem Experiment lesen Sie deutsche Sätze, indem Sie sich von Wort zu Wort mit der Leertaste durch den Satz klicken.",,,,,,,,,,,,,,,,,,,,,,,,,,,,,,,,,,,,,,,,,,,,,,,,,,,,,,,,,,,,,,,,,,,,,,,,,,,,,,,,,,,,,,,,,,,,,,,,,,,0,1,1,1,,,,,,,,,,,,,,,,,,,,,,,,,,,,,,,,,,,,,,,,,2017_Jan_24_1200,59.4145386499,spr_backupper,001,Di12,
"Sie sehen dabei immer nur das aktuelle Wort. Die Lesegeschwindigkeit bestimmen Sie vollständig selber. Vor jedem Satz sehen Sie in der Bildschirmmitte für zwei Sekunden ein + an der Stelle, an der dann die Wörter erscheinen.",,,,,,,,,,,,,,,,,,,,,,,,,,,,,,,,,,,,,,,,,,,,,,,,,,,,,,,,,,,,,,,,,,,,,,,,,,,,,,,,,,,,,,,,,,,,,,,,,,,0,2,2,2,,,,,,,,,,,,,,,,,,,,,,,,,,,,,,,,,,,,,,,,,2017_Jan_24_1200,59.4145386499,spr_backupper,001,Di12,
"Nach jedem Satz wird Ihnen eine Ja/Nein-Verständnisfrage zum zuvor gelesenen Satz gestellt, die Sie mit der J-Taste für "Ja" und der N-Taste für "Nein" beantworten. Antworten Sie möglichst spontan und ohne lange Nachzudenken.",,,,,,,,,,,,,,,,,,,,,,,,,,,,,,,,,,,,,,,,,,,,,,,,,,,,,,,,,,,,,,,,,,,,,,,,,,,,,,,,,,,,,,,,,,,,,,,,,,,0,3,3,3,,,,,,,,,,,,,,,,,,,,,,,,,,,,,,,,,,,,,,,,,2017_Jan_24_1200,59.4145386499,spr_backupper,001,Di12,
"Unterbrechen Sie das Experiment bitte auf keinen Fall, stellen Sie den ExperimentatorInnen nach dem Experimentbeginn keine Fragen, und lassen Sie sich nicht durch Umgebungsgeräusche ablenken.",,,,,,,,,,,,,,,,,,,,,,,,,,,,,,,,,,,,,,,,,,,,,,,,,,,,,,,,,,,,,,,,,,,,,,,,,,,,,,,,,,,,,,,,,,,,,,,,,,,0,4,4,4,,,,,,,,,,,,,,,,,,,,,,,,,,,,,,,,,,,,,,,,,2017_Jan_24_1200,59.4145386499,spr_backupper,001,Di12,
"Im nächsten Schritt beantworten Sie bitte eine Frage zu Ihren Deutschkenntnissen. Danach beginnt eine Übungseinheit, mit der Sie sich an die Art der Durchführung dieses Experiments gewöhnen können.",,,,,,,,,,,,,,,,,,,,,,,,,,,,,,,,,,,,,,,,,,,,,,,,,,,,,,,,,,,,,,,,,,,,,,,,,,,,,,,,,,,,,,,,,,,,,,,,,,,0,5,5,5,,,,,,,,,,,,,,,,,,,,,,,,,,,,,,,,,,,,,,,,,2017_Jan_24_1200,59.4145386499,spr_backupper,001,Di12,
,,,,,,,,,,,,,,,,,,,,,,,,,,,,,,,,,,,,,,,,,,,,,,,,,,,,,,,,,,,,,,,,,,,,,,,,,,,,,,,,,,,,,,,,,,,,,,,,,,,,,,,,,,,,,,,,,,,,,,,,,,,,,,,,,j,6.2720580101,,,,,,,,,,,,,2017_Jan_24_1200,59.4145386499,spr_backupper,001,Di12,
,,,,,,,,,,,,,,,,,,,,,,,,,,,,,,,,,,,,,,,,,,,,,,,,,,,,,,,,,,,,,,,,,,,,,,,,,,,,,,,,,,,,,,,,,,,,,,,,,,,,,,,0,0,0,0,,,,,,,,,,,,,,,,,,,,,,,,,space,0.955497980118,,,,,,,,,,,2017_Jan_24_1200,59.4145386499,spr_backupper,001,Di12,
,,,,,,,,,,,,,,,,,,,,,,,,,,,,,,,,,,,,,,,,,,,,,,,,,,,,,,,,,,,,,,,,,,,,,,,,,,,,,,,,,,,,,,,,,,,,,,,,,,,,,,,1,0,1,0,,,,,,,,,,,,,,,,,,,,,,,,,space,0.720956087112,,,,,,,,,,,2017_Jan_24_1200,59.4145386499,spr_backupper,001,Di12,
,,,,,,,,,,,,,,,,,,,,,,,,,,,,,,,,,,,,,,,,,,,,,,,,,,,,,,,,,,,,,,,,,,,,,,,,,,,,,,,,,,,,,,,,,,,,,,,,,,,,,,,2,0,2,0,,,,,,,,,,,,,,,,,,,,,,,,,space,0.487112998962,,,,,,,,,,,2017_Jan_24_1200,59.4145386499,spr_backupper,001,Di12,
,,,,,,,,,,,,,,,,,,,,,,,,,,,,,,,,,,,,,,,,,,,,,,,,,,,,,,,,,,,,,,,,,,,,,,,,,,,,,,,,,,,,,,,,,,,,,,,,,,,,,,,3,0,3,0,,,,,,,,,,,,,,,,,,,,,,,,,space,0.41880607605,,,,,,,,,,,2017_Jan_24_1200,59.4145386499,spr_backupper,001,Di12,
,,,,,,,,,,,,,,,,,,,,,,,,,,,,,,,,,,,,,,,,,,,,,,,,,,,,,,,,,,,,,,,,,,,,,,,,,,,,,,,,,,,,,,,,,,,,,,,,,,,,,,,4,0,4,0,,,,,,,,,,,,,,,,,,,,,,,,,space,0.437534093857,,,,,,,,,,,2017_Jan_24_1200,59.4145386499,spr_backupper,001,Di12,
,,,,,,,,,,,,,,,,,,,,,,,,,,,,,,,,,,,,,,,,,,,,,,,,,,,,,,,,,,,,,,,,,,,,,,,,,,,,,,,,,,,,,,,,,,,,,,,,,,,,,,,5,0,5,0,,,,,,,,,,,,,,,,,,,,,,,,,space,0.670749902725,,,,,,,,,,,2017_Jan_24_1200,59.4145386499,spr_backupper,001,Di12,
,,,,,,,,,,,,,,,,,,,,,,,,,,,,,,,,,,,,,,,,,,,,,,,,,,,,,,,,,,,,,,,,,,,,,,,,,,,,,,,,,,,,,,,,,,,,,,,,,,,,,,,6,0,6,0,,,,,,,,,,,,,,,,,,,,,,,,,space,0.470343112946,,,,,,,,,,,2017_Jan_24_1200,59.4145386499,spr_backupper,001,Di12,
,,,,,,,,,,,,,,,,,,,,,,,,,,,,,,,,,,,,,,,,,,,,,,,,,,,,,,,,,,,,,,,,,,,,,,,,,,,,,,,,,,,,,,,,,,,,,,,,,,,,,,,7,0,7,0,,,,,,,,,,,,,,,,,,,,,,,,,space,0.386142015457,,,,,,,,,,,2017_Jan_24_1200,59.4145386499,spr_backupper,001,Di12,
,,,,,,,,,,,,,,,,,,,,,,,,,,,,,,,,,,,,,,,,,,,,,,,,,,,,,,,,,,,,,,,,,,,,,,,,,,,,,,,,,,,,,,,,,,,,,,,,,,,,,,,8,0,8,0,,,,,,,,,,,,,,,,,,,,,,,,,space,0.436860084534,,,,,,,,,,,2017_Jan_24_1200,59.4145386499,spr_backupper,001,Di12,
,,,,,,,,,,,,,,,,,,,,,,,,,,,,,,,,,,,,,,,,,,,,,,,,,,,,,,,,,,,,,,,,,,,,,,,,,,,,,,,,,,,,,,,,,,,,,,,,,,,,,,,9,0,9,0,,,,,,,,,,,,,,,,,,,,,,,,,space,1.17503094673,,,,,,,,,,,2017_Jan_24_1200,59.4145386499,spr_backupper,001,Di12,
,,,,,,,,,,,,,,,,,,,,,,,,,,,,,,,,,,,,,,,,,,,,,,,,,,,,,,,,,,,,,,,,,,,,,,,,,,,,,,,,,,,,,,,,,,,,,,,,,,,,,,,,,,,,,,,,,,,,,,,,,,,,,,,,,,,,,space,2.7505440712,,,,,,,,,2017_Jan_24_1200,59.4145386499,spr_backupper,001,Di12,
,Jugendliche,Wir,Bei,Es,Man,Wir,100,Beträchtliche,Die,Bei,Das,Die,Sie,In,Die,Außer,Die,Viele,Außer,Ich,Es,Unter,Ich,Die,In,Wir,Danach,Die,Die,Es,Wir,Dass,Mit,Die,Wir,Sie,Die,Die,Mit,Außer,Wir,Die,Viele,Alle,Es,Die,Sie,Ihr,Sie,Im,Manche,Nicht,Die,Ich,Die,100,Am,Wir,In,Dort,Sie,Die,Die,Er,In,Am,Die,In,Die,Er,Wir,Bei,Er,In,Fernab,In,Dort,Sie,Der,In,Jetzt,Jungtiere,Beträchtliche,Walter,Wir,Man,Er,Sie,Bei,Die,Die,Nicht,Er,Im,Es,Als,Die,Außer,,,,,,,,,,,,,,,,,,,,,,,0,0,0,0,0,0,0,0,,,,,,,None,space,0.571192026138,,,,,,2017_Jan_24_1200,59.4145386499,spr_backupper,001,Di12,
,können,hatten,der,waren,machte,übergaben,g,Stücke,Schuhe,unserer,Tuch,Stücke,verlassen,den,Gäste,das,Kinder,Tonnen,dem,nehme,hat,keinen,nehme,müden,den,mussten,wurde,Formen,Uhr,waren,haben,es,dieser,Autos,hatten,haben,Schuhe,Kinder,dieser,den,haben,Autos,Tonnen,Betten,wurden,Eislaufbahnen,verbrauchen,Blutdruck,verbrauchen,Fernrohr,Kreditnehmer,ein,Lösung,wurde,Schule,g,äußeren,konnten,meinem,türmen,hatte,Uhr,"Uhr,",wurde,der,äußersten,Gäste,der,Linie,stellt,übergaben,der,hat,meinem,des,diesem,türmen,verlassen,Flug,einer,ist,sollten,Stücke,Scheel,mussten,machte,wurde,hatte,unserer,Uhr,Teilnehmerinnen,ein,stellt,Fernrohr,wurden,die,Schule,dem,,,,,,,,,,,,,,,,,,,,,,,0,0,0,0,0,1,1,1,,,,,,,,space,0.415661096573,,,,,,2017_Jan_24_1200,59.4145386499,spr_backupper,001,Di12,
,Kleidung,in,Feier,nur,mal,das,brauner,saftiges,in,Ankunft,wurde,wurden,wegen,Kakao,suchen,Essen,fuhren,gebrauchter,Bürgermeister,eine,uns,Umständen,eine,Teilnehmer,Kakao,uns,die,wurden,schlug,nur,jede,"regnete,",Methode,beider,in,die,in,fuhren,Methode,Bürgermeister,jede,beider,gebrauchte,wurden,Eimer,wurden,60,kann,60,sahen,sind,Tropfen,wird,damals,verbraucht,braunen,Rand,dann,Studium,sich,keine,schlug,die,trotz,Tat,Rand,suchen,Tat,101,die,dem,Feier,ein,Studium,Rummels,Zirkus,sich,wegen,zum,Studie,genau,immer,saftigen,war,uns,mal,trotz,keine,Ankunft,war,wussten,Tropfen,die,sahen,Eimer,Sonne,verbraucht,Essen,,,,,,,,,,,,,,,,,,,,,,,0,0,0,0,0,2,2,2,,,,,,,,space,0.649130105972,,,,,,2017_Jan_24_1200,59.4145386499,spr_backupper,001,Di12,
,bei,Dänemark,gedachte,kleinere,wieder,Auto,Zucker,Fleisch,Größe,stand,dann,aus,dem,gehören,die,kann,mit,Kleidung,beschuldigten,große,die,können,große,wurden,gehören,durch,Leinwand,unter,"sporadisch,",kleinere,Menge,hat,kann,beteiligter,Dänemark,Erlebnisse,Größe,mit,kann,beschuldigten,Menge,beteiligten,Kleidung,mit,roter,mit,Liter,schon,Liter,wir,mit,königliches,mit,schnell,260.000,Zuckers,der,mit,habe,Berge,Lust,"sporadisch,",er,des,wissen,der,die,wissen,hält,Masse,Mann,gedachte,Hemd,las,wurde,werden,Berge,des,Mond,wurde,die,auf,Fleischs,der,durch,wieder,dem,Lust,stand,aus,überwiegend,königlichen,Masse,wir,rote,"unterging,",260.000,kann,,,,,,,,,,,,,,,,,,,,,,,0,0,0,0,0,3,3,3,,,,,,,,space,0.460125207901,,,,,,2017_Jan_24_1200,59.4145386499,spr_backupper,001,Di12,
,ausreichendem,einen,man,"Delikte,",viel,dem,sind,wurden,36,ein,mit,"wertvollem,",schönen,immer,Wohnung,ich,solch,landen,die,Packung,Stimmung,Neuwahlen,Packung,mit,immer,Büschel,aus,"regelmäßigem,",obschon,"Delikte,",alten,uns,man,Fahrer,gelegentlich,bei,36,solchen,man,die,alten,Fahrer,landen,"üblichem,",Farbe,dauerhaftem,sprudelnden,bei,sprudelndes,den,"sämtlichem,",Blut,"reichlichem,",dank,Kilowattstunden,sind,Stadt,"minimalem,",ich,schmutziger,auf,obwohl,"trug,",bekannten,wir,Stadt,Wohnung,wir,nicht,mit,das,man,aus,ich,schon,die,schmutzige,schönen,dauerte,jetzt,richtige,warmem,wurden,vierte,Büschel,viel,bekannten,auf,ein,"Japan,","nicht,",Bluts,mit,den,Farbe,war,Kilowattstunden,ich,,,,,,,,,,,,,,,,,,,,,,,0,0,0,0,0,4,4,4,,,,,,,,space,0.498481035233,,,,,,2017_Jan_24_1200,59.4145386499,spr_backupper,001,Di12,
,monatlichem,gelegentlichen,der,derer,Lärm,Mann,auf,serviert.,würden,Glas,"reichem,",klassischen,Wetter,350,des,leider,unzureichenden,im,Störenfriede,salzige,ziemlich,vor,salziger,zusätzlichem,350,frisches,seltenem,kaltem,sie,deren,Krams,die,eine,wurden,einen,"frischem,",hätten,unzureichenden,eine,Störenfriede,Kram,wurden,im,harten,geschleudert.,feinem,Trinkwassers.,minimalem,Trinkwasser.,roten,künftigem,hat,purem,täglichem,elektrischer,auf,liegen,sauberen,mehr,Wäsche.,noch,sie,war,Skandals,von,liegen,des,um,am,einem,Auto,den,feinem,mehr,immer,Tiere,Wäsche.,Wetters,ungefähr,"nachgewiesen,","Zeit,",weichem,serviert.,Bundespräsident.,frischen,Lärm,Skandal,noch,Glas,die,was,hat,einem,roten,geschleudert.,die,elektrische,leider,,,,,,,,,,,,,,,,,,,,,,,0,0,0,0,0,5,5,5,,,,,,,,space,0.361277103424,,,,,,2017_Jan_24_1200,59.4145386499,spr_backupper,001,Di12,
,Taschengeld,Besucher.,Soldaten,sie,um,mehr,jeden,nan,seiner,köstlichen,goldenen,Schmuck,die,ml,Herrn,nichts,Helmen,Müll.,jeden.,Wurst,"vermiest,",Dezember,Wurst,schwarzem,ml,Gras,dichten,Abduschen,defekt,sie,aus,Stimmung,große,verschrottet.,Besucher.,kaltem,seiner,Helmen,große,jeden.,aus,verschrottet.,Müll.,Schaumstoff,nan,Kunsteis,nan,täglichen,nan,Planet,Einkommen,den,Alkohol,grünen,Energie.,jeden,die,Kraftstoff,als,nan,eine,defekt,aus,wiedergewählt.,den,die,Herrn,die,Hauptbahnhof.,Esslöffel,mehr,Soldaten,dichten,als,ruhig,artgerecht,nan,die,drei,dass,um,Untergrund,nan,nan,Grases,um,wiedergewählt.,eine,köstlicher,er,Tupperware,den,Esslöffel,Planeten,nan,Flut,Energie.,nichts,,,,,,,,,,,,,,,,,,,,,,,0,0,0,0,0,6,6,6,,,,,,,,space,0.369049072266,,,,,,2017_Jan_24_1200,59.4145386499,spr_backupper,001,Di12,
,selber,nan,des,überführt,jede,als,Fall,nan,Frau,Weins,Besatz,umgearbeitet.,Wohnung.,warmer,Gantenbein.,mitbringen.,zur,nan,nan,mit,dass,stattfinden.,mit,Kaffee,warme,zwängen.,Gewebe,gehärtet.,war.,überführt,dem,ziemlich,Menge,nan,nan,Saft,Frau,zur,Menge,nan,dem,nan,nan,gefertigt.,nan,eingesprüht.,nan,Einsatz,nan,ganz,haftbar.,Boden,verdünnt.,Tee,nan,Fall,Slums.,fahren.,einmal,nan,Sammlung,war.,Japan.,nan,Problemen,Slums.,Gantenbeins.,Probleme,nan,warmem,als,des,Stoff,einmal,diskutiert.,gehalten.,nan,Wohnung.,Tage.,das,Nadelhölzer,liegen.,nan,nan,zwängen.,jede,nan,Sammlung,Wein,trug.,ist.,Boden,warmen,ganz,nan,zurückgekehrt.,nan,mitbringen.,,,,,,,,,,,,,,,,,,,,,,,0,0,0,0,0,7,7,7,,,,,,,,space,0.319478034973,,,,,,2017_Jan_24_1200,59.4145386499,spr_backupper,001,Di12,
,kaufen.,nan,zweiten,wurden.,Menge,gerne.,genug.,nan,gepasst,schon,rekonstruiert.,nan,nan,Milch.,nan,nan,Schule.,nan,nan,an,es,nan,an,wiederbelebt.,Milch.,nan,wiederhergestellt.,nan,nan,wurden.,Haus,vermiest.,dunkler,nan,nan,besprochen.,gepasst.,Schule.,dunkle,nan,Haus,nan,nan,nan,nan,nan,nan,sinken.,nan,deutlich.,nan,berührt.,nan,wieder,nan,genug.,nan,nan,Rilke,nan,dumme,nan,nan,nan,im,nan,nan,im,nan,Honig,gerne.,zweiten,gefertigt.,Rilke.,nan,nan,nan,nan,nan,Medikament,umzusetzen.,nan,nan,nan,nan,Menge,nan,dummer,schon,nan,nan,berührt.,Honigs,deutlich.,nan,nan,nan,nan,,,,,,,,,,,,,,,,,,,,,,,0,0,0,0,0,8,8,8,,,,,,,,space,0.336992025375,,,,,,2017_Jan_24_1200,59.4145386499,spr_backupper,001,Di12,
,,,,,,,,,,,,,,,,,,,,,,,,,,,,,,,,,,,,,,,,,,,,,,,,,,,,,,,,,,,,,,,,,,,,,,,,,,,,,,,,,,,,,,,,,,,,,,,,,,,,,,,,,,,,,,,,,,,,,,,,,0,0,0,0,,,,,,,,,,,,,,space,0.502912998199,n,3.73985004425,,2017_Jan_24_1200,59.4145386499,spr_backupper,001,Di12,
,Jugendliche,Wir,Bei,Es,Man,Wir,100,Beträchtliche,Die,Bei,Das,Die,Sie,In,Die,Außer,Die,Viele,Außer,Ich,Es,Unter,Ich,Die,In,Wir,Danach,Die,Die,Es,Wir,Dass,Mit,Die,Wir,Sie,Die,Die,Mit,Außer,Wir,Die,Viele,Alle,Es,Die,Sie,Ihr,Sie,Im,Manche,Nicht,Die,Ich,Die,100,Am,Wir,In,Dort,Sie,Die,Die,Er,In,Am,Die,In,Die,Er,Wir,Bei,Er,In,Fernab,In,Dort,Sie,Der,In,Jetzt,Jungtiere,Beträchtliche,Walter,Wir,Man,Er,Sie,Bei,Die,Die,Nicht,Er,Im,Es,Als,Die,Außer,,,,,,,,,,,,,,,,,,,,,,,1,0,1,0,0,0,0,0,,,,,,,space,space,0.597764015198,,,,,1.14052987099,2017_Jan_24_1200,59.4145386499,spr_backupper,001,Di12,
,können,hatten,der,waren,machte,übergaben,g,Stücke,Schuhe,unserer,Tuch,Stücke,verlassen,den,Gäste,das,Kinder,Tonnen,dem,nehme,hat,keinen,nehme,müden,den,mussten,wurde,Formen,Uhr,waren,haben,es,dieser,Autos,hatten,haben,Schuhe,Kinder,dieser,den,haben,Autos,Tonnen,Betten,wurden,Eislaufbahnen,verbrauchen,Blutdruck,verbrauchen,Fernrohr,Kreditnehmer,ein,Lösung,wurde,Schule,g,äußeren,konnten,meinem,türmen,hatte,Uhr,"Uhr,",wurde,der,äußersten,Gäste,der,Linie,stellt,übergaben,der,hat,meinem,des,diesem,türmen,verlassen,Flug,einer,ist,sollten,Stücke,Scheel,mussten,machte,wurde,hatte,unserer,Uhr,Teilnehmerinnen,ein,stellt,Fernrohr,wurden,die,Schule,dem,,,,,,,,,,,,,,,,,,,,,,,1,0,1,0,0,1,1,1,,,,,,,,space,0.406381130219,,,,,,2017_Jan_24_1200,59.4145386499,spr_backupper,001,Di12,
,Kleidung,in,Feier,nur,mal,das,brauner,saftiges,in,Ankunft,wurde,wurden,wegen,Kakao,suchen,Essen,fuhren,gebrauchter,Bürgermeister,eine,uns,Umständen,eine,Teilnehmer,Kakao,uns,die,wurden,schlug,nur,jede,"regnete,",Methode,beider,in,die,in,fuhren,Methode,Bürgermeister,jede,beider,gebrauchte,wurden,Eimer,wurden,60,kann,60,sahen,sind,Tropfen,wird,damals,verbraucht,braunen,Rand,dann,Studium,sich,keine,schlug,die,trotz,Tat,Rand,suchen,Tat,101,die,dem,Feier,ein,Studium,Rummels,Zirkus,sich,wegen,zum,Studie,genau,immer,saftigen,war,uns,mal,trotz,keine,Ankunft,war,wussten,Tropfen,die,sahen,Eimer,Sonne,verbraucht,Essen,,,,,,,,,,,,,,,,,,,,,,,1,0,1,0,0,2,2,2,,,,,,,,space,0.311133861542,,,,,,2017_Jan_24_1200,59.4145386499,spr_backupper,001,Di12,
,bei,Dänemark,gedachte,kleinere,wieder,Auto,Zucker,Fleisch,Größe,stand,dann,aus,dem,gehören,die,kann,mit,Kleidung,beschuldigten,große,die,können,große,wurden,gehören,durch,Leinwand,unter,"sporadisch,",kleinere,Menge,hat,kann,beteiligter,Dänemark,Erlebnisse,Größe,mit,kann,beschuldigten,Menge,beteiligten,Kleidung,mit,roter,mit,Liter,schon,Liter,wir,mit,königliches,mit,schnell,260.000,Zuckers,der,mit,habe,Berge,Lust,"sporadisch,",er,des,wissen,der,die,wissen,hält,Masse,Mann,gedachte,Hemd,las,wurde,werden,Berge,des,Mond,wurde,die,auf,Fleischs,der,durch,wieder,dem,Lust,stand,aus,überwiegend,königlichen,Masse,wir,rote,"unterging,",260.000,kann,,,,,,,,,,,,,,,,,,,,,,,1,0,1,0,0,3,3,3,,,,,,,,space,0.293772935867,,,,,,2017_Jan_24_1200,59.4145386499,spr_backupper,001,Di12,
,ausreichendem,einen,man,"Delikte,",viel,dem,sind,wurden,36,ein,mit,"wertvollem,",schönen,immer,Wohnung,ich,solch,landen,die,Packung,Stimmung,Neuwahlen,Packung,mit,immer,Büschel,aus,"regelmäßigem,",obschon,"Delikte,",alten,uns,man,Fahrer,gelegentlich,bei,36,solchen,man,die,alten,Fahrer,landen,"üblichem,",Farbe,dauerhaftem,sprudelnden,bei,sprudelndes,den,"sämtlichem,",Blut,"reichlichem,",dank,Kilowattstunden,sind,Stadt,"minimalem,",ich,schmutziger,auf,obwohl,"trug,",bekannten,wir,Stadt,Wohnung,wir,nicht,mit,das,man,aus,ich,schon,die,schmutzige,schönen,dauerte,jetzt,richtige,warmem,wurden,vierte,Büschel,viel,bekannten,auf,ein,"Japan,","nicht,",Bluts,mit,den,Farbe,war,Kilowattstunden,ich,,,,,,,,,,,,,,,,,,,,,,,1,0,1,0,0,4,4,4,,,,,,,,space,0.258903980255,,,,,,2017_Jan_24_1200,59.4145386499,spr_backupper,001,Di12,
,monatlichem,gelegentlichen,der,derer,Lärm,Mann,auf,serviert.,würden,Glas,"reichem,",klassischen,Wetter,350,des,leider,unzureichenden,im,Störenfriede,salzige,ziemlich,vor,salziger,zusätzlichem,350,frisches,seltenem,kaltem,sie,deren,Krams,die,eine,wurden,einen,"frischem,",hätten,unzureichenden,eine,Störenfriede,Kram,wurden,im,harten,geschleudert.,feinem,Trinkwassers.,minimalem,Trinkwasser.,roten,künftigem,hat,purem,täglichem,elektrischer,auf,liegen,sauberen,mehr,Wäsche.,noch,sie,war,Skandals,von,liegen,des,um,am,einem,Auto,den,feinem,mehr,immer,Tiere,Wäsche.,Wetters,ungefähr,"nachgewiesen,","Zeit,",weichem,serviert.,Bundespräsident.,frischen,Lärm,Skandal,noch,Glas,die,was,hat,einem,roten,geschleudert.,die,elektrische,leider,,,,,,,,,,,,,,,,,,,,,,,1,0,1,0,0,5,5,5,,,,,,,,space,0.279508829117,,,,,,2017_Jan_24_1200,59.4145386499,spr_backupper,001,Di12,
,Taschengeld,Besucher.,Soldaten,sie,um,mehr,jeden,nan,seiner,köstlichen,goldenen,Schmuck,die,ml,Herrn,nichts,Helmen,Müll.,jeden.,Wurst,"vermiest,",Dezember,Wurst,schwarzem,ml,Gras,dichten,Abduschen,defekt,sie,aus,Stimmung,große,verschrottet.,Besucher.,kaltem,seiner,Helmen,große,jeden.,aus,verschrottet.,Müll.,Schaumstoff,nan,Kunsteis,nan,täglichen,nan,Planet,Einkommen,den,Alkohol,grünen,Energie.,jeden,die,Kraftstoff,als,nan,eine,defekt,aus,wiedergewählt.,den,die,Herrn,die,Hauptbahnhof.,Esslöffel,mehr,Soldaten,dichten,als,ruhig,artgerecht,nan,die,drei,dass,um,Untergrund,nan,nan,Grases,um,wiedergewählt.,eine,köstlicher,er,Tupperware,den,Esslöffel,Planeten,nan,Flut,Energie.,nichts,,,,,,,,,,,,,,,,,,,,,,,1,0,1,0,0,6,6,6,,,,,,,,space,0.302535057068,,,,,,2017_Jan_24_1200,59.4145386499,spr_backupper,001,Di12,
,selber,nan,des,überführt,jede,als,Fall,nan,Frau,Weins,Besatz,umgearbeitet.,Wohnung.,warmer,Gantenbein.,mitbringen.,zur,nan,nan,mit,dass,stattfinden.,mit,Kaffee,warme,zwängen.,Gewebe,gehärtet.,war.,überführt,dem,ziemlich,Menge,nan,nan,Saft,Frau,zur,Menge,nan,dem,nan,nan,gefertigt.,nan,eingesprüht.,nan,Einsatz,nan,ganz,haftbar.,Boden,verdünnt.,Tee,nan,Fall,Slums.,fahren.,einmal,nan,Sammlung,war.,Japan.,nan,Problemen,Slums.,Gantenbeins.,Probleme,nan,warmem,als,des,Stoff,einmal,diskutiert.,gehalten.,nan,Wohnung.,Tage.,das,Nadelhölzer,liegen.,nan,nan,zwängen.,jede,nan,Sammlung,Wein,trug.,ist.,Boden,warmen,ganz,nan,zurückgekehrt.,nan,mitbringen.,,,,,,,,,,,,,,,,,,,,,,,1,0,1,0,0,7,7,7,,,,,,,,space,0.280154943466,,,,,,2017_Jan_24_1200,59.4145386499,spr_backupper,001,Di12,
,kaufen.,nan,zweiten,wurden.,Menge,gerne.,genug.,nan,gepasst,schon,rekonstruiert.,nan,nan,Milch.,nan,nan,Schule.,nan,nan,an,es,nan,an,wiederbelebt.,Milch.,nan,wiederhergestellt.,nan,nan,wurden.,Haus,vermiest.,dunkler,nan,nan,besprochen.,gepasst.,Schule.,dunkle,nan,Haus,nan,nan,nan,nan,nan,nan,sinken.,nan,deutlich.,nan,berührt.,nan,wieder,nan,genug.,nan,nan,Rilke,nan,dumme,nan,nan,nan,im,nan,nan,im,nan,Honig,gerne.,zweiten,gefertigt.,Rilke.,nan,nan,nan,nan,nan,Medikament,umzusetzen.,nan,nan,nan,nan,Menge,nan,dummer,schon,nan,nan,berührt.,Honigs,deutlich.,nan,nan,nan,nan,,,,,,,,,,,,,,,,,,,,,,,1,0,1,0,0,8,8,8,,,,,,,,space,0.301062822342,,,,,,2017_Jan_24_1200,59.4145386499,spr_backupper,001,Di12,
,,,,,,,,,,,,,,,,,,,,,,,,,,,,,,,,,,,,,,,,,,,,,,,,,,,,,,,,,,,,,,,,,,,,,,,,,,,,,,,,,,,,,,,,,,,,,,,,,,,,,,,,,,,,,,,,,,,,,,,,,1,0,1,0,,,,,,,,,,,,,,space,0.453227043152,n,3.35391402245,,2017_Jan_24_1200,59.4145386499,spr_backupper,001,Di12,
,Jugendliche,Wir,Bei,Es,Man,Wir,100,Beträchtliche,Die,Bei,Das,Die,Sie,In,Die,Außer,Die,Viele,Außer,Ich,Es,Unter,Ich,Die,In,Wir,Danach,Die,Die,Es,Wir,Dass,Mit,Die,Wir,Sie,Die,Die,Mit,Außer,Wir,Die,Viele,Alle,Es,Die,Sie,Ihr,Sie,Im,Manche,Nicht,Die,Ich,Die,100,Am,Wir,In,Dort,Sie,Die,Die,Er,In,Am,Die,In,Die,Er,Wir,Bei,Er,In,Fernab,In,Dort,Sie,Der,In,Jetzt,Jungtiere,Beträchtliche,Walter,Wir,Man,Er,Sie,Bei,Die,Die,Nicht,Er,Im,Es,Als,Die,Außer,,,,,,,,,,,,,,,,,,,,,,,2,0,2,0,0,0,0,0,,,,,,,space,space,0.520093917847,,,,,0.805154085159,2017_Jan_24_1200,59.4145386499,spr_backupper,001,Di12,
,können,hatten,der,waren,machte,übergaben,g,Stücke,Schuhe,unserer,Tuch,Stücke,verlassen,den,Gäste,das,Kinder,Tonnen,dem,nehme,hat,keinen,nehme,müden,den,mussten,wurde,Formen,Uhr,waren,haben,es,dieser,Autos,hatten,haben,Schuhe,Kinder,dieser,den,haben,Autos,Tonnen,Betten,wurden,Eislaufbahnen,verbrauchen,Blutdruck,verbrauchen,Fernrohr,Kreditnehmer,ein,Lösung,wurde,Schule,g,äußeren,konnten,meinem,türmen,hatte,Uhr,"Uhr,",wurde,der,äußersten,Gäste,der,Linie,stellt,übergaben,der,hat,meinem,des,diesem,türmen,verlassen,Flug,einer,ist,sollten,Stücke,Scheel,mussten,machte,wurde,hatte,unserer,Uhr,Teilnehmerinnen,ein,stellt,Fernrohr,wurden,die,Schule,dem,,,,,,,,,,,,,,,,,,,,,,,2,0,2,0,0,1,1,1,,,,,,,,space,0.380246162415,,,,,,2017_Jan_24_1200,59.4145386499,spr_backupper,001,Di12,
,Kleidung,in,Feier,nur,mal,das,brauner,saftiges,in,Ankunft,wurde,wurden,wegen,Kakao,suchen,Essen,fuhren,gebrauchter,Bürgermeister,eine,uns,Umständen,eine,Teilnehmer,Kakao,uns,die,wurden,schlug,nur,jede,"regnete,",Methode,beider,in,die,in,fuhren,Methode,Bürgermeister,jede,beider,gebrauchte,wurden,Eimer,wurden,60,kann,60,sahen,sind,Tropfen,wird,damals,verbraucht,braunen,Rand,dann,Studium,sich,keine,schlug,die,trotz,Tat,Rand,suchen,Tat,101,die,dem,Feier,ein,Studium,Rummels,Zirkus,sich,wegen,zum,Studie,genau,immer,saftigen,war,uns,mal,trotz,keine,Ankunft,war,wussten,Tropfen,die,sahen,Eimer,Sonne,verbraucht,Essen,,,,,,,,,,,,,,,,,,,,,,,2,0,2,0,0,2,2,2,,,,,,,,space,0.335886955261,,,,,,2017_Jan_24_1200,59.4145386499,spr_backupper,001,Di12,
,bei,Dänemark,gedachte,kleinere,wieder,Auto,Zucker,Fleisch,Größe,stand,dann,aus,dem,gehören,die,kann,mit,Kleidung,beschuldigten,große,die,können,große,wurden,gehören,durch,Leinwand,unter,"sporadisch,",kleinere,Menge,hat,kann,beteiligter,Dänemark,Erlebnisse,Größe,mit,kann,beschuldigten,Menge,beteiligten,Kleidung,mit,roter,mit,Liter,schon,Liter,wir,mit,königliches,mit,schnell,260.000,Zuckers,der,mit,habe,Berge,Lust,"sporadisch,",er,des,wissen,der,die,wissen,hält,Masse,Mann,gedachte,Hemd,las,wurde,werden,Berge,des,Mond,wurde,die,auf,Fleischs,der,durch,wieder,dem,Lust,stand,aus,überwiegend,königlichen,Masse,wir,rote,"unterging,",260.000,kann,,,,,,,,,,,,,,,,,,,,,,,2,0,2,0,0,3,3,3,,,,,,,,space,0.274592161179,,,,,,2017_Jan_24_1200,59.4145386499,spr_backupper,001,Di12,
,ausreichendem,einen,man,"Delikte,",viel,dem,sind,wurden,36,ein,mit,"wertvollem,",schönen,immer,Wohnung,ich,solch,landen,die,Packung,Stimmung,Neuwahlen,Packung,mit,immer,Büschel,aus,"regelmäßigem,",obschon,"Delikte,",alten,uns,man,Fahrer,gelegentlich,bei,36,solchen,man,die,alten,Fahrer,landen,"üblichem,",Farbe,dauerhaftem,sprudelnden,bei,sprudelndes,den,"sämtlichem,",Blut,"reichlichem,",dank,Kilowattstunden,sind,Stadt,"minimalem,",ich,schmutziger,auf,obwohl,"trug,",bekannten,wir,Stadt,Wohnung,wir,nicht,mit,das,man,aus,ich,schon,die,schmutzige,schönen,dauerte,jetzt,richtige,warmem,wurden,vierte,Büschel,viel,bekannten,auf,ein,"Japan,","nicht,",Bluts,mit,den,Farbe,war,Kilowattstunden,ich,,,,,,,,,,,,,,,,,,,,,,,2,0,2,0,0,4,4,4,,,,,,,,space,0.292286157608,,,,,,2017_Jan_24_1200,59.4145386499,spr_backupper,001,Di12,
,monatlichem,gelegentlichen,der,derer,Lärm,Mann,auf,serviert.,würden,Glas,"reichem,",klassischen,Wetter,350,des,leider,unzureichenden,im,Störenfriede,salzige,ziemlich,vor,salziger,zusätzlichem,350,frisches,seltenem,kaltem,sie,deren,Krams,die,eine,wurden,einen,"frischem,",hätten,unzureichenden,eine,Störenfriede,Kram,wurden,im,harten,geschleudert.,feinem,Trinkwassers.,minimalem,Trinkwasser.,roten,künftigem,hat,purem,täglichem,elektrischer,auf,liegen,sauberen,mehr,Wäsche.,noch,sie,war,Skandals,von,liegen,des,um,am,einem,Auto,den,feinem,mehr,immer,Tiere,Wäsche.,Wetters,ungefähr,"nachgewiesen,","Zeit,",weichem,serviert.,Bundespräsident.,frischen,Lärm,Skandal,noch,Glas,die,was,hat,einem,roten,geschleudert.,die,elektrische,leider,,,,,,,,,,,,,,,,,,,,,,,2,0,2,0,0,5,5,5,,,,,,,,space,0.28536605835,,,,,,2017_Jan_24_1200,59.4145386499,spr_backupper,001,Di12,
,Taschengeld,Besucher.,Soldaten,sie,um,mehr,jeden,nan,seiner,köstlichen,goldenen,Schmuck,die,ml,Herrn,nichts,Helmen,Müll.,jeden.,Wurst,"vermiest,",Dezember,Wurst,schwarzem,ml,Gras,dichten,Abduschen,defekt,sie,aus,Stimmung,große,verschrottet.,Besucher.,kaltem,seiner,Helmen,große,jeden.,aus,verschrottet.,Müll.,Schaumstoff,nan,Kunsteis,nan,täglichen,nan,Planet,Einkommen,den,Alkohol,grünen,Energie.,jeden,die,Kraftstoff,als,nan,eine,defekt,aus,wiedergewählt.,den,die,Herrn,die,Hauptbahnhof.,Esslöffel,mehr,Soldaten,dichten,als,ruhig,artgerecht,nan,die,drei,dass,um,Untergrund,nan,nan,Grases,um,wiedergewählt.,eine,köstlicher,er,Tupperware,den,Esslöffel,Planeten,nan,Flut,Energie.,nichts,,,,,,,,,,,,,,,,,,,,,,,2,0,2,0,0,6,6,6,,,,,,,,space,0.303034067154,,,,,,2017_Jan_24_1200,59.4145386499,spr_backupper,001,Di12,
,selber,nan,des,überführt,jede,als,Fall,nan,Frau,Weins,Besatz,umgearbeitet.,Wohnung.,warmer,Gantenbein.,mitbringen.,zur,nan,nan,mit,dass,stattfinden.,mit,Kaffee,warme,zwängen.,Gewebe,gehärtet.,war.,überführt,dem,ziemlich,Menge,nan,nan,Saft,Frau,zur,Menge,nan,dem,nan,nan,gefertigt.,nan,eingesprüht.,nan,Einsatz,nan,ganz,haftbar.,Boden,verdünnt.,Tee,nan,Fall,Slums.,fahren.,einmal,nan,Sammlung,war.,Japan.,nan,Problemen,Slums.,Gantenbeins.,Probleme,nan,warmem,als,des,Stoff,einmal,diskutiert.,gehalten.,nan,Wohnung.,Tage.,das,Nadelhölzer,liegen.,nan,nan,zwängen.,jede,nan,Sammlung,Wein,trug.,ist.,Boden,warmen,ganz,nan,zurückgekehrt.,nan,mitbringen.,,,,,,,,,,,,,,,,,,,,,,,2,0,2,0,0,7,7,7,,,,,,,,space,0.316054105759,,,,,,2017_Jan_24_1200,59.4145386499,spr_backupper,001,Di12,
,kaufen.,nan,zweiten,wurden.,Menge,gerne.,genug.,nan,gepasst,schon,rekonstruiert.,nan,nan,Milch.,nan,nan,Schule.,nan,nan,an,es,nan,an,wiederbelebt.,Milch.,nan,wiederhergestellt.,nan,nan,wurden.,Haus,vermiest.,dunkler,nan,nan,besprochen.,gepasst.,Schule.,dunkle,nan,Haus,nan,nan,nan,nan,nan,nan,sinken.,nan,deutlich.,nan,berührt.,nan,wieder,nan,genug.,nan,nan,Rilke,nan,dumme,nan,nan,nan,im,nan,nan,im,nan,Honig,gerne.,zweiten,gefertigt.,Rilke.,nan,nan,nan,nan,nan,Medikament,umzusetzen.,nan,nan,nan,nan,Menge,nan,dummer,schon,nan,nan,berührt.,Honigs,deutlich.,nan,nan,nan,nan,,,,,,,,,,,,,,,,,,,,,,,2,0,2,0,0,8,8,8,,,,,,,,space,0.319869041443,,,,,,2017_Jan_24_1200,59.4145386499,spr_backupper,001,Di12,
,nan,nan,Weltkriegs.,nan,heißer,nan,nan,nan,haben.,auf,nan,nan,nan,nan,nan,nan,nan,nan,nan,den,regnete.,nan,den,nan,nan,nan,nan,nan,nan,nan,geschafft.,nan,Materie,nan,nan,nan,nan,nan,Materie,nan,geschafft.,nan,nan,nan,nan,nan,nan,nan,nan,nan,nan,nan,nan,fit.,nan,nan,nan,nan,gelesen.,nan,Sprüche.,nan,nan,nan,Landkreis.,nan,nan,Landkreis.,nan,her.,nan,Weltkriegs.,nan,nan,nan,nan,nan,nan,nan,nicht,nan,nan,nan,nan,nan,heiße,nan,Sprüche.,auf,nan,nan,nan,her.,nan,nan,nan,nan,nan,,,,,,,,,,,,,,,,,,,,,,,2,0,2,0,0,9,9,9,,,,,,,,space,0.251919984818,,,,,,2017_Jan_24_1200,59.4145386499,spr_backupper,001,Di12,
,nan,nan,nan,nan,Luft.,nan,nan,nan,nan,dem,nan,nan,nan,nan,nan,nan,nan,nan,nan,See.,nan,nan,See.,nan,nan,nan,nan,nan,nan,nan,nan,nan,erzeugen.,nan,nan,nan,nan,nan,erzeugen.,nan,nan,nan,nan,nan,nan,nan,nan,nan,nan,nan,nan,nan,nan,nan,nan,nan,nan,nan,nan,nan,nan,nan,nan,nan,nan,nan,nan,nan,nan,nan,nan,nan,nan,nan,nan,nan,nan,nan,nan,wirkt.,nan,nan,nan,nan,nan,Luft.,nan,nan,dem,nan,nan,nan,nan,nan,nan,nan,nan,nan,,,,,,,,,,,,,,,,,,,,,,,2,0,2,0,0,10,10,10,,,,,,,,space,0.320034980774,,,,,,2017_Jan_24_1200,59.4145386499,spr_backupper,001,Di12,
,,,,,,,,,,,,,,,,,,,,,,,,,,,,,,,,,,,,,,,,,,,,,,,,,,,,,,,,,,,,,,,,,,,,,,,,,,,,,,,,,,,,,,,,,,,,,,,,,,,,,,,,,,,,,,,,,,,,,,,,,2,0,2,0,,,,,,,,,,,,,,space,0.603444099426,n,2.6338660717,,2017_Jan_24_1200,59.4145386499,spr_backupper,001,Di12,
,Jugendliche,Wir,Bei,Es,Man,Wir,100,Beträchtliche,Die,Bei,Das,Die,Sie,In,Die,Außer,Die,Viele,Außer,Ich,Es,Unter,Ich,Die,In,Wir,Danach,Die,Die,Es,Wir,Dass,Mit,Die,Wir,Sie,Die,Die,Mit,Außer,Wir,Die,Viele,Alle,Es,Die,Sie,Ihr,Sie,Im,Manche,Nicht,Die,Ich,Die,100,Am,Wir,In,Dort,Sie,Die,Die,Er,In,Am,Die,In,Die,Er,Wir,Bei,Er,In,Fernab,In,Dort,Sie,Der,In,Jetzt,Jungtiere,Beträchtliche,Walter,Wir,Man,Er,Sie,Bei,Die,Die,Nicht,Er,Im,Es,Als,Die,Außer,,,,,,,,,,,,,,,,,,,,,,,3,0,3,0,0,0,0,0,,,,,,,space,space,0.502336025238,,,,,0.772296190262,2017_Jan_24_1200,59.4145386499,spr_backupper,001,Di12,
,können,hatten,der,waren,machte,übergaben,g,Stücke,Schuhe,unserer,Tuch,Stücke,verlassen,den,Gäste,das,Kinder,Tonnen,dem,nehme,hat,keinen,nehme,müden,den,mussten,wurde,Formen,Uhr,waren,haben,es,dieser,Autos,hatten,haben,Schuhe,Kinder,dieser,den,haben,Autos,Tonnen,Betten,wurden,Eislaufbahnen,verbrauchen,Blutdruck,verbrauchen,Fernrohr,Kreditnehmer,ein,Lösung,wurde,Schule,g,äußeren,konnten,meinem,türmen,hatte,Uhr,"Uhr,",wurde,der,äußersten,Gäste,der,Linie,stellt,übergaben,der,hat,meinem,des,diesem,türmen,verlassen,Flug,einer,ist,sollten,Stücke,Scheel,mussten,machte,wurde,hatte,unserer,Uhr,Teilnehmerinnen,ein,stellt,Fernrohr,wurden,die,Schule,dem,,,,,,,,,,,,,,,,,,,,,,,3,0,3,0,0,1,1,1,,,,,,,,space,0.294881820679,,,,,,2017_Jan_24_1200,59.4145386499,spr_backupper,001,Di12,
,Kleidung,in,Feier,nur,mal,das,brauner,saftiges,in,Ankunft,wurde,wurden,wegen,Kakao,suchen,Essen,fuhren,gebrauchter,Bürgermeister,eine,uns,Umständen,eine,Teilnehmer,Kakao,uns,die,wurden,schlug,nur,jede,"regnete,",Methode,beider,in,die,in,fuhren,Methode,Bürgermeister,jede,beider,gebrauchte,wurden,Eimer,wurden,60,kann,60,sahen,sind,Tropfen,wird,damals,verbraucht,braunen,Rand,dann,Studium,sich,keine,schlug,die,trotz,Tat,Rand,suchen,Tat,101,die,dem,Feier,ein,Studium,Rummels,Zirkus,sich,wegen,zum,Studie,genau,immer,saftigen,war,uns,mal,trotz,keine,Ankunft,war,wussten,Tropfen,die,sahen,Eimer,Sonne,verbraucht,Essen,,,,,,,,,,,,,,,,,,,,,,,3,0,3,0,0,2,2,2,,,,,,,,space,0.284732818604,,,,,,2017_Jan_24_1200,59.4145386499,spr_backupper,001,Di12,
,bei,Dänemark,gedachte,kleinere,wieder,Auto,Zucker,Fleisch,Größe,stand,dann,aus,dem,gehören,die,kann,mit,Kleidung,beschuldigten,große,die,können,große,wurden,gehören,durch,Leinwand,unter,"sporadisch,",kleinere,Menge,hat,kann,beteiligter,Dänemark,Erlebnisse,Größe,mit,kann,beschuldigten,Menge,beteiligten,Kleidung,mit,roter,mit,Liter,schon,Liter,wir,mit,königliches,mit,schnell,260.000,Zuckers,der,mit,habe,Berge,Lust,"sporadisch,",er,des,wissen,der,die,wissen,hält,Masse,Mann,gedachte,Hemd,las,wurde,werden,Berge,des,Mond,wurde,die,auf,Fleischs,der,durch,wieder,dem,Lust,stand,aus,überwiegend,königlichen,Masse,wir,rote,"unterging,",260.000,kann,,,,,,,,,,,,,,,,,,,,,,,3,0,3,0,0,3,3,3,,,,,,,,space,0.302931070328,,,,,,2017_Jan_24_1200,59.4145386499,spr_backupper,001,Di12,
,ausreichendem,einen,man,"Delikte,",viel,dem,sind,wurden,36,ein,mit,"wertvollem,",schönen,immer,Wohnung,ich,solch,landen,die,Packung,Stimmung,Neuwahlen,Packung,mit,immer,Büschel,aus,"regelmäßigem,",obschon,"Delikte,",alten,uns,man,Fahrer,gelegentlich,bei,36,solchen,man,die,alten,Fahrer,landen,"üblichem,",Farbe,dauerhaftem,sprudelnden,bei,sprudelndes,den,"sämtlichem,",Blut,"reichlichem,",dank,Kilowattstunden,sind,Stadt,"minimalem,",ich,schmutziger,auf,obwohl,"trug,",bekannten,wir,Stadt,Wohnung,wir,nicht,mit,das,man,aus,ich,schon,die,schmutzige,schönen,dauerte,jetzt,richtige,warmem,wurden,vierte,Büschel,viel,bekannten,auf,ein,"Japan,","nicht,",Bluts,mit,den,Farbe,war,Kilowattstunden,ich,,,,,,,,,,,,,,,,,,,,,,,3,0,3,0,0,4,4,4,,,,,,,,space,0.290657997131,,,,,,2017_Jan_24_1200,59.4145386499,spr_backupper,001,Di12,
,monatlichem,gelegentlichen,der,derer,Lärm,Mann,auf,serviert.,würden,Glas,"reichem,",klassischen,Wetter,350,des,leider,unzureichenden,im,Störenfriede,salzige,ziemlich,vor,salziger,zusätzlichem,350,frisches,seltenem,kaltem,sie,deren,Krams,die,eine,wurden,einen,"frischem,",hätten,unzureichenden,eine,Störenfriede,Kram,wurden,im,harten,geschleudert.,feinem,Trinkwassers.,minimalem,Trinkwasser.,roten,künftigem,hat,purem,täglichem,elektrischer,auf,liegen,sauberen,mehr,Wäsche.,noch,sie,war,Skandals,von,liegen,des,um,am,einem,Auto,den,feinem,mehr,immer,Tiere,Wäsche.,Wetters,ungefähr,"nachgewiesen,","Zeit,",weichem,serviert.,Bundespräsident.,frischen,Lärm,Skandal,noch,Glas,die,was,hat,einem,roten,geschleudert.,die,elektrische,leider,,,,,,,,,,,,,,,,,,,,,,,3,0,3,0,0,5,5,5,,,,,,,,space,0.330226898193,,,,,,2017_Jan_24_1200,59.4145386499,spr_backupper,001,Di12,
,Taschengeld,Besucher.,Soldaten,sie,um,mehr,jeden,nan,seiner,köstlichen,goldenen,Schmuck,die,ml,Herrn,nichts,Helmen,Müll.,jeden.,Wurst,"vermiest,",Dezember,Wurst,schwarzem,ml,Gras,dichten,Abduschen,defekt,sie,aus,Stimmung,große,verschrottet.,Besucher.,kaltem,seiner,Helmen,große,jeden.,aus,verschrottet.,Müll.,Schaumstoff,nan,Kunsteis,nan,täglichen,nan,Planet,Einkommen,den,Alkohol,grünen,Energie.,jeden,die,Kraftstoff,als,nan,eine,defekt,aus,wiedergewählt.,den,die,Herrn,die,Hauptbahnhof.,Esslöffel,mehr,Soldaten,dichten,als,ruhig,artgerecht,nan,die,drei,dass,um,Untergrund,nan,nan,Grases,um,wiedergewählt.,eine,köstlicher,er,Tupperware,den,Esslöffel,Planeten,nan,Flut,Energie.,nichts,,,,,,,,,,,,,,,,,,,,,,,3,0,3,0,0,6,6,6,,,,,,,,space,0.281337022781,,,,,,2017_Jan_24_1200,59.4145386499,spr_backupper,001,Di12,
,selber,nan,des,überführt,jede,als,Fall,nan,Frau,Weins,Besatz,umgearbeitet.,Wohnung.,warmer,Gantenbein.,mitbringen.,zur,nan,nan,mit,dass,stattfinden.,mit,Kaffee,warme,zwängen.,Gewebe,gehärtet.,war.,überführt,dem,ziemlich,Menge,nan,nan,Saft,Frau,zur,Menge,nan,dem,nan,nan,gefertigt.,nan,eingesprüht.,nan,Einsatz,nan,ganz,haftbar.,Boden,verdünnt.,Tee,nan,Fall,Slums.,fahren.,einmal,nan,Sammlung,war.,Japan.,nan,Problemen,Slums.,Gantenbeins.,Probleme,nan,warmem,als,des,Stoff,einmal,diskutiert.,gehalten.,nan,Wohnung.,Tage.,das,Nadelhölzer,liegen.,nan,nan,zwängen.,jede,nan,Sammlung,Wein,trug.,ist.,Boden,warmen,ganz,nan,zurückgekehrt.,nan,mitbringen.,,,,,,,,,,,,,,,,,,,,,,,3,0,3,0,0,7,7,7,,,,,,,,space,0.324378013611,,,,,,2017_Jan_24_1200,59.4145386499,spr_backupper,001,Di12,
,,,,,,,,,,,,,,,,,,,,,,,,,,,,,,,,,,,,,,,,,,,,,,,,,,,,,,,,,,,,,,,,,,,,,,,,,,,,,,,,,,,,,,,,,,,,,,,,,,,,,,,,,,,,,,,,,,,,,,,,,3,0,3,0,,,,,,,,,,,,,,None,,j,3.4372959137,,2017_Jan_24_1200,59.4145386499,spr_backupper,001,Di12,
,Jugendliche,Wir,Bei,Es,Man,Wir,100,Beträchtliche,Die,Bei,Das,Die,Sie,In,Die,Außer,Die,Viele,Außer,Ich,Es,Unter,Ich,Die,In,Wir,Danach,Die,Die,Es,Wir,Dass,Mit,Die,Wir,Sie,Die,Die,Mit,Außer,Wir,Die,Viele,Alle,Es,Die,Sie,Ihr,Sie,Im,Manche,Nicht,Die,Ich,Die,100,Am,Wir,In,Dort,Sie,Die,Die,Er,In,Am,Die,In,Die,Er,Wir,Bei,Er,In,Fernab,In,Dort,Sie,Der,In,Jetzt,Jungtiere,Beträchtliche,Walter,Wir,Man,Er,Sie,Bei,Die,Die,Nicht,Er,Im,Es,Als,Die,Außer,,,,,,,,,,,,,,,,,,,,,,,4,0,4,0,0,0,0,0,,,,,,,space,space,0.474248170853,,,,,0.771780014038,2017_Jan_24_1200,59.4145386499,spr_backupper,001,Di12,
,können,hatten,der,waren,machte,übergaben,g,Stücke,Schuhe,unserer,Tuch,Stücke,verlassen,den,Gäste,das,Kinder,Tonnen,dem,nehme,hat,keinen,nehme,müden,den,mussten,wurde,Formen,Uhr,waren,haben,es,dieser,Autos,hatten,haben,Schuhe,Kinder,dieser,den,haben,Autos,Tonnen,Betten,wurden,Eislaufbahnen,verbrauchen,Blutdruck,verbrauchen,Fernrohr,Kreditnehmer,ein,Lösung,wurde,Schule,g,äußeren,konnten,meinem,türmen,hatte,Uhr,"Uhr,",wurde,der,äußersten,Gäste,der,Linie,stellt,übergaben,der,hat,meinem,des,diesem,türmen,verlassen,Flug,einer,ist,sollten,Stücke,Scheel,mussten,machte,wurde,hatte,unserer,Uhr,Teilnehmerinnen,ein,stellt,Fernrohr,wurden,die,Schule,dem,,,,,,,,,,,,,,,,,,,,,,,4,0,4,0,0,1,1,1,,,,,,,,space,0.316839933395,,,,,,2017_Jan_24_1200,59.4145386499,spr_backupper,001,Di12,
,Kleidung,in,Feier,nur,mal,das,brauner,saftiges,in,Ankunft,wurde,wurden,wegen,Kakao,suchen,Essen,fuhren,gebrauchter,Bürgermeister,eine,uns,Umständen,eine,Teilnehmer,Kakao,uns,die,wurden,schlug,nur,jede,"regnete,",Methode,beider,in,die,in,fuhren,Methode,Bürgermeister,jede,beider,gebrauchte,wurden,Eimer,wurden,60,kann,60,sahen,sind,Tropfen,wird,damals,verbraucht,braunen,Rand,dann,Studium,sich,keine,schlug,die,trotz,Tat,Rand,suchen,Tat,101,die,dem,Feier,ein,Studium,Rummels,Zirkus,sich,wegen,zum,Studie,genau,immer,saftigen,war,uns,mal,trotz,keine,Ankunft,war,wussten,Tropfen,die,sahen,Eimer,Sonne,verbraucht,Essen,,,,,,,,,,,,,,,,,,,,,,,4,0,4,0,0,2,2,2,,,,,,,,space,0.268983125687,,,,,,2017_Jan_24_1200,59.4145386499,spr_backupper,001,Di12,
,bei,Dänemark,gedachte,kleinere,wieder,Auto,Zucker,Fleisch,Größe,stand,dann,aus,dem,gehören,die,kann,mit,Kleidung,beschuldigten,große,die,können,große,wurden,gehören,durch,Leinwand,unter,"sporadisch,",kleinere,Menge,hat,kann,beteiligter,Dänemark,Erlebnisse,Größe,mit,kann,beschuldigten,Menge,beteiligten,Kleidung,mit,roter,mit,Liter,schon,Liter,wir,mit,königliches,mit,schnell,260.000,Zuckers,der,mit,habe,Berge,Lust,"sporadisch,",er,des,wissen,der,die,wissen,hält,Masse,Mann,gedachte,Hemd,las,wurde,werden,Berge,des,Mond,wurde,die,auf,Fleischs,der,durch,wieder,dem,Lust,stand,aus,überwiegend,königlichen,Masse,wir,rote,"unterging,",260.000,kann,,,,,,,,,,,,,,,,,,,,,,,4,0,4,0,0,3,3,3,,,,,,,,space,0.285943031311,,,,,,2017_Jan_24_1200,59.4145386499,spr_backupper,001,Di12,
,ausreichendem,einen,man,"Delikte,",viel,dem,sind,wurden,36,ein,mit,"wertvollem,",schönen,immer,Wohnung,ich,solch,landen,die,Packung,Stimmung,Neuwahlen,Packung,mit,immer,Büschel,aus,"regelmäßigem,",obschon,"Delikte,",alten,uns,man,Fahrer,gelegentlich,bei,36,solchen,man,die,alten,Fahrer,landen,"üblichem,",Farbe,dauerhaftem,sprudelnden,bei,sprudelndes,den,"sämtlichem,",Blut,"reichlichem,",dank,Kilowattstunden,sind,Stadt,"minimalem,",ich,schmutziger,auf,obwohl,"trug,",bekannten,wir,Stadt,Wohnung,wir,nicht,mit,das,man,aus,ich,schon,die,schmutzige,schönen,dauerte,jetzt,richtige,warmem,wurden,vierte,Büschel,viel,bekannten,auf,ein,"Japan,","nicht,",Bluts,mit,den,Farbe,war,Kilowattstunden,ich,,,,,,,,,,,,,,,,,,,,,,,4,0,4,0,0,4,4,4,,,,,,,,space,0.291951179504,,,,,,2017_Jan_24_1200,59.4145386499,spr_backupper,001,Di12,
,monatlichem,gelegentlichen,der,derer,Lärm,Mann,auf,serviert.,würden,Glas,"reichem,",klassischen,Wetter,350,des,leider,unzureichenden,im,Störenfriede,salzige,ziemlich,vor,salziger,zusätzlichem,350,frisches,seltenem,kaltem,sie,deren,Krams,die,eine,wurden,einen,"frischem,",hätten,unzureichenden,eine,Störenfriede,Kram,wurden,im,harten,geschleudert.,feinem,Trinkwassers.,minimalem,Trinkwasser.,roten,künftigem,hat,purem,täglichem,elektrischer,auf,liegen,sauberen,mehr,Wäsche.,noch,sie,war,Skandals,von,liegen,des,um,am,einem,Auto,den,feinem,mehr,immer,Tiere,Wäsche.,Wetters,ungefähr,"nachgewiesen,","Zeit,",weichem,serviert.,Bundespräsident.,frischen,Lärm,Skandal,noch,Glas,die,was,hat,einem,roten,geschleudert.,die,elektrische,leider,,,,,,,,,,,,,,,,,,,,,,,4,0,4,0,0,5,5,5,,,,,,,,space,0.28685593605,,,,,,2017_Jan_24_1200,59.4145386499,spr_backupper,001,Di12,
,Taschengeld,Besucher.,Soldaten,sie,um,mehr,jeden,nan,seiner,köstlichen,goldenen,Schmuck,die,ml,Herrn,nichts,Helmen,Müll.,jeden.,Wurst,"vermiest,",Dezember,Wurst,schwarzem,ml,Gras,dichten,Abduschen,defekt,sie,aus,Stimmung,große,verschrottet.,Besucher.,kaltem,seiner,Helmen,große,jeden.,aus,verschrottet.,Müll.,Schaumstoff,nan,Kunsteis,nan,täglichen,nan,Planet,Einkommen,den,Alkohol,grünen,Energie.,jeden,die,Kraftstoff,als,nan,eine,defekt,aus,wiedergewählt.,den,die,Herrn,die,Hauptbahnhof.,Esslöffel,mehr,Soldaten,dichten,als,ruhig,artgerecht,nan,die,drei,dass,um,Untergrund,nan,nan,Grases,um,wiedergewählt.,eine,köstlicher,er,Tupperware,den,Esslöffel,Planeten,nan,Flut,Energie.,nichts,,,,,,,,,,,,,,,,,,,,,,,4,0,4,0,0,6,6,6,,,,,,,,space,0.29233789444,,,,,,2017_Jan_24_1200,59.4145386499,spr_backupper,001,Di12,
,selber,nan,des,überführt,jede,als,Fall,nan,Frau,Weins,Besatz,umgearbeitet.,Wohnung.,warmer,Gantenbein.,mitbringen.,zur,nan,nan,mit,dass,stattfinden.,mit,Kaffee,warme,zwängen.,Gewebe,gehärtet.,war.,überführt,dem,ziemlich,Menge,nan,nan,Saft,Frau,zur,Menge,nan,dem,nan,nan,gefertigt.,nan,eingesprüht.,nan,Einsatz,nan,ganz,haftbar.,Boden,verdünnt.,Tee,nan,Fall,Slums.,fahren.,einmal,nan,Sammlung,war.,Japan.,nan,Problemen,Slums.,Gantenbeins.,Probleme,nan,warmem,als,des,Stoff,einmal,diskutiert.,gehalten.,nan,Wohnung.,Tage.,das,Nadelhölzer,liegen.,nan,nan,zwängen.,jede,nan,Sammlung,Wein,trug.,ist.,Boden,warmen,ganz,nan,zurückgekehrt.,nan,mitbringen.,,,,,,,,,,,,,,,,,,,,,,,4,0,4,0,0,7,7,7,,,,,,,,space,0.25794506073,,,,,,2017_Jan_24_1200,59.4145386499,spr_backupper,001,Di12,
,kaufen.,nan,zweiten,wurden.,Menge,gerne.,genug.,nan,gepasst,schon,rekonstruiert.,nan,nan,Milch.,nan,nan,Schule.,nan,nan,an,es,nan,an,wiederbelebt.,Milch.,nan,wiederhergestellt.,nan,nan,wurden.,Haus,vermiest.,dunkler,nan,nan,besprochen.,gepasst.,Schule.,dunkle,nan,Haus,nan,nan,nan,nan,nan,nan,sinken.,nan,deutlich.,nan,berührt.,nan,wieder,nan,genug.,nan,nan,Rilke,nan,dumme,nan,nan,nan,im,nan,nan,im,nan,Honig,gerne.,zweiten,gefertigt.,Rilke.,nan,nan,nan,nan,nan,Medikament,umzusetzen.,nan,nan,nan,nan,Menge,nan,dummer,schon,nan,nan,berührt.,Honigs,deutlich.,nan,nan,nan,nan,,,,,,,,,,,,,,,,,,,,,,,4,0,4,0,0,8,8,8,,,,,,,,space,0.301904916763,,,,,,2017_Jan_24_1200,59.4145386499,spr_backupper,001,Di12,
,,,,,,,,,,,,,,,,,,,,,,,,,,,,,,,,,,,,,,,,,,,,,,,,,,,,,,,,,,,,,,,,,,,,,,,,,,,,,,,,,,,,,,,,,,,,,,,,,,,,,,,,,,,,,,,,,,,,,,,,,4,0,4,0,,,,,,,,,,,,,,None,,n,1.79172205925,,2017_Jan_24_1200,59.4145386499,spr_backupper,001,Di12,
,Jugendliche,Wir,Bei,Es,Man,Wir,100,Beträchtliche,Die,Bei,Das,Die,Sie,In,Die,Außer,Die,Viele,Außer,Ich,Es,Unter,Ich,Die,In,Wir,Danach,Die,Die,Es,Wir,Dass,Mit,Die,Wir,Sie,Die,Die,Mit,Außer,Wir,Die,Viele,Alle,Es,Die,Sie,Ihr,Sie,Im,Manche,Nicht,Die,Ich,Die,100,Am,Wir,In,Dort,Sie,Die,Die,Er,In,Am,Die,In,Die,Er,Wir,Bei,Er,In,Fernab,In,Dort,Sie,Der,In,Jetzt,Jungtiere,Beträchtliche,Walter,Wir,Man,Er,Sie,Bei,Die,Die,Nicht,Er,Im,Es,Als,Die,Außer,,,,,,,,,,,,,,,,,,,,,,,5,0,5,0,0,0,0,0,,,,,,,space,space,0.446378946304,,,,,0.754786968231,2017_Jan_24_1200,59.4145386499,spr_backupper,001,Di12,
,können,hatten,der,waren,machte,übergaben,g,Stücke,Schuhe,unserer,Tuch,Stücke,verlassen,den,Gäste,das,Kinder,Tonnen,dem,nehme,hat,keinen,nehme,müden,den,mussten,wurde,Formen,Uhr,waren,haben,es,dieser,Autos,hatten,haben,Schuhe,Kinder,dieser,den,haben,Autos,Tonnen,Betten,wurden,Eislaufbahnen,verbrauchen,Blutdruck,verbrauchen,Fernrohr,Kreditnehmer,ein,Lösung,wurde,Schule,g,äußeren,konnten,meinem,türmen,hatte,Uhr,"Uhr,",wurde,der,äußersten,Gäste,der,Linie,stellt,übergaben,der,hat,meinem,des,diesem,türmen,verlassen,Flug,einer,ist,sollten,Stücke,Scheel,mussten,machte,wurde,hatte,unserer,Uhr,Teilnehmerinnen,ein,stellt,Fernrohr,wurden,die,Schule,dem,,,,,,,,,,,,,,,,,,,,,,,5,0,5,0,0,1,1,1,,,,,,,,space,0.239500999451,,,,,,2017_Jan_24_1200,59.4145386499,spr_backupper,001,Di12,
,Kleidung,in,Feier,nur,mal,das,brauner,saftiges,in,Ankunft,wurde,wurden,wegen,Kakao,suchen,Essen,fuhren,gebrauchter,Bürgermeister,eine,uns,Umständen,eine,Teilnehmer,Kakao,uns,die,wurden,schlug,nur,jede,"regnete,",Methode,beider,in,die,in,fuhren,Methode,Bürgermeister,jede,beider,gebrauchte,wurden,Eimer,wurden,60,kann,60,sahen,sind,Tropfen,wird,damals,verbraucht,braunen,Rand,dann,Studium,sich,keine,schlug,die,trotz,Tat,Rand,suchen,Tat,101,die,dem,Feier,ein,Studium,Rummels,Zirkus,sich,wegen,zum,Studie,genau,immer,saftigen,war,uns,mal,trotz,keine,Ankunft,war,wussten,Tropfen,die,sahen,Eimer,Sonne,verbraucht,Essen,,,,,,,,,,,,,,,,,,,,,,,5,0,5,0,0,2,2,2,,,,,,,,space,0.251982927322,,,,,,2017_Jan_24_1200,59.4145386499,spr_backupper,001,Di12,
,bei,Dänemark,gedachte,kleinere,wieder,Auto,Zucker,Fleisch,Größe,stand,dann,aus,dem,gehören,die,kann,mit,Kleidung,beschuldigten,große,die,können,große,wurden,gehören,durch,Leinwand,unter,"sporadisch,",kleinere,Menge,hat,kann,beteiligter,Dänemark,Erlebnisse,Größe,mit,kann,beschuldigten,Menge,beteiligten,Kleidung,mit,roter,mit,Liter,schon,Liter,wir,mit,königliches,mit,schnell,260.000,Zuckers,der,mit,habe,Berge,Lust,"sporadisch,",er,des,wissen,der,die,wissen,hält,Masse,Mann,gedachte,Hemd,las,wurde,werden,Berge,des,Mond,wurde,die,auf,Fleischs,der,durch,wieder,dem,Lust,stand,aus,überwiegend,königlichen,Masse,wir,rote,"unterging,",260.000,kann,,,,,,,,,,,,,,,,,,,,,,,5,0,5,0,0,3,3,3,,,,,,,,space,0.276903867722,,,,,,2017_Jan_24_1200,59.4145386499,spr_backupper,001,Di12,
,ausreichendem,einen,man,"Delikte,",viel,dem,sind,wurden,36,ein,mit,"wertvollem,",schönen,immer,Wohnung,ich,solch,landen,die,Packung,Stimmung,Neuwahlen,Packung,mit,immer,Büschel,aus,"regelmäßigem,",obschon,"Delikte,",alten,uns,man,Fahrer,gelegentlich,bei,36,solchen,man,die,alten,Fahrer,landen,"üblichem,",Farbe,dauerhaftem,sprudelnden,bei,sprudelndes,den,"sämtlichem,",Blut,"reichlichem,",dank,Kilowattstunden,sind,Stadt,"minimalem,",ich,schmutziger,auf,obwohl,"trug,",bekannten,wir,Stadt,Wohnung,wir,nicht,mit,das,man,aus,ich,schon,die,schmutzige,schönen,dauerte,jetzt,richtige,warmem,wurden,vierte,Büschel,viel,bekannten,auf,ein,"Japan,","nicht,",Bluts,mit,den,Farbe,war,Kilowattstunden,ich,,,,,,,,,,,,,,,,,,,,,,,5,0,5,0,0,4,4,4,,,,,,,,space,0.376808166504,,,,,,2017_Jan_24_1200,59.4145386499,spr_backupper,001,Di12,
,monatlichem,gelegentlichen,der,derer,Lärm,Mann,auf,serviert.,würden,Glas,"reichem,",klassischen,Wetter,350,des,leider,unzureichenden,im,Störenfriede,salzige,ziemlich,vor,salziger,zusätzlichem,350,frisches,seltenem,kaltem,sie,deren,Krams,die,eine,wurden,einen,"frischem,",hätten,unzureichenden,eine,Störenfriede,Kram,wurden,im,harten,geschleudert.,feinem,Trinkwassers.,minimalem,Trinkwasser.,roten,künftigem,hat,purem,täglichem,elektrischer,auf,liegen,sauberen,mehr,Wäsche.,noch,sie,war,Skandals,von,liegen,des,um,am,einem,Auto,den,feinem,mehr,immer,Tiere,Wäsche.,Wetters,ungefähr,"nachgewiesen,","Zeit,",weichem,serviert.,Bundespräsident.,frischen,Lärm,Skandal,noch,Glas,die,was,hat,einem,roten,geschleudert.,die,elektrische,leider,,,,,,,,,,,,,,,,,,,,,,,5,0,5,0,0,5,5,5,,,,,,,,space,0.286015987396,,,,,,2017_Jan_24_1200,59.4145386499,spr_backupper,001,Di12,
,Taschengeld,Besucher.,Soldaten,sie,um,mehr,jeden,nan,seiner,köstlichen,goldenen,Schmuck,die,ml,Herrn,nichts,Helmen,Müll.,jeden.,Wurst,"vermiest,",Dezember,Wurst,schwarzem,ml,Gras,dichten,Abduschen,defekt,sie,aus,Stimmung,große,verschrottet.,Besucher.,kaltem,seiner,Helmen,große,jeden.,aus,verschrottet.,Müll.,Schaumstoff,nan,Kunsteis,nan,täglichen,nan,Planet,Einkommen,den,Alkohol,grünen,Energie.,jeden,die,Kraftstoff,als,nan,eine,defekt,aus,wiedergewählt.,den,die,Herrn,die,Hauptbahnhof.,Esslöffel,mehr,Soldaten,dichten,als,ruhig,artgerecht,nan,die,drei,dass,um,Untergrund,nan,nan,Grases,um,wiedergewählt.,eine,köstlicher,er,Tupperware,den,Esslöffel,Planeten,nan,Flut,Energie.,nichts,,,,,,,,,,,,,,,,,,,,,,,5,0,5,0,0,6,6,6,,,,,,,,space,0.270844936371,,,,,,2017_Jan_24_1200,59.4145386499,spr_backupper,001,Di12,
,selber,nan,des,überführt,jede,als,Fall,nan,Frau,Weins,Besatz,umgearbeitet.,Wohnung.,warmer,Gantenbein.,mitbringen.,zur,nan,nan,mit,dass,stattfinden.,mit,Kaffee,warme,zwängen.,Gewebe,gehärtet.,war.,überführt,dem,ziemlich,Menge,nan,nan,Saft,Frau,zur,Menge,nan,dem,nan,nan,gefertigt.,nan,eingesprüht.,nan,Einsatz,nan,ganz,haftbar.,Boden,verdünnt.,Tee,nan,Fall,Slums.,fahren.,einmal,nan,Sammlung,war.,Japan.,nan,Problemen,Slums.,Gantenbeins.,Probleme,nan,warmem,als,des,Stoff,einmal,diskutiert.,gehalten.,nan,Wohnung.,Tage.,das,Nadelhölzer,liegen.,nan,nan,zwängen.,jede,nan,Sammlung,Wein,trug.,ist.,Boden,warmen,ganz,nan,zurückgekehrt.,nan,mitbringen.,,,,,,,,,,,,,,,,,,,,,,,5,0,5,0,0,7,7,7,,,,,,,,space,0.291184186935,,,,,,2017_Jan_24_1200,59.4145386499,spr_backupper,001,Di12,
,kaufen.,nan,zweiten,wurden.,Menge,gerne.,genug.,nan,gepasst,schon,rekonstruiert.,nan,nan,Milch.,nan,nan,Schule.,nan,nan,an,es,nan,an,wiederbelebt.,Milch.,nan,wiederhergestellt.,nan,nan,wurden.,Haus,vermiest.,dunkler,nan,nan,besprochen.,gepasst.,Schule.,dunkle,nan,Haus,nan,nan,nan,nan,nan,nan,sinken.,nan,deutlich.,nan,berührt.,nan,wieder,nan,genug.,nan,nan,Rilke,nan,dumme,nan,nan,nan,im,nan,nan,im,nan,Honig,gerne.,zweiten,gefertigt.,Rilke.,nan,nan,nan,nan,nan,Medikament,umzusetzen.,nan,nan,nan,nan,Menge,nan,dummer,schon,nan,nan,berührt.,Honigs,deutlich.,nan,nan,nan,nan,,,,,,,,,,,,,,,,,,,,,,,5,0,5,0,0,8,8,8,,,,,,,,space,0.275146007538,,,,,,2017_Jan_24_1200,59.4145386499,spr_backupper,001,Di12,
,nan,nan,Weltkriegs.,nan,heißer,nan,nan,nan,haben.,auf,nan,nan,nan,nan,nan,nan,nan,nan,nan,den,regnete.,nan,den,nan,nan,nan,nan,nan,nan,nan,geschafft.,nan,Materie,nan,nan,nan,nan,nan,Materie,nan,geschafft.,nan,nan,nan,nan,nan,nan,nan,nan,nan,nan,nan,nan,fit.,nan,nan,nan,nan,gelesen.,nan,Sprüche.,nan,nan,nan,Landkreis.,nan,nan,Landkreis.,nan,her.,nan,Weltkriegs.,nan,nan,nan,nan,nan,nan,nan,nicht,nan,nan,nan,nan,nan,heiße,nan,Sprüche.,auf,nan,nan,nan,her.,nan,nan,nan,nan,nan,,,,,,,,,,,,,,,,,,,,,,,5,0,5,0,0,9,9,9,,,,,,,,space,0.260031938553,,,,,,2017_Jan_24_1200,59.4145386499,spr_backupper,001,Di12,
,nan,nan,nan,nan,Luft.,nan,nan,nan,nan,dem,nan,nan,nan,nan,nan,nan,nan,nan,nan,See.,nan,nan,See.,nan,nan,nan,nan,nan,nan,nan,nan,nan,erzeugen.,nan,nan,nan,nan,nan,erzeugen.,nan,nan,nan,nan,nan,nan,nan,nan,nan,nan,nan,nan,nan,nan,nan,nan,nan,nan,nan,nan,nan,nan,nan,nan,nan,nan,nan,nan,nan,nan,nan,nan,nan,nan,nan,nan,nan,nan,nan,nan,wirkt.,nan,nan,nan,nan,nan,Luft.,nan,nan,dem,nan,nan,nan,nan,nan,nan,nan,nan,nan,,,,,,,,,,,,,,,,,,,,,,,5,0,5,0,0,10,10,10,,,,,,,,space,0.259757041931,,,,,,2017_Jan_24_1200,59.4145386499,spr_backupper,001,Di12,
,nan,nan,nan,nan,nan,nan,nan,nan,nan,Tisch.,nan,nan,nan,nan,nan,nan,nan,nan,nan,nan,nan,nan,nan,nan,nan,nan,nan,nan,nan,nan,nan,nan,nan,nan,nan,nan,nan,nan,nan,nan,nan,nan,nan,nan,nan,nan,nan,nan,nan,nan,nan,nan,nan,nan,nan,nan,nan,nan,nan,nan,nan,nan,nan,nan,nan,nan,nan,nan,nan,nan,nan,nan,nan,nan,nan,nan,nan,nan,nan,nan,nan,nan,nan,nan,nan,nan,nan,nan,Tisch.,nan,nan,nan,nan,nan,nan,nan,nan,nan,,,,,,,,,,,,,,,,,,,,,,,5,0,5,0,0,11,11,11,,,,,,,,space,0.268558979034,,,,,,2017_Jan_24_1200,59.4145386499,spr_backupper,001,Di12,
,,,,,,,,,,,,,,,,,,,,,,,,,,,,,,,,,,,,,,,,,,,,,,,,,,,,,,,,,,,,,,,,,,,,,,,,,,,,,,,,,,,,,,,,,,,,,,,,,,,,,,,,,,,,,,,,,,,,,,,,,5,0,5,0,,,,,,,,,,,,,,space,1.12378716469,n,2.13050508499,,2017_Jan_24_1200,59.4145386499,spr_backupper,001,Di12,
,Jugendliche,Wir,Bei,Es,Man,Wir,100,Beträchtliche,Die,Bei,Das,Die,Sie,In,Die,Außer,Die,Viele,Außer,Ich,Es,Unter,Ich,Die,In,Wir,Danach,Die,Die,Es,Wir,Dass,Mit,Die,Wir,Sie,Die,Die,Mit,Außer,Wir,Die,Viele,Alle,Es,Die,Sie,Ihr,Sie,Im,Manche,Nicht,Die,Ich,Die,100,Am,Wir,In,Dort,Sie,Die,Die,Er,In,Am,Die,In,Die,Er,Wir,Bei,Er,In,Fernab,In,Dort,Sie,Der,In,Jetzt,Jungtiere,Beträchtliche,Walter,Wir,Man,Er,Sie,Bei,Die,Die,Nicht,Er,Im,Es,Als,Die,Außer,,,,,,,,,,,,,,,,,,,,,,,6,0,6,0,0,0,0,0,,,,,,,space,space,0.522079944611,,,,,1.30821609497,2017_Jan_24_1200,59.4145386499,spr_backupper,001,Di12,
,können,hatten,der,waren,machte,übergaben,g,Stücke,Schuhe,unserer,Tuch,Stücke,verlassen,den,Gäste,das,Kinder,Tonnen,dem,nehme,hat,keinen,nehme,müden,den,mussten,wurde,Formen,Uhr,waren,haben,es,dieser,Autos,hatten,haben,Schuhe,Kinder,dieser,den,haben,Autos,Tonnen,Betten,wurden,Eislaufbahnen,verbrauchen,Blutdruck,verbrauchen,Fernrohr,Kreditnehmer,ein,Lösung,wurde,Schule,g,äußeren,konnten,meinem,türmen,hatte,Uhr,"Uhr,",wurde,der,äußersten,Gäste,der,Linie,stellt,übergaben,der,hat,meinem,des,diesem,türmen,verlassen,Flug,einer,ist,sollten,Stücke,Scheel,mussten,machte,wurde,hatte,unserer,Uhr,Teilnehmerinnen,ein,stellt,Fernrohr,wurden,die,Schule,dem,,,,,,,,,,,,,,,,,,,,,,,6,0,6,0,0,1,1,1,,,,,,,,space,0.290368080139,,,,,,2017_Jan_24_1200,59.4145386499,spr_backupper,001,Di12,
,Kleidung,in,Feier,nur,mal,das,brauner,saftiges,in,Ankunft,wurde,wurden,wegen,Kakao,suchen,Essen,fuhren,gebrauchter,Bürgermeister,eine,uns,Umständen,eine,Teilnehmer,Kakao,uns,die,wurden,schlug,nur,jede,"regnete,",Methode,beider,in,die,in,fuhren,Methode,Bürgermeister,jede,beider,gebrauchte,wurden,Eimer,wurden,60,kann,60,sahen,sind,Tropfen,wird,damals,verbraucht,braunen,Rand,dann,Studium,sich,keine,schlug,die,trotz,Tat,Rand,suchen,Tat,101,die,dem,Feier,ein,Studium,Rummels,Zirkus,sich,wegen,zum,Studie,genau,immer,saftigen,war,uns,mal,trotz,keine,Ankunft,war,wussten,Tropfen,die,sahen,Eimer,Sonne,verbraucht,Essen,,,,,,,,,,,,,,,,,,,,,,,6,0,6,0,0,2,2,2,,,,,,,,space,0.316473007202,,,,,,2017_Jan_24_1200,59.4145386499,spr_backupper,001,Di12,
,bei,Dänemark,gedachte,kleinere,wieder,Auto,Zucker,Fleisch,Größe,stand,dann,aus,dem,gehören,die,kann,mit,Kleidung,beschuldigten,große,die,können,große,wurden,gehören,durch,Leinwand,unter,"sporadisch,",kleinere,Menge,hat,kann,beteiligter,Dänemark,Erlebnisse,Größe,mit,kann,beschuldigten,Menge,beteiligten,Kleidung,mit,roter,mit,Liter,schon,Liter,wir,mit,königliches,mit,schnell,260.000,Zuckers,der,mit,habe,Berge,Lust,"sporadisch,",er,des,wissen,der,die,wissen,hält,Masse,Mann,gedachte,Hemd,las,wurde,werden,Berge,des,Mond,wurde,die,auf,Fleischs,der,durch,wieder,dem,Lust,stand,aus,überwiegend,königlichen,Masse,wir,rote,"unterging,",260.000,kann,,,,,,,,,,,,,,,,,,,,,,,6,0,6,0,0,3,3,3,,,,,,,,space,0.285785198212,,,,,,2017_Jan_24_1200,59.4145386499,spr_backupper,001,Di12,
,ausreichendem,einen,man,"Delikte,",viel,dem,sind,wurden,36,ein,mit,"wertvollem,",schönen,immer,Wohnung,ich,solch,landen,die,Packung,Stimmung,Neuwahlen,Packung,mit,immer,Büschel,aus,"regelmäßigem,",obschon,"Delikte,",alten,uns,man,Fahrer,gelegentlich,bei,36,solchen,man,die,alten,Fahrer,landen,"üblichem,",Farbe,dauerhaftem,sprudelnden,bei,sprudelndes,den,"sämtlichem,",Blut,"reichlichem,",dank,Kilowattstunden,sind,Stadt,"minimalem,",ich,schmutziger,auf,obwohl,"trug,",bekannten,wir,Stadt,Wohnung,wir,nicht,mit,das,man,aus,ich,schon,die,schmutzige,schönen,dauerte,jetzt,richtige,warmem,wurden,vierte,Büschel,viel,bekannten,auf,ein,"Japan,","nicht,",Bluts,mit,den,Farbe,war,Kilowattstunden,ich,,,,,,,,,,,,,,,,,,,,,,,6,0,6,0,0,4,4,4,,,,,,,,space,0.267076969147,,,,,,2017_Jan_24_1200,59.4145386499,spr_backupper,001,Di12,
,monatlichem,gelegentlichen,der,derer,Lärm,Mann,auf,serviert.,würden,Glas,"reichem,",klassischen,Wetter,350,des,leider,unzureichenden,im,Störenfriede,salzige,ziemlich,vor,salziger,zusätzlichem,350,frisches,seltenem,kaltem,sie,deren,Krams,die,eine,wurden,einen,"frischem,",hätten,unzureichenden,eine,Störenfriede,Kram,wurden,im,harten,geschleudert.,feinem,Trinkwassers.,minimalem,Trinkwasser.,roten,künftigem,hat,purem,täglichem,elektrischer,auf,liegen,sauberen,mehr,Wäsche.,noch,sie,war,Skandals,von,liegen,des,um,am,einem,Auto,den,feinem,mehr,immer,Tiere,Wäsche.,Wetters,ungefähr,"nachgewiesen,","Zeit,",weichem,serviert.,Bundespräsident.,frischen,Lärm,Skandal,noch,Glas,die,was,hat,einem,roten,geschleudert.,die,elektrische,leider,,,,,,,,,,,,,,,,,,,,,,,6,0,6,0,0,5,5,5,,,,,,,,space,0.285744905472,,,,,,2017_Jan_24_1200,59.4145386499,spr_backupper,001,Di12,
,Taschengeld,Besucher.,Soldaten,sie,um,mehr,jeden,nan,seiner,köstlichen,goldenen,Schmuck,die,ml,Herrn,nichts,Helmen,Müll.,jeden.,Wurst,"vermiest,",Dezember,Wurst,schwarzem,ml,Gras,dichten,Abduschen,defekt,sie,aus,Stimmung,große,verschrottet.,Besucher.,kaltem,seiner,Helmen,große,jeden.,aus,verschrottet.,Müll.,Schaumstoff,nan,Kunsteis,nan,täglichen,nan,Planet,Einkommen,den,Alkohol,grünen,Energie.,jeden,die,Kraftstoff,als,nan,eine,defekt,aus,wiedergewählt.,den,die,Herrn,die,Hauptbahnhof.,Esslöffel,mehr,Soldaten,dichten,als,ruhig,artgerecht,nan,die,drei,dass,um,Untergrund,nan,nan,Grases,um,wiedergewählt.,eine,köstlicher,er,Tupperware,den,Esslöffel,Planeten,nan,Flut,Energie.,nichts,,,,,,,,,,,,,,,,,,,,,,,6,0,6,0,0,6,6,6,,,,,,,,space,0.263055086136,,,,,,2017_Jan_24_1200,59.4145386499,spr_backupper,001,Di12,
,selber,nan,des,überführt,jede,als,Fall,nan,Frau,Weins,Besatz,umgearbeitet.,Wohnung.,warmer,Gantenbein.,mitbringen.,zur,nan,nan,mit,dass,stattfinden.,mit,Kaffee,warme,zwängen.,Gewebe,gehärtet.,war.,überführt,dem,ziemlich,Menge,nan,nan,Saft,Frau,zur,Menge,nan,dem,nan,nan,gefertigt.,nan,eingesprüht.,nan,Einsatz,nan,ganz,haftbar.,Boden,verdünnt.,Tee,nan,Fall,Slums.,fahren.,einmal,nan,Sammlung,war.,Japan.,nan,Problemen,Slums.,Gantenbeins.,Probleme,nan,warmem,als,des,Stoff,einmal,diskutiert.,gehalten.,nan,Wohnung.,Tage.,das,Nadelhölzer,liegen.,nan,nan,zwängen.,jede,nan,Sammlung,Wein,trug.,ist.,Boden,warmen,ganz,nan,zurückgekehrt.,nan,mitbringen.,,,,,,,,,,,,,,,,,,,,,,,6,0,6,0,0,7,7,7,,,,,,,,space,0.245475053787,,,,,,2017_Jan_24_1200,59.4145386499,spr_backupper,001,Di12,
,kaufen.,nan,zweiten,wurden.,Menge,gerne.,genug.,nan,gepasst,schon,rekonstruiert.,nan,nan,Milch.,nan,nan,Schule.,nan,nan,an,es,nan,an,wiederbelebt.,Milch.,nan,wiederhergestellt.,nan,nan,wurden.,Haus,vermiest.,dunkler,nan,nan,besprochen.,gepasst.,Schule.,dunkle,nan,Haus,nan,nan,nan,nan,nan,nan,sinken.,nan,deutlich.,nan,berührt.,nan,wieder,nan,genug.,nan,nan,Rilke,nan,dumme,nan,nan,nan,im,nan,nan,im,nan,Honig,gerne.,zweiten,gefertigt.,Rilke.,nan,nan,nan,nan,nan,Medikament,umzusetzen.,nan,nan,nan,nan,Menge,nan,dummer,schon,nan,nan,berührt.,Honigs,deutlich.,nan,nan,nan,nan,,,,,,,,,,,,,,,,,,,,,,,6,0,6,0,0,8,8,8,,,,,,,,space,0.240516901016,,,,,,2017_Jan_24_1200,59.4145386499,spr_backupper,001,Di12,
,nan,nan,Weltkriegs.,nan,heißer,nan,nan,nan,haben.,auf,nan,nan,nan,nan,nan,nan,nan,nan,nan,den,regnete.,nan,den,nan,nan,nan,nan,nan,nan,nan,geschafft.,nan,Materie,nan,nan,nan,nan,nan,Materie,nan,geschafft.,nan,nan,nan,nan,nan,nan,nan,nan,nan,nan,nan,nan,fit.,nan,nan,nan,nan,gelesen.,nan,Sprüche.,nan,nan,nan,Landkreis.,nan,nan,Landkreis.,nan,her.,nan,Weltkriegs.,nan,nan,nan,nan,nan,nan,nan,nicht,nan,nan,nan,nan,nan,heiße,nan,Sprüche.,auf,nan,nan,nan,her.,nan,nan,nan,nan,nan,,,,,,,,,,,,,,,,,,,,,,,6,0,6,0,0,9,9,9,,,,,,,,space,0.277863025665,,,,,,2017_Jan_24_1200,59.4145386499,spr_backupper,001,Di12,
,,,,,,,,,,,,,,,,,,,,,,,,,,,,,,,,,,,,,,,,,,,,,,,,,,,,,,,,,,,,,,,,,,,,,,,,,,,,,,,,,,,,,,,,,,,,,,,,,,,,,,,,,,,,,,,,,,,,,,,,,6,0,6,0,,,,,,,,,,,,,,None,,n,3.92999100685,,2017_Jan_24_1200,59.4145386499,spr_backupper,001,Di12,
,Jugendliche,Wir,Bei,Es,Man,Wir,100,Beträchtliche,Die,Bei,Das,Die,Sie,In,Die,Außer,Die,Viele,Außer,Ich,Es,Unter,Ich,Die,In,Wir,Danach,Die,Die,Es,Wir,Dass,Mit,Die,Wir,Sie,Die,Die,Mit,Außer,Wir,Die,Viele,Alle,Es,Die,Sie,Ihr,Sie,Im,Manche,Nicht,Die,Ich,Die,100,Am,Wir,In,Dort,Sie,Die,Die,Er,In,Am,Die,In,Die,Er,Wir,Bei,Er,In,Fernab,In,Dort,Sie,Der,In,Jetzt,Jungtiere,Beträchtliche,Walter,Wir,Man,Er,Sie,Bei,Die,Die,Nicht,Er,Im,Es,Als,Die,Außer,,,,,,,,,,,,,,,,,,,,,,,7,0,7,0,0,0,0,0,,,,,,,space,space,0.408818006516,,,,,0.604552030563,2017_Jan_24_1200,59.4145386499,spr_backupper,001,Di12,
,können,hatten,der,waren,machte,übergaben,g,Stücke,Schuhe,unserer,Tuch,Stücke,verlassen,den,Gäste,das,Kinder,Tonnen,dem,nehme,hat,keinen,nehme,müden,den,mussten,wurde,Formen,Uhr,waren,haben,es,dieser,Autos,hatten,haben,Schuhe,Kinder,dieser,den,haben,Autos,Tonnen,Betten,wurden,Eislaufbahnen,verbrauchen,Blutdruck,verbrauchen,Fernrohr,Kreditnehmer,ein,Lösung,wurde,Schule,g,äußeren,konnten,meinem,türmen,hatte,Uhr,"Uhr,",wurde,der,äußersten,Gäste,der,Linie,stellt,übergaben,der,hat,meinem,des,diesem,türmen,verlassen,Flug,einer,ist,sollten,Stücke,Scheel,mussten,machte,wurde,hatte,unserer,Uhr,Teilnehmerinnen,ein,stellt,Fernrohr,wurden,die,Schule,dem,,,,,,,,,,,,,,,,,,,,,,,7,0,7,0,0,1,1,1,,,,,,,,space,0.369240999222,,,,,,2017_Jan_24_1200,59.4145386499,spr_backupper,001,Di12,
,Kleidung,in,Feier,nur,mal,das,brauner,saftiges,in,Ankunft,wurde,wurden,wegen,Kakao,suchen,Essen,fuhren,gebrauchter,Bürgermeister,eine,uns,Umständen,eine,Teilnehmer,Kakao,uns,die,wurden,schlug,nur,jede,"regnete,",Methode,beider,in,die,in,fuhren,Methode,Bürgermeister,jede,beider,gebrauchte,wurden,Eimer,wurden,60,kann,60,sahen,sind,Tropfen,wird,damals,verbraucht,braunen,Rand,dann,Studium,sich,keine,schlug,die,trotz,Tat,Rand,suchen,Tat,101,die,dem,Feier,ein,Studium,Rummels,Zirkus,sich,wegen,zum,Studie,genau,immer,saftigen,war,uns,mal,trotz,keine,Ankunft,war,wussten,Tropfen,die,sahen,Eimer,Sonne,verbraucht,Essen,,,,,,,,,,,,,,,,,,,,,,,7,0,7,0,0,2,2,2,,,,,,,,space,0.399670124054,,,,,,2017_Jan_24_1200,59.4145386499,spr_backupper,001,Di12,
,bei,Dänemark,gedachte,kleinere,wieder,Auto,Zucker,Fleisch,Größe,stand,dann,aus,dem,gehören,die,kann,mit,Kleidung,beschuldigten,große,die,können,große,wurden,gehören,durch,Leinwand,unter,"sporadisch,",kleinere,Menge,hat,kann,beteiligter,Dänemark,Erlebnisse,Größe,mit,kann,beschuldigten,Menge,beteiligten,Kleidung,mit,roter,mit,Liter,schon,Liter,wir,mit,königliches,mit,schnell,260.000,Zuckers,der,mit,habe,Berge,Lust,"sporadisch,",er,des,wissen,der,die,wissen,hält,Masse,Mann,gedachte,Hemd,las,wurde,werden,Berge,des,Mond,wurde,die,auf,Fleischs,der,durch,wieder,dem,Lust,stand,aus,überwiegend,königlichen,Masse,wir,rote,"unterging,",260.000,kann,,,,,,,,,,,,,,,,,,,,,,,7,0,7,0,0,3,3,3,,,,,,,,space,0.368525981903,,,,,,2017_Jan_24_1200,59.4145386499,spr_backupper,001,Di12,
,ausreichendem,einen,man,"Delikte,",viel,dem,sind,wurden,36,ein,mit,"wertvollem,",schönen,immer,Wohnung,ich,solch,landen,die,Packung,Stimmung,Neuwahlen,Packung,mit,immer,Büschel,aus,"regelmäßigem,",obschon,"Delikte,",alten,uns,man,Fahrer,gelegentlich,bei,36,solchen,man,die,alten,Fahrer,landen,"üblichem,",Farbe,dauerhaftem,sprudelnden,bei,sprudelndes,den,"sämtlichem,",Blut,"reichlichem,",dank,Kilowattstunden,sind,Stadt,"minimalem,",ich,schmutziger,auf,obwohl,"trug,",bekannten,wir,Stadt,Wohnung,wir,nicht,mit,das,man,aus,ich,schon,die,schmutzige,schönen,dauerte,jetzt,richtige,warmem,wurden,vierte,Büschel,viel,bekannten,auf,ein,"Japan,","nicht,",Bluts,mit,den,Farbe,war,Kilowattstunden,ich,,,,,,,,,,,,,,,,,,,,,,,7,0,7,0,0,4,4,4,,,,,,,,space,0.368985891342,,,,,,2017_Jan_24_1200,59.4145386499,spr_backupper,001,Di12,
,monatlichem,gelegentlichen,der,derer,Lärm,Mann,auf,serviert.,würden,Glas,"reichem,",klassischen,Wetter,350,des,leider,unzureichenden,im,Störenfriede,salzige,ziemlich,vor,salziger,zusätzlichem,350,frisches,seltenem,kaltem,sie,deren,Krams,die,eine,wurden,einen,"frischem,",hätten,unzureichenden,eine,Störenfriede,Kram,wurden,im,harten,geschleudert.,feinem,Trinkwassers.,minimalem,Trinkwasser.,roten,künftigem,hat,purem,täglichem,elektrischer,auf,liegen,sauberen,mehr,Wäsche.,noch,sie,war,Skandals,von,liegen,des,um,am,einem,Auto,den,feinem,mehr,immer,Tiere,Wäsche.,Wetters,ungefähr,"nachgewiesen,","Zeit,",weichem,serviert.,Bundespräsident.,frischen,Lärm,Skandal,noch,Glas,die,was,hat,einem,roten,geschleudert.,die,elektrische,leider,,,,,,,,,,,,,,,,,,,,,,,7,0,7,0,0,5,5,5,,,,,,,,space,0.284793138504,,,,,,2017_Jan_24_1200,59.4145386499,spr_backupper,001,Di12,
,Taschengeld,Besucher.,Soldaten,sie,um,mehr,jeden,nan,seiner,köstlichen,goldenen,Schmuck,die,ml,Herrn,nichts,Helmen,Müll.,jeden.,Wurst,"vermiest,",Dezember,Wurst,schwarzem,ml,Gras,dichten,Abduschen,defekt,sie,aus,Stimmung,große,verschrottet.,Besucher.,kaltem,seiner,Helmen,große,jeden.,aus,verschrottet.,Müll.,Schaumstoff,nan,Kunsteis,nan,täglichen,nan,Planet,Einkommen,den,Alkohol,grünen,Energie.,jeden,die,Kraftstoff,als,nan,eine,defekt,aus,wiedergewählt.,den,die,Herrn,die,Hauptbahnhof.,Esslöffel,mehr,Soldaten,dichten,als,ruhig,artgerecht,nan,die,drei,dass,um,Untergrund,nan,nan,Grases,um,wiedergewählt.,eine,köstlicher,er,Tupperware,den,Esslöffel,Planeten,nan,Flut,Energie.,nichts,,,,,,,,,,,,,,,,,,,,,,,7,0,7,0,0,6,6,6,,,,,,,,space,0.258763074875,,,,,,2017_Jan_24_1200,59.4145386499,spr_backupper,001,Di12,
,selber,nan,des,überführt,jede,als,Fall,nan,Frau,Weins,Besatz,umgearbeitet.,Wohnung.,warmer,Gantenbein.,mitbringen.,zur,nan,nan,mit,dass,stattfinden.,mit,Kaffee,warme,zwängen.,Gewebe,gehärtet.,war.,überführt,dem,ziemlich,Menge,nan,nan,Saft,Frau,zur,Menge,nan,dem,nan,nan,gefertigt.,nan,eingesprüht.,nan,Einsatz,nan,ganz,haftbar.,Boden,verdünnt.,Tee,nan,Fall,Slums.,fahren.,einmal,nan,Sammlung,war.,Japan.,nan,Problemen,Slums.,Gantenbeins.,Probleme,nan,warmem,als,des,Stoff,einmal,diskutiert.,gehalten.,nan,Wohnung.,Tage.,das,Nadelhölzer,liegen.,nan,nan,zwängen.,jede,nan,Sammlung,Wein,trug.,ist.,Boden,warmen,ganz,nan,zurückgekehrt.,nan,mitbringen.,,,,,,,,,,,,,,,,,,,,,,,7,0,7,0,0,7,7,7,,,,,,,,space,0.402125835419,,,,,,2017_Jan_24_1200,59.4145386499,spr_backupper,001,Di12,
,kaufen.,nan,zweiten,wurden.,Menge,gerne.,genug.,nan,gepasst,schon,rekonstruiert.,nan,nan,Milch.,nan,nan,Schule.,nan,nan,an,es,nan,an,wiederbelebt.,Milch.,nan,wiederhergestellt.,nan,nan,wurden.,Haus,vermiest.,dunkler,nan,nan,besprochen.,gepasst.,Schule.,dunkle,nan,Haus,nan,nan,nan,nan,nan,nan,sinken.,nan,deutlich.,nan,berührt.,nan,wieder,nan,genug.,nan,nan,Rilke,nan,dumme,nan,nan,nan,im,nan,nan,im,nan,Honig,gerne.,zweiten,gefertigt.,Rilke.,nan,nan,nan,nan,nan,Medikament,umzusetzen.,nan,nan,nan,nan,Menge,nan,dummer,schon,nan,nan,berührt.,Honigs,deutlich.,nan,nan,nan,nan,,,,,,,,,,,,,,,,,,,,,,,7,0,7,0,0,8,8,8,,,,,,,,space,0.291450977325,,,,,,2017_Jan_24_1200,59.4145386499,spr_backupper,001,Di12,
,nan,nan,Weltkriegs.,nan,heißer,nan,nan,nan,haben.,auf,nan,nan,nan,nan,nan,nan,nan,nan,nan,den,regnete.,nan,den,nan,nan,nan,nan,nan,nan,nan,geschafft.,nan,Materie,nan,nan,nan,nan,nan,Materie,nan,geschafft.,nan,nan,nan,nan,nan,nan,nan,nan,nan,nan,nan,nan,fit.,nan,nan,nan,nan,gelesen.,nan,Sprüche.,nan,nan,nan,Landkreis.,nan,nan,Landkreis.,nan,her.,nan,Weltkriegs.,nan,nan,nan,nan,nan,nan,nan,nicht,nan,nan,nan,nan,nan,heiße,nan,Sprüche.,auf,nan,nan,nan,her.,nan,nan,nan,nan,nan,,,,,,,,,,,,,,,,,,,,,,,7,0,7,0,0,9,9,9,,,,,,,,space,0.291619062424,,,,,,2017_Jan_24_1200,59.4145386499,spr_backupper,001,Di12,
,,,,,,,,,,,,,,,,,,,,,,,,,,,,,,,,,,,,,,,,,,,,,,,,,,,,,,,,,,,,,,,,,,,,,,,,,,,,,,,,,,,,,,,,,,,,,,,,,,,,,,,,,,,,,,,,,,,,,,,,,7,0,7,0,,,,,,,,,,,,,,None,,j,11.3683969975,,2017_Jan_24_1200,59.4145386499,spr_backupper,001,Di12,
,Jugendliche,Wir,Bei,Es,Man,Wir,100,Beträchtliche,Die,Bei,Das,Die,Sie,In,Die,Außer,Die,Viele,Außer,Ich,Es,Unter,Ich,Die,In,Wir,Danach,Die,Die,Es,Wir,Dass,Mit,Die,Wir,Sie,Die,Die,Mit,Außer,Wir,Die,Viele,Alle,Es,Die,Sie,Ihr,Sie,Im,Manche,Nicht,Die,Ich,Die,100,Am,Wir,In,Dort,Sie,Die,Die,Er,In,Am,Die,In,Die,Er,Wir,Bei,Er,In,Fernab,In,Dort,Sie,Der,In,Jetzt,Jungtiere,Beträchtliche,Walter,Wir,Man,Er,Sie,Bei,Die,Die,Nicht,Er,Im,Es,Als,Die,Außer,,,,,,,,,,,,,,,,,,,,,,,8,0,8,0,0,0,0,0,,,,,,,space,space,0.535621881485,,,,,0.989904165268,2017_Jan_24_1200,59.4145386499,spr_backupper,001,Di12,
,können,hatten,der,waren,machte,übergaben,g,Stücke,Schuhe,unserer,Tuch,Stücke,verlassen,den,Gäste,das,Kinder,Tonnen,dem,nehme,hat,keinen,nehme,müden,den,mussten,wurde,Formen,Uhr,waren,haben,es,dieser,Autos,hatten,haben,Schuhe,Kinder,dieser,den,haben,Autos,Tonnen,Betten,wurden,Eislaufbahnen,verbrauchen,Blutdruck,verbrauchen,Fernrohr,Kreditnehmer,ein,Lösung,wurde,Schule,g,äußeren,konnten,meinem,türmen,hatte,Uhr,"Uhr,",wurde,der,äußersten,Gäste,der,Linie,stellt,übergaben,der,hat,meinem,des,diesem,türmen,verlassen,Flug,einer,ist,sollten,Stücke,Scheel,mussten,machte,wurde,hatte,unserer,Uhr,Teilnehmerinnen,ein,stellt,Fernrohr,wurden,die,Schule,dem,,,,,,,,,,,,,,,,,,,,,,,8,0,8,0,0,1,1,1,,,,,,,,space,0.348954916,,,,,,2017_Jan_24_1200,59.4145386499,spr_backupper,001,Di12,
,Kleidung,in,Feier,nur,mal,das,brauner,saftiges,in,Ankunft,wurde,wurden,wegen,Kakao,suchen,Essen,fuhren,gebrauchter,Bürgermeister,eine,uns,Umständen,eine,Teilnehmer,Kakao,uns,die,wurden,schlug,nur,jede,"regnete,",Methode,beider,in,die,in,fuhren,Methode,Bürgermeister,jede,beider,gebrauchte,wurden,Eimer,wurden,60,kann,60,sahen,sind,Tropfen,wird,damals,verbraucht,braunen,Rand,dann,Studium,sich,keine,schlug,die,trotz,Tat,Rand,suchen,Tat,101,die,dem,Feier,ein,Studium,Rummels,Zirkus,sich,wegen,zum,Studie,genau,immer,saftigen,war,uns,mal,trotz,keine,Ankunft,war,wussten,Tropfen,die,sahen,Eimer,Sonne,verbraucht,Essen,,,,,,,,,,,,,,,,,,,,,,,8,0,8,0,0,2,2,2,,,,,,,,space,0.318567991257,,,,,,2017_Jan_24_1200,59.4145386499,spr_backupper,001,Di12,
,bei,Dänemark,gedachte,kleinere,wieder,Auto,Zucker,Fleisch,Größe,stand,dann,aus,dem,gehören,die,kann,mit,Kleidung,beschuldigten,große,die,können,große,wurden,gehören,durch,Leinwand,unter,"sporadisch,",kleinere,Menge,hat,kann,beteiligter,Dänemark,Erlebnisse,Größe,mit,kann,beschuldigten,Menge,beteiligten,Kleidung,mit,roter,mit,Liter,schon,Liter,wir,mit,königliches,mit,schnell,260.000,Zuckers,der,mit,habe,Berge,Lust,"sporadisch,",er,des,wissen,der,die,wissen,hält,Masse,Mann,gedachte,Hemd,las,wurde,werden,Berge,des,Mond,wurde,die,auf,Fleischs,der,durch,wieder,dem,Lust,stand,aus,überwiegend,königlichen,Masse,wir,rote,"unterging,",260.000,kann,,,,,,,,,,,,,,,,,,,,,,,8,0,8,0,0,3,3,3,,,,,,,,space,0.301829099655,,,,,,2017_Jan_24_1200,59.4145386499,spr_backupper,001,Di12,
,ausreichendem,einen,man,"Delikte,",viel,dem,sind,wurden,36,ein,mit,"wertvollem,",schönen,immer,Wohnung,ich,solch,landen,die,Packung,Stimmung,Neuwahlen,Packung,mit,immer,Büschel,aus,"regelmäßigem,",obschon,"Delikte,",alten,uns,man,Fahrer,gelegentlich,bei,36,solchen,man,die,alten,Fahrer,landen,"üblichem,",Farbe,dauerhaftem,sprudelnden,bei,sprudelndes,den,"sämtlichem,",Blut,"reichlichem,",dank,Kilowattstunden,sind,Stadt,"minimalem,",ich,schmutziger,auf,obwohl,"trug,",bekannten,wir,Stadt,Wohnung,wir,nicht,mit,das,man,aus,ich,schon,die,schmutzige,schönen,dauerte,jetzt,richtige,warmem,wurden,vierte,Büschel,viel,bekannten,auf,ein,"Japan,","nicht,",Bluts,mit,den,Farbe,war,Kilowattstunden,ich,,,,,,,,,,,,,,,,,,,,,,,8,0,8,0,0,4,4,4,,,,,,,,space,0.352639913559,,,,,,2017_Jan_24_1200,59.4145386499,spr_backupper,001,Di12,
,monatlichem,gelegentlichen,der,derer,Lärm,Mann,auf,serviert.,würden,Glas,"reichem,",klassischen,Wetter,350,des,leider,unzureichenden,im,Störenfriede,salzige,ziemlich,vor,salziger,zusätzlichem,350,frisches,seltenem,kaltem,sie,deren,Krams,die,eine,wurden,einen,"frischem,",hätten,unzureichenden,eine,Störenfriede,Kram,wurden,im,harten,geschleudert.,feinem,Trinkwassers.,minimalem,Trinkwasser.,roten,künftigem,hat,purem,täglichem,elektrischer,auf,liegen,sauberen,mehr,Wäsche.,noch,sie,war,Skandals,von,liegen,des,um,am,einem,Auto,den,feinem,mehr,immer,Tiere,Wäsche.,Wetters,ungefähr,"nachgewiesen,","Zeit,",weichem,serviert.,Bundespräsident.,frischen,Lärm,Skandal,noch,Glas,die,was,hat,einem,roten,geschleudert.,die,elektrische,leider,,,,,,,,,,,,,,,,,,,,,,,8,0,8,0,0,5,5,5,,,,,,,,space,0.346379995346,,,,,,2017_Jan_24_1200,59.4145386499,spr_backupper,001,Di12,
,Taschengeld,Besucher.,Soldaten,sie,um,mehr,jeden,nan,seiner,köstlichen,goldenen,Schmuck,die,ml,Herrn,nichts,Helmen,Müll.,jeden.,Wurst,"vermiest,",Dezember,Wurst,schwarzem,ml,Gras,dichten,Abduschen,defekt,sie,aus,Stimmung,große,verschrottet.,Besucher.,kaltem,seiner,Helmen,große,jeden.,aus,verschrottet.,Müll.,Schaumstoff,nan,Kunsteis,nan,täglichen,nan,Planet,Einkommen,den,Alkohol,grünen,Energie.,jeden,die,Kraftstoff,als,nan,eine,defekt,aus,wiedergewählt.,den,die,Herrn,die,Hauptbahnhof.,Esslöffel,mehr,Soldaten,dichten,als,ruhig,artgerecht,nan,die,drei,dass,um,Untergrund,nan,nan,Grases,um,wiedergewählt.,eine,köstlicher,er,Tupperware,den,Esslöffel,Planeten,nan,Flut,Energie.,nichts,,,,,,,,,,,,,,,,,,,,,,,8,0,8,0,0,6,6,6,,,,,,,,space,0.352396965027,,,,,,2017_Jan_24_1200,59.4145386499,spr_backupper,001,Di12,
,,,,,,,,,,,,,,,,,,,,,,,,,,,,,,,,,,,,,,,,,,,,,,,,,,,,,,,,,,,,,,,,,,,,,,,,,,,,,,,,,,,,,,,,,,,,,,,,,,,,,,,,,,,,,,,,,,,,,,,,,8,0,8,0,,,,,,,,,,,,,,None,,n,3.50584411621,,2017_Jan_24_1200,59.4145386499,spr_backupper,001,Di12,
,Jugendliche,Wir,Bei,Es,Man,Wir,100,Beträchtliche,Die,Bei,Das,Die,Sie,In,Die,Außer,Die,Viele,Außer,Ich,Es,Unter,Ich,Die,In,Wir,Danach,Die,Die,Es,Wir,Dass,Mit,Die,Wir,Sie,Die,Die,Mit,Außer,Wir,Die,Viele,Alle,Es,Die,Sie,Ihr,Sie,Im,Manche,Nicht,Die,Ich,Die,100,Am,Wir,In,Dort,Sie,Die,Die,Er,In,Am,Die,In,Die,Er,Wir,Bei,Er,In,Fernab,In,Dort,Sie,Der,In,Jetzt,Jungtiere,Beträchtliche,Walter,Wir,Man,Er,Sie,Bei,Die,Die,Nicht,Er,Im,Es,Als,Die,Außer,,,,,,,,,,,,,,,,,,,,,,,9,0,9,0,0,0,0,0,,,,,,,space,space,0.522575139999,,,,,1.17400288582,2017_Jan_24_1200,59.4145386499,spr_backupper,001,Di12,
,können,hatten,der,waren,machte,übergaben,g,Stücke,Schuhe,unserer,Tuch,Stücke,verlassen,den,Gäste,das,Kinder,Tonnen,dem,nehme,hat,keinen,nehme,müden,den,mussten,wurde,Formen,Uhr,waren,haben,es,dieser,Autos,hatten,haben,Schuhe,Kinder,dieser,den,haben,Autos,Tonnen,Betten,wurden,Eislaufbahnen,verbrauchen,Blutdruck,verbrauchen,Fernrohr,Kreditnehmer,ein,Lösung,wurde,Schule,g,äußeren,konnten,meinem,türmen,hatte,Uhr,"Uhr,",wurde,der,äußersten,Gäste,der,Linie,stellt,übergaben,der,hat,meinem,des,diesem,türmen,verlassen,Flug,einer,ist,sollten,Stücke,Scheel,mussten,machte,wurde,hatte,unserer,Uhr,Teilnehmerinnen,ein,stellt,Fernrohr,wurden,die,Schule,dem,,,,,,,,,,,,,,,,,,,,,,,9,0,9,0,0,1,1,1,,,,,,,,space,0.315384864807,,,,,,2017_Jan_24_1200,59.4145386499,spr_backupper,001,Di12,
,Kleidung,in,Feier,nur,mal,das,brauner,saftiges,in,Ankunft,wurde,wurden,wegen,Kakao,suchen,Essen,fuhren,gebrauchter,Bürgermeister,eine,uns,Umständen,eine,Teilnehmer,Kakao,uns,die,wurden,schlug,nur,jede,"regnete,",Methode,beider,in,die,in,fuhren,Methode,Bürgermeister,jede,beider,gebrauchte,wurden,Eimer,wurden,60,kann,60,sahen,sind,Tropfen,wird,damals,verbraucht,braunen,Rand,dann,Studium,sich,keine,schlug,die,trotz,Tat,Rand,suchen,Tat,101,die,dem,Feier,ein,Studium,Rummels,Zirkus,sich,wegen,zum,Studie,genau,immer,saftigen,war,uns,mal,trotz,keine,Ankunft,war,wussten,Tropfen,die,sahen,Eimer,Sonne,verbraucht,Essen,,,,,,,,,,,,,,,,,,,,,,,9,0,9,0,0,2,2,2,,,,,,,,space,0.247013092041,,,,,,2017_Jan_24_1200,59.4145386499,spr_backupper,001,Di12,
,bei,Dänemark,gedachte,kleinere,wieder,Auto,Zucker,Fleisch,Größe,stand,dann,aus,dem,gehören,die,kann,mit,Kleidung,beschuldigten,große,die,können,große,wurden,gehören,durch,Leinwand,unter,"sporadisch,",kleinere,Menge,hat,kann,beteiligter,Dänemark,Erlebnisse,Größe,mit,kann,beschuldigten,Menge,beteiligten,Kleidung,mit,roter,mit,Liter,schon,Liter,wir,mit,königliches,mit,schnell,260.000,Zuckers,der,mit,habe,Berge,Lust,"sporadisch,",er,des,wissen,der,die,wissen,hält,Masse,Mann,gedachte,Hemd,las,wurde,werden,Berge,des,Mond,wurde,die,auf,Fleischs,der,durch,wieder,dem,Lust,stand,aus,überwiegend,königlichen,Masse,wir,rote,"unterging,",260.000,kann,,,,,,,,,,,,,,,,,,,,,,,9,0,9,0,0,3,3,3,,,,,,,,space,0.252218008041,,,,,,2017_Jan_24_1200,59.4145386499,spr_backupper,001,Di12,
,ausreichendem,einen,man,"Delikte,",viel,dem,sind,wurden,36,ein,mit,"wertvollem,",schönen,immer,Wohnung,ich,solch,landen,die,Packung,Stimmung,Neuwahlen,Packung,mit,immer,Büschel,aus,"regelmäßigem,",obschon,"Delikte,",alten,uns,man,Fahrer,gelegentlich,bei,36,solchen,man,die,alten,Fahrer,landen,"üblichem,",Farbe,dauerhaftem,sprudelnden,bei,sprudelndes,den,"sämtlichem,",Blut,"reichlichem,",dank,Kilowattstunden,sind,Stadt,"minimalem,",ich,schmutziger,auf,obwohl,"trug,",bekannten,wir,Stadt,Wohnung,wir,nicht,mit,das,man,aus,ich,schon,die,schmutzige,schönen,dauerte,jetzt,richtige,warmem,wurden,vierte,Büschel,viel,bekannten,auf,ein,"Japan,","nicht,",Bluts,mit,den,Farbe,war,Kilowattstunden,ich,,,,,,,,,,,,,,,,,,,,,,,9,0,9,0,0,4,4,4,,,,,,,,space,0.303024053574,,,,,,2017_Jan_24_1200,59.4145386499,spr_backupper,001,Di12,
,monatlichem,gelegentlichen,der,derer,Lärm,Mann,auf,serviert.,würden,Glas,"reichem,",klassischen,Wetter,350,des,leider,unzureichenden,im,Störenfriede,salzige,ziemlich,vor,salziger,zusätzlichem,350,frisches,seltenem,kaltem,sie,deren,Krams,die,eine,wurden,einen,"frischem,",hätten,unzureichenden,eine,Störenfriede,Kram,wurden,im,harten,geschleudert.,feinem,Trinkwassers.,minimalem,Trinkwasser.,roten,künftigem,hat,purem,täglichem,elektrischer,auf,liegen,sauberen,mehr,Wäsche.,noch,sie,war,Skandals,von,liegen,des,um,am,einem,Auto,den,feinem,mehr,immer,Tiere,Wäsche.,Wetters,ungefähr,"nachgewiesen,","Zeit,",weichem,serviert.,Bundespräsident.,frischen,Lärm,Skandal,noch,Glas,die,was,hat,einem,roten,geschleudert.,die,elektrische,leider,,,,,,,,,,,,,,,,,,,,,,,9,0,9,0,0,5,5,5,,,,,,,,space,0.272864818573,,,,,,2017_Jan_24_1200,59.4145386499,spr_backupper,001,Di12,
,Taschengeld,Besucher.,Soldaten,sie,um,mehr,jeden,nan,seiner,köstlichen,goldenen,Schmuck,die,ml,Herrn,nichts,Helmen,Müll.,jeden.,Wurst,"vermiest,",Dezember,Wurst,schwarzem,ml,Gras,dichten,Abduschen,defekt,sie,aus,Stimmung,große,verschrottet.,Besucher.,kaltem,seiner,Helmen,große,jeden.,aus,verschrottet.,Müll.,Schaumstoff,nan,Kunsteis,nan,täglichen,nan,Planet,Einkommen,den,Alkohol,grünen,Energie.,jeden,die,Kraftstoff,als,nan,eine,defekt,aus,wiedergewählt.,den,die,Herrn,die,Hauptbahnhof.,Esslöffel,mehr,Soldaten,dichten,als,ruhig,artgerecht,nan,die,drei,dass,um,Untergrund,nan,nan,Grases,um,wiedergewählt.,eine,köstlicher,er,Tupperware,den,Esslöffel,Planeten,nan,Flut,Energie.,nichts,,,,,,,,,,,,,,,,,,,,,,,9,0,9,0,0,6,6,6,,,,,,,,space,0.266023874283,,,,,,2017_Jan_24_1200,59.4145386499,spr_backupper,001,Di12,
,selber,nan,des,überführt,jede,als,Fall,nan,Frau,Weins,Besatz,umgearbeitet.,Wohnung.,warmer,Gantenbein.,mitbringen.,zur,nan,nan,mit,dass,stattfinden.,mit,Kaffee,warme,zwängen.,Gewebe,gehärtet.,war.,überführt,dem,ziemlich,Menge,nan,nan,Saft,Frau,zur,Menge,nan,dem,nan,nan,gefertigt.,nan,eingesprüht.,nan,Einsatz,nan,ganz,haftbar.,Boden,verdünnt.,Tee,nan,Fall,Slums.,fahren.,einmal,nan,Sammlung,war.,Japan.,nan,Problemen,Slums.,Gantenbeins.,Probleme,nan,warmem,als,des,Stoff,einmal,diskutiert.,gehalten.,nan,Wohnung.,Tage.,das,Nadelhölzer,liegen.,nan,nan,zwängen.,jede,nan,Sammlung,Wein,trug.,ist.,Boden,warmen,ganz,nan,zurückgekehrt.,nan,mitbringen.,,,,,,,,,,,,,,,,,,,,,,,9,0,9,0,0,7,7,7,,,,,,,,space,0.348008871078,,,,,,2017_Jan_24_1200,59.4145386499,spr_backupper,001,Di12,
,kaufen.,nan,zweiten,wurden.,Menge,gerne.,genug.,nan,gepasst,schon,rekonstruiert.,nan,nan,Milch.,nan,nan,Schule.,nan,nan,an,es,nan,an,wiederbelebt.,Milch.,nan,wiederhergestellt.,nan,nan,wurden.,Haus,vermiest.,dunkler,nan,nan,besprochen.,gepasst.,Schule.,dunkle,nan,Haus,nan,nan,nan,nan,nan,nan,sinken.,nan,deutlich.,nan,berührt.,nan,wieder,nan,genug.,nan,nan,Rilke,nan,dumme,nan,nan,nan,im,nan,nan,im,nan,Honig,gerne.,zweiten,gefertigt.,Rilke.,nan,nan,nan,nan,nan,Medikament,umzusetzen.,nan,nan,nan,nan,Menge,nan,dummer,schon,nan,nan,berührt.,Honigs,deutlich.,nan,nan,nan,nan,,,,,,,,,,,,,,,,,,,,,,,9,0,9,0,0,8,8,8,,,,,,,,space,0.358085155487,,,,,,2017_Jan_24_1200,59.4145386499,spr_backupper,001,Di12,
,,,,,,,,,,,,,,,,,,,,,,,,,,,,,,,,,,,,,,,,,,,,,,,,,,,,,,,,,,,,,,,,,,,,,,,,,,,,,,,,,,,,,,,,,,,,,,,,,,,,,,,,,,,,,,,,,,,,,,,,,9,0,9,0,,,,,,,,,,,,,,None,,n,2.1741271019,,2017_Jan_24_1200,59.4145386499,spr_backupper,001,Di12,
,Jugendliche,Wir,Bei,Es,Man,Wir,100,Beträchtliche,Die,Bei,Das,Die,Sie,In,Die,Außer,Die,Viele,Außer,Ich,Es,Unter,Ich,Die,In,Wir,Danach,Die,Die,Es,Wir,Dass,Mit,Die,Wir,Sie,Die,Die,Mit,Außer,Wir,Die,Viele,Alle,Es,Die,Sie,Ihr,Sie,Im,Manche,Nicht,Die,Ich,Die,100,Am,Wir,In,Dort,Sie,Die,Die,Er,In,Am,Die,In,Die,Er,Wir,Bei,Er,In,Fernab,In,Dort,Sie,Der,In,Jetzt,Jungtiere,Beträchtliche,Walter,Wir,Man,Er,Sie,Bei,Die,Die,Nicht,Er,Im,Es,Als,Die,Außer,,,,,,,,,,,,,,,,,,,,,,,10,0,10,0,0,0,0,0,,,,,,,None,space,1.16095519066,,,,,,2017_Jan_24_1200,59.4145386499,spr_backupper,001,Di12,
,können,hatten,der,waren,machte,übergaben,g,Stücke,Schuhe,unserer,Tuch,Stücke,verlassen,den,Gäste,das,Kinder,Tonnen,dem,nehme,hat,keinen,nehme,müden,den,mussten,wurde,Formen,Uhr,waren,haben,es,dieser,Autos,hatten,haben,Schuhe,Kinder,dieser,den,haben,Autos,Tonnen,Betten,wurden,Eislaufbahnen,verbrauchen,Blutdruck,verbrauchen,Fernrohr,Kreditnehmer,ein,Lösung,wurde,Schule,g,äußeren,konnten,meinem,türmen,hatte,Uhr,"Uhr,",wurde,der,äußersten,Gäste,der,Linie,stellt,übergaben,der,hat,meinem,des,diesem,türmen,verlassen,Flug,einer,ist,sollten,Stücke,Scheel,mussten,machte,wurde,hatte,unserer,Uhr,Teilnehmerinnen,ein,stellt,Fernrohr,wurden,die,Schule,dem,,,,,,,,,,,,,,,,,,,,,,,10,0,10,0,0,1,1,1,,,,,,,,space,0.336074829102,,,,,,2017_Jan_24_1200,59.4145386499,spr_backupper,001,Di12,
,Kleidung,in,Feier,nur,mal,das,brauner,saftiges,in,Ankunft,wurde,wurden,wegen,Kakao,suchen,Essen,fuhren,gebrauchter,Bürgermeister,eine,uns,Umständen,eine,Teilnehmer,Kakao,uns,die,wurden,schlug,nur,jede,"regnete,",Methode,beider,in,die,in,fuhren,Methode,Bürgermeister,jede,beider,gebrauchte,wurden,Eimer,wurden,60,kann,60,sahen,sind,Tropfen,wird,damals,verbraucht,braunen,Rand,dann,Studium,sich,keine,schlug,die,trotz,Tat,Rand,suchen,Tat,101,die,dem,Feier,ein,Studium,Rummels,Zirkus,sich,wegen,zum,Studie,genau,immer,saftigen,war,uns,mal,trotz,keine,Ankunft,war,wussten,Tropfen,die,sahen,Eimer,Sonne,verbraucht,Essen,,,,,,,,,,,,,,,,,,,,,,,10,0,10,0,0,2,2,2,,,,,,,,space,0.330090045929,,,,,,2017_Jan_24_1200,59.4145386499,spr_backupper,001,Di12,
,bei,Dänemark,gedachte,kleinere,wieder,Auto,Zucker,Fleisch,Größe,stand,dann,aus,dem,gehören,die,kann,mit,Kleidung,beschuldigten,große,die,können,große,wurden,gehören,durch,Leinwand,unter,"sporadisch,",kleinere,Menge,hat,kann,beteiligter,Dänemark,Erlebnisse,Größe,mit,kann,beschuldigten,Menge,beteiligten,Kleidung,mit,roter,mit,Liter,schon,Liter,wir,mit,königliches,mit,schnell,260.000,Zuckers,der,mit,habe,Berge,Lust,"sporadisch,",er,des,wissen,der,die,wissen,hält,Masse,Mann,gedachte,Hemd,las,wurde,werden,Berge,des,Mond,wurde,die,auf,Fleischs,der,durch,wieder,dem,Lust,stand,aus,überwiegend,königlichen,Masse,wir,rote,"unterging,",260.000,kann,,,,,,,,,,,,,,,,,,,,,,,10,0,10,0,0,3,3,3,,,,,,,,space,0.469612836838,,,,,,2017_Jan_24_1200,59.4145386499,spr_backupper,001,Di12,
,ausreichendem,einen,man,"Delikte,",viel,dem,sind,wurden,36,ein,mit,"wertvollem,",schönen,immer,Wohnung,ich,solch,landen,die,Packung,Stimmung,Neuwahlen,Packung,mit,immer,Büschel,aus,"regelmäßigem,",obschon,"Delikte,",alten,uns,man,Fahrer,gelegentlich,bei,36,solchen,man,die,alten,Fahrer,landen,"üblichem,",Farbe,dauerhaftem,sprudelnden,bei,sprudelndes,den,"sämtlichem,",Blut,"reichlichem,",dank,Kilowattstunden,sind,Stadt,"minimalem,",ich,schmutziger,auf,obwohl,"trug,",bekannten,wir,Stadt,Wohnung,wir,nicht,mit,das,man,aus,ich,schon,die,schmutzige,schönen,dauerte,jetzt,richtige,warmem,wurden,vierte,Büschel,viel,bekannten,auf,ein,"Japan,","nicht,",Bluts,mit,den,Farbe,war,Kilowattstunden,ich,,,,,,,,,,,,,,,,,,,,,,,10,0,10,0,0,4,4,4,,,,,,,,space,0.344830036163,,,,,,2017_Jan_24_1200,59.4145386499,spr_backupper,001,Di12,
,monatlichem,gelegentlichen,der,derer,Lärm,Mann,auf,serviert.,würden,Glas,"reichem,",klassischen,Wetter,350,des,leider,unzureichenden,im,Störenfriede,salzige,ziemlich,vor,salziger,zusätzlichem,350,frisches,seltenem,kaltem,sie,deren,Krams,die,eine,wurden,einen,"frischem,",hätten,unzureichenden,eine,Störenfriede,Kram,wurden,im,harten,geschleudert.,feinem,Trinkwassers.,minimalem,Trinkwasser.,roten,künftigem,hat,purem,täglichem,elektrischer,auf,liegen,sauberen,mehr,Wäsche.,noch,sie,war,Skandals,von,liegen,des,um,am,einem,Auto,den,feinem,mehr,immer,Tiere,Wäsche.,Wetters,ungefähr,"nachgewiesen,","Zeit,",weichem,serviert.,Bundespräsident.,frischen,Lärm,Skandal,noch,Glas,die,was,hat,einem,roten,geschleudert.,die,elektrische,leider,,,,,,,,,,,,,,,,,,,,,,,10,0,10,0,0,5,5,5,,,,,,,,space,0.284550189972,,,,,,2017_Jan_24_1200,59.4145386499,spr_backupper,001,Di12,
,Taschengeld,Besucher.,Soldaten,sie,um,mehr,jeden,nan,seiner,köstlichen,goldenen,Schmuck,die,ml,Herrn,nichts,Helmen,Müll.,jeden.,Wurst,"vermiest,",Dezember,Wurst,schwarzem,ml,Gras,dichten,Abduschen,defekt,sie,aus,Stimmung,große,verschrottet.,Besucher.,kaltem,seiner,Helmen,große,jeden.,aus,verschrottet.,Müll.,Schaumstoff,nan,Kunsteis,nan,täglichen,nan,Planet,Einkommen,den,Alkohol,grünen,Energie.,jeden,die,Kraftstoff,als,nan,eine,defekt,aus,wiedergewählt.,den,die,Herrn,die,Hauptbahnhof.,Esslöffel,mehr,Soldaten,dichten,als,ruhig,artgerecht,nan,die,drei,dass,um,Untergrund,nan,nan,Grases,um,wiedergewählt.,eine,köstlicher,er,Tupperware,den,Esslöffel,Planeten,nan,Flut,Energie.,nichts,,,,,,,,,,,,,,,,,,,,,,,10,0,10,0,0,6,6,6,,,,,,,,space,0.240406990051,,,,,,2017_Jan_24_1200,59.4145386499,spr_backupper,001,Di12,
,selber,nan,des,überführt,jede,als,Fall,nan,Frau,Weins,Besatz,umgearbeitet.,Wohnung.,warmer,Gantenbein.,mitbringen.,zur,nan,nan,mit,dass,stattfinden.,mit,Kaffee,warme,zwängen.,Gewebe,gehärtet.,war.,überführt,dem,ziemlich,Menge,nan,nan,Saft,Frau,zur,Menge,nan,dem,nan,nan,gefertigt.,nan,eingesprüht.,nan,Einsatz,nan,ganz,haftbar.,Boden,verdünnt.,Tee,nan,Fall,Slums.,fahren.,einmal,nan,Sammlung,war.,Japan.,nan,Problemen,Slums.,Gantenbeins.,Probleme,nan,warmem,als,des,Stoff,einmal,diskutiert.,gehalten.,nan,Wohnung.,Tage.,das,Nadelhölzer,liegen.,nan,nan,zwängen.,jede,nan,Sammlung,Wein,trug.,ist.,Boden,warmen,ganz,nan,zurückgekehrt.,nan,mitbringen.,,,,,,,,,,,,,,,,,,,,,,,10,0,10,0,0,7,7,7,,,,,,,,space,0.326799154282,,,,,,2017_Jan_24_1200,59.4145386499,spr_backupper,001,Di12,
,kaufen.,nan,zweiten,wurden.,Menge,gerne.,genug.,nan,gepasst,schon,rekonstruiert.,nan,nan,Milch.,nan,nan,Schule.,nan,nan,an,es,nan,an,wiederbelebt.,Milch.,nan,wiederhergestellt.,nan,nan,wurden.,Haus,vermiest.,dunkler,nan,nan,besprochen.,gepasst.,Schule.,dunkle,nan,Haus,nan,nan,nan,nan,nan,nan,sinken.,nan,deutlich.,nan,berührt.,nan,wieder,nan,genug.,nan,nan,Rilke,nan,dumme,nan,nan,nan,im,nan,nan,im,nan,Honig,gerne.,zweiten,gefertigt.,Rilke.,nan,nan,nan,nan,nan,Medikament,umzusetzen.,nan,nan,nan,nan,Menge,nan,dummer,schon,nan,nan,berührt.,Honigs,deutlich.,nan,nan,nan,nan,,,,,,,,,,,,,,,,,,,,,,,10,0,10,0,0,8,8,8,,,,,,,,space,0.310899972916,,,,,,2017_Jan_24_1200,59.4145386499,spr_backupper,001,Di12,
,nan,nan,Weltkriegs.,nan,heißer,nan,nan,nan,haben.,auf,nan,nan,nan,nan,nan,nan,nan,nan,nan,den,regnete.,nan,den,nan,nan,nan,nan,nan,nan,nan,geschafft.,nan,Materie,nan,nan,nan,nan,nan,Materie,nan,geschafft.,nan,nan,nan,nan,nan,nan,nan,nan,nan,nan,nan,nan,fit.,nan,nan,nan,nan,gelesen.,nan,Sprüche.,nan,nan,nan,Landkreis.,nan,nan,Landkreis.,nan,her.,nan,Weltkriegs.,nan,nan,nan,nan,nan,nan,nan,nicht,nan,nan,nan,nan,nan,heiße,nan,Sprüche.,auf,nan,nan,nan,her.,nan,nan,nan,nan,nan,,,,,,,,,,,,,,,,,,,,,,,10,0,10,0,0,9,9,9,,,,,,,,space,0.309364080429,,,,,,2017_Jan_24_1200,59.4145386499,spr_backupper,001,Di12,
,nan,nan,nan,nan,Luft.,nan,nan,nan,nan,dem,nan,nan,nan,nan,nan,nan,nan,nan,nan,See.,nan,nan,See.,nan,nan,nan,nan,nan,nan,nan,nan,nan,erzeugen.,nan,nan,nan,nan,nan,erzeugen.,nan,nan,nan,nan,nan,nan,nan,nan,nan,nan,nan,nan,nan,nan,nan,nan,nan,nan,nan,nan,nan,nan,nan,nan,nan,nan,nan,nan,nan,nan,nan,nan,nan,nan,nan,nan,nan,nan,nan,nan,wirkt.,nan,nan,nan,nan,nan,Luft.,nan,nan,dem,nan,nan,nan,nan,nan,nan,nan,nan,nan,,,,,,,,,,,,,,,,,,,,,,,10,0,10,0,0,10,10,10,,,,,,,,space,0.317548036575,,,,,,2017_Jan_24_1200,59.4145386499,spr_backupper,001,Di12,
,,,,,,,,,,,,,,,,,,,,,,,,,,,,,,,,,,,,,,,,,,,,,,,,,,,,,,,,,,,,,,,,,,,,,,,,,,,,,,,,,,,,,,,,,,,,,,,,,,,,,,,,,,,,,,,,,,,,,,,,,10,0,10,0,,,,,,,,,,,,,,None,,n,8.69897294044,,2017_Jan_24_1200,59.4145386499,spr_backupper,001,Di12,
,Jugendliche,Wir,Bei,Es,Man,Wir,100,Beträchtliche,Die,Bei,Das,Die,Sie,In,Die,Außer,Die,Viele,Außer,Ich,Es,Unter,Ich,Die,In,Wir,Danach,Die,Die,Es,Wir,Dass,Mit,Die,Wir,Sie,Die,Die,Mit,Außer,Wir,Die,Viele,Alle,Es,Die,Sie,Ihr,Sie,Im,Manche,Nicht,Die,Ich,Die,100,Am,Wir,In,Dort,Sie,Die,Die,Er,In,Am,Die,In,Die,Er,Wir,Bei,Er,In,Fernab,In,Dort,Sie,Der,In,Jetzt,Jungtiere,Beträchtliche,Walter,Wir,Man,Er,Sie,Bei,Die,Die,Nicht,Er,Im,Es,Als,Die,Außer,,,,,,,,,,,,,,,,,,,,,,,11,0,11,0,0,0,0,0,,,,,,,None,space,0.612843990326,,,,,,2017_Jan_24_1200,59.4145386499,spr_backupper,001,Di12,
,können,hatten,der,waren,machte,übergaben,g,Stücke,Schuhe,unserer,Tuch,Stücke,verlassen,den,Gäste,das,Kinder,Tonnen,dem,nehme,hat,keinen,nehme,müden,den,mussten,wurde,Formen,Uhr,waren,haben,es,dieser,Autos,hatten,haben,Schuhe,Kinder,dieser,den,haben,Autos,Tonnen,Betten,wurden,Eislaufbahnen,verbrauchen,Blutdruck,verbrauchen,Fernrohr,Kreditnehmer,ein,Lösung,wurde,Schule,g,äußeren,konnten,meinem,türmen,hatte,Uhr,"Uhr,",wurde,der,äußersten,Gäste,der,Linie,stellt,übergaben,der,hat,meinem,des,diesem,türmen,verlassen,Flug,einer,ist,sollten,Stücke,Scheel,mussten,machte,wurde,hatte,unserer,Uhr,Teilnehmerinnen,ein,stellt,Fernrohr,wurden,die,Schule,dem,,,,,,,,,,,,,,,,,,,,,,,11,0,11,0,0,1,1,1,,,,,,,,space,0.425981998444,,,,,,2017_Jan_24_1200,59.4145386499,spr_backupper,001,Di12,
,Kleidung,in,Feier,nur,mal,das,brauner,saftiges,in,Ankunft,wurde,wurden,wegen,Kakao,suchen,Essen,fuhren,gebrauchter,Bürgermeister,eine,uns,Umständen,eine,Teilnehmer,Kakao,uns,die,wurden,schlug,nur,jede,"regnete,",Methode,beider,in,die,in,fuhren,Methode,Bürgermeister,jede,beider,gebrauchte,wurden,Eimer,wurden,60,kann,60,sahen,sind,Tropfen,wird,damals,verbraucht,braunen,Rand,dann,Studium,sich,keine,schlug,die,trotz,Tat,Rand,suchen,Tat,101,die,dem,Feier,ein,Studium,Rummels,Zirkus,sich,wegen,zum,Studie,genau,immer,saftigen,war,uns,mal,trotz,keine,Ankunft,war,wussten,Tropfen,die,sahen,Eimer,Sonne,verbraucht,Essen,,,,,,,,,,,,,,,,,,,,,,,11,0,11,0,0,2,2,2,,,,,,,,space,0.402422904968,,,,,,2017_Jan_24_1200,59.4145386499,spr_backupper,001,Di12,
,bei,Dänemark,gedachte,kleinere,wieder,Auto,Zucker,Fleisch,Größe,stand,dann,aus,dem,gehören,die,kann,mit,Kleidung,beschuldigten,große,die,können,große,wurden,gehören,durch,Leinwand,unter,"sporadisch,",kleinere,Menge,hat,kann,beteiligter,Dänemark,Erlebnisse,Größe,mit,kann,beschuldigten,Menge,beteiligten,Kleidung,mit,roter,mit,Liter,schon,Liter,wir,mit,königliches,mit,schnell,260.000,Zuckers,der,mit,habe,Berge,Lust,"sporadisch,",er,des,wissen,der,die,wissen,hält,Masse,Mann,gedachte,Hemd,las,wurde,werden,Berge,des,Mond,wurde,die,auf,Fleischs,der,durch,wieder,dem,Lust,stand,aus,überwiegend,königlichen,Masse,wir,rote,"unterging,",260.000,kann,,,,,,,,,,,,,,,,,,,,,,,11,0,11,0,0,3,3,3,,,,,,,,space,0.383637189865,,,,,,2017_Jan_24_1200,59.4145386499,spr_backupper,001,Di12,
,ausreichendem,einen,man,"Delikte,",viel,dem,sind,wurden,36,ein,mit,"wertvollem,",schönen,immer,Wohnung,ich,solch,landen,die,Packung,Stimmung,Neuwahlen,Packung,mit,immer,Büschel,aus,"regelmäßigem,",obschon,"Delikte,",alten,uns,man,Fahrer,gelegentlich,bei,36,solchen,man,die,alten,Fahrer,landen,"üblichem,",Farbe,dauerhaftem,sprudelnden,bei,sprudelndes,den,"sämtlichem,",Blut,"reichlichem,",dank,Kilowattstunden,sind,Stadt,"minimalem,",ich,schmutziger,auf,obwohl,"trug,",bekannten,wir,Stadt,Wohnung,wir,nicht,mit,das,man,aus,ich,schon,die,schmutzige,schönen,dauerte,jetzt,richtige,warmem,wurden,vierte,Büschel,viel,bekannten,auf,ein,"Japan,","nicht,",Bluts,mit,den,Farbe,war,Kilowattstunden,ich,,,,,,,,,,,,,,,,,,,,,,,11,0,11,0,0,4,4,4,,,,,,,,space,0.274386882782,,,,,,2017_Jan_24_1200,59.4145386499,spr_backupper,001,Di12,
,monatlichem,gelegentlichen,der,derer,Lärm,Mann,auf,serviert.,würden,Glas,"reichem,",klassischen,Wetter,350,des,leider,unzureichenden,im,Störenfriede,salzige,ziemlich,vor,salziger,zusätzlichem,350,frisches,seltenem,kaltem,sie,deren,Krams,die,eine,wurden,einen,"frischem,",hätten,unzureichenden,eine,Störenfriede,Kram,wurden,im,harten,geschleudert.,feinem,Trinkwassers.,minimalem,Trinkwasser.,roten,künftigem,hat,purem,täglichem,elektrischer,auf,liegen,sauberen,mehr,Wäsche.,noch,sie,war,Skandals,von,liegen,des,um,am,einem,Auto,den,feinem,mehr,immer,Tiere,Wäsche.,Wetters,ungefähr,"nachgewiesen,","Zeit,",weichem,serviert.,Bundespräsident.,frischen,Lärm,Skandal,noch,Glas,die,was,hat,einem,roten,geschleudert.,die,elektrische,leider,,,,,,,,,,,,,,,,,,,,,,,11,0,11,0,0,5,5,5,,,,,,,,space,0.336555957794,,,,,,2017_Jan_24_1200,59.4145386499,spr_backupper,001,Di12,
,Taschengeld,Besucher.,Soldaten,sie,um,mehr,jeden,nan,seiner,köstlichen,goldenen,Schmuck,die,ml,Herrn,nichts,Helmen,Müll.,jeden.,Wurst,"vermiest,",Dezember,Wurst,schwarzem,ml,Gras,dichten,Abduschen,defekt,sie,aus,Stimmung,große,verschrottet.,Besucher.,kaltem,seiner,Helmen,große,jeden.,aus,verschrottet.,Müll.,Schaumstoff,nan,Kunsteis,nan,täglichen,nan,Planet,Einkommen,den,Alkohol,grünen,Energie.,jeden,die,Kraftstoff,als,nan,eine,defekt,aus,wiedergewählt.,den,die,Herrn,die,Hauptbahnhof.,Esslöffel,mehr,Soldaten,dichten,als,ruhig,artgerecht,nan,die,drei,dass,um,Untergrund,nan,nan,Grases,um,wiedergewählt.,eine,köstlicher,er,Tupperware,den,Esslöffel,Planeten,nan,Flut,Energie.,nichts,,,,,,,,,,,,,,,,,,,,,,,11,0,11,0,0,6,6,6,,,,,,,,space,0.31670999527,,,,,,2017_Jan_24_1200,59.4145386499,spr_backupper,001,Di12,
,selber,nan,des,überführt,jede,als,Fall,nan,Frau,Weins,Besatz,umgearbeitet.,Wohnung.,warmer,Gantenbein.,mitbringen.,zur,nan,nan,mit,dass,stattfinden.,mit,Kaffee,warme,zwängen.,Gewebe,gehärtet.,war.,überführt,dem,ziemlich,Menge,nan,nan,Saft,Frau,zur,Menge,nan,dem,nan,nan,gefertigt.,nan,eingesprüht.,nan,Einsatz,nan,ganz,haftbar.,Boden,verdünnt.,Tee,nan,Fall,Slums.,fahren.,einmal,nan,Sammlung,war.,Japan.,nan,Problemen,Slums.,Gantenbeins.,Probleme,nan,warmem,als,des,Stoff,einmal,diskutiert.,gehalten.,nan,Wohnung.,Tage.,das,Nadelhölzer,liegen.,nan,nan,zwängen.,jede,nan,Sammlung,Wein,trug.,ist.,Boden,warmen,ganz,nan,zurückgekehrt.,nan,mitbringen.,,,,,,,,,,,,,,,,,,,,,,,11,0,11,0,0,7,7,7,,,,,,,,space,0.302038192749,,,,,,2017_Jan_24_1200,59.4145386499,spr_backupper,001,Di12,
,,,,,,,,,,,,,,,,,,,,,,,,,,,,,,,,,,,,,,,,,,,,,,,,,,,,,,,,,,,,,,,,,,,,,,,,,,,,,,,,,,,,,,,,,,,,,,,,,,,,,,,,,,,,,,,,,,,,,,,,,11,0,11,0,,,,,,,,,,,,,,space,0.756014108658,j,3.02422380447,,2017_Jan_24_1200,59.4145386499,spr_backupper,001,Di12,
,Jugendliche,Wir,Bei,Es,Man,Wir,100,Beträchtliche,Die,Bei,Das,Die,Sie,In,Die,Außer,Die,Viele,Außer,Ich,Es,Unter,Ich,Die,In,Wir,Danach,Die,Die,Es,Wir,Dass,Mit,Die,Wir,Sie,Die,Die,Mit,Außer,Wir,Die,Viele,Alle,Es,Die,Sie,Ihr,Sie,Im,Manche,Nicht,Die,Ich,Die,100,Am,Wir,In,Dort,Sie,Die,Die,Er,In,Am,Die,In,Die,Er,Wir,Bei,Er,In,Fernab,In,Dort,Sie,Der,In,Jetzt,Jungtiere,Beträchtliche,Walter,Wir,Man,Er,Sie,Bei,Die,Die,Nicht,Er,Im,Es,Als,Die,Außer,,,,,,,,,,,,,,,,,,,,,,,12,0,12,0,0,0,0,0,,,,,,,space,space,0.376765012741,,,,,0.75456905365,2017_Jan_24_1200,59.4145386499,spr_backupper,001,Di12,
,können,hatten,der,waren,machte,übergaben,g,Stücke,Schuhe,unserer,Tuch,Stücke,verlassen,den,Gäste,das,Kinder,Tonnen,dem,nehme,hat,keinen,nehme,müden,den,mussten,wurde,Formen,Uhr,waren,haben,es,dieser,Autos,hatten,haben,Schuhe,Kinder,dieser,den,haben,Autos,Tonnen,Betten,wurden,Eislaufbahnen,verbrauchen,Blutdruck,verbrauchen,Fernrohr,Kreditnehmer,ein,Lösung,wurde,Schule,g,äußeren,konnten,meinem,türmen,hatte,Uhr,"Uhr,",wurde,der,äußersten,Gäste,der,Linie,stellt,übergaben,der,hat,meinem,des,diesem,türmen,verlassen,Flug,einer,ist,sollten,Stücke,Scheel,mussten,machte,wurde,hatte,unserer,Uhr,Teilnehmerinnen,ein,stellt,Fernrohr,wurden,die,Schule,dem,,,,,,,,,,,,,,,,,,,,,,,12,0,12,0,0,1,1,1,,,,,,,,space,0.302806854248,,,,,,2017_Jan_24_1200,59.4145386499,spr_backupper,001,Di12,
,Kleidung,in,Feier,nur,mal,das,brauner,saftiges,in,Ankunft,wurde,wurden,wegen,Kakao,suchen,Essen,fuhren,gebrauchter,Bürgermeister,eine,uns,Umständen,eine,Teilnehmer,Kakao,uns,die,wurden,schlug,nur,jede,"regnete,",Methode,beider,in,die,in,fuhren,Methode,Bürgermeister,jede,beider,gebrauchte,wurden,Eimer,wurden,60,kann,60,sahen,sind,Tropfen,wird,damals,verbraucht,braunen,Rand,dann,Studium,sich,keine,schlug,die,trotz,Tat,Rand,suchen,Tat,101,die,dem,Feier,ein,Studium,Rummels,Zirkus,sich,wegen,zum,Studie,genau,immer,saftigen,war,uns,mal,trotz,keine,Ankunft,war,wussten,Tropfen,die,sahen,Eimer,Sonne,verbraucht,Essen,,,,,,,,,,,,,,,,,,,,,,,12,0,12,0,0,2,2,2,,,,,,,,space,0.209311962128,,,,,,2017_Jan_24_1200,59.4145386499,spr_backupper,001,Di12,
,bei,Dänemark,gedachte,kleinere,wieder,Auto,Zucker,Fleisch,Größe,stand,dann,aus,dem,gehören,die,kann,mit,Kleidung,beschuldigten,große,die,können,große,wurden,gehören,durch,Leinwand,unter,"sporadisch,",kleinere,Menge,hat,kann,beteiligter,Dänemark,Erlebnisse,Größe,mit,kann,beschuldigten,Menge,beteiligten,Kleidung,mit,roter,mit,Liter,schon,Liter,wir,mit,königliches,mit,schnell,260.000,Zuckers,der,mit,habe,Berge,Lust,"sporadisch,",er,des,wissen,der,die,wissen,hält,Masse,Mann,gedachte,Hemd,las,wurde,werden,Berge,des,Mond,wurde,die,auf,Fleischs,der,durch,wieder,dem,Lust,stand,aus,überwiegend,königlichen,Masse,wir,rote,"unterging,",260.000,kann,,,,,,,,,,,,,,,,,,,,,,,12,0,12,0,0,3,3,3,,,,,,,,space,0.302369117737,,,,,,2017_Jan_24_1200,59.4145386499,spr_backupper,001,Di12,
,ausreichendem,einen,man,"Delikte,",viel,dem,sind,wurden,36,ein,mit,"wertvollem,",schönen,immer,Wohnung,ich,solch,landen,die,Packung,Stimmung,Neuwahlen,Packung,mit,immer,Büschel,aus,"regelmäßigem,",obschon,"Delikte,",alten,uns,man,Fahrer,gelegentlich,bei,36,solchen,man,die,alten,Fahrer,landen,"üblichem,",Farbe,dauerhaftem,sprudelnden,bei,sprudelndes,den,"sämtlichem,",Blut,"reichlichem,",dank,Kilowattstunden,sind,Stadt,"minimalem,",ich,schmutziger,auf,obwohl,"trug,",bekannten,wir,Stadt,Wohnung,wir,nicht,mit,das,man,aus,ich,schon,die,schmutzige,schönen,dauerte,jetzt,richtige,warmem,wurden,vierte,Büschel,viel,bekannten,auf,ein,"Japan,","nicht,",Bluts,mit,den,Farbe,war,Kilowattstunden,ich,,,,,,,,,,,,,,,,,,,,,,,12,0,12,0,0,4,4,4,,,,,,,,space,0.274492025375,,,,,,2017_Jan_24_1200,59.4145386499,spr_backupper,001,Di12,
,monatlichem,gelegentlichen,der,derer,Lärm,Mann,auf,serviert.,würden,Glas,"reichem,",klassischen,Wetter,350,des,leider,unzureichenden,im,Störenfriede,salzige,ziemlich,vor,salziger,zusätzlichem,350,frisches,seltenem,kaltem,sie,deren,Krams,die,eine,wurden,einen,"frischem,",hätten,unzureichenden,eine,Störenfriede,Kram,wurden,im,harten,geschleudert.,feinem,Trinkwassers.,minimalem,Trinkwasser.,roten,künftigem,hat,purem,täglichem,elektrischer,auf,liegen,sauberen,mehr,Wäsche.,noch,sie,war,Skandals,von,liegen,des,um,am,einem,Auto,den,feinem,mehr,immer,Tiere,Wäsche.,Wetters,ungefähr,"nachgewiesen,","Zeit,",weichem,serviert.,Bundespräsident.,frischen,Lärm,Skandal,noch,Glas,die,was,hat,einem,roten,geschleudert.,die,elektrische,leider,,,,,,,,,,,,,,,,,,,,,,,12,0,12,0,0,5,5,5,,,,,,,,space,0.266268014908,,,,,,2017_Jan_24_1200,59.4145386499,spr_backupper,001,Di12,
,Taschengeld,Besucher.,Soldaten,sie,um,mehr,jeden,nan,seiner,köstlichen,goldenen,Schmuck,die,ml,Herrn,nichts,Helmen,Müll.,jeden.,Wurst,"vermiest,",Dezember,Wurst,schwarzem,ml,Gras,dichten,Abduschen,defekt,sie,aus,Stimmung,große,verschrottet.,Besucher.,kaltem,seiner,Helmen,große,jeden.,aus,verschrottet.,Müll.,Schaumstoff,nan,Kunsteis,nan,täglichen,nan,Planet,Einkommen,den,Alkohol,grünen,Energie.,jeden,die,Kraftstoff,als,nan,eine,defekt,aus,wiedergewählt.,den,die,Herrn,die,Hauptbahnhof.,Esslöffel,mehr,Soldaten,dichten,als,ruhig,artgerecht,nan,die,drei,dass,um,Untergrund,nan,nan,Grases,um,wiedergewählt.,eine,köstlicher,er,Tupperware,den,Esslöffel,Planeten,nan,Flut,Energie.,nichts,,,,,,,,,,,,,,,,,,,,,,,12,0,12,0,0,6,6,6,,,,,,,,space,0.266961097717,,,,,,2017_Jan_24_1200,59.4145386499,spr_backupper,001,Di12,
,selber,nan,des,überführt,jede,als,Fall,nan,Frau,Weins,Besatz,umgearbeitet.,Wohnung.,warmer,Gantenbein.,mitbringen.,zur,nan,nan,mit,dass,stattfinden.,mit,Kaffee,warme,zwängen.,Gewebe,gehärtet.,war.,überführt,dem,ziemlich,Menge,nan,nan,Saft,Frau,zur,Menge,nan,dem,nan,nan,gefertigt.,nan,eingesprüht.,nan,Einsatz,nan,ganz,haftbar.,Boden,verdünnt.,Tee,nan,Fall,Slums.,fahren.,einmal,nan,Sammlung,war.,Japan.,nan,Problemen,Slums.,Gantenbeins.,Probleme,nan,warmem,als,des,Stoff,einmal,diskutiert.,gehalten.,nan,Wohnung.,Tage.,das,Nadelhölzer,liegen.,nan,nan,zwängen.,jede,nan,Sammlung,Wein,trug.,ist.,Boden,warmen,ganz,nan,zurückgekehrt.,nan,mitbringen.,,,,,,,,,,,,,,,,,,,,,,,12,0,12,0,0,7,7,7,,,,,,,,space,0.302155971527,,,,,,2017_Jan_24_1200,59.4145386499,spr_backupper,001,Di12,
