text,sent48,sent9,sent8,sent15,sent3,sent2,sent1,sent14,sent7,sent6,sent5,sent4,sent57,sent56,sent55,sent54,sent53,sent52,sent51,sent50,sent13,sent12,sent11,sent10,sent17,sent16,sent59,sent58,sent93,sent92,sent91,sent90,sent97,sent96,sent95,sent94,sent98,sent22,sent23,sent20,sent21,sent26,sent27,sent24,sent25,sent28,sent29,sent68,sent69,sent66,sent67,sent64,sent65,sent62,sent63,sent60,sent61,sent31,sent30,sent33,sent32,sent35,sent34,sent37,sent36,sent39,sent38,sent79,sent78,sent75,sent74,sent77,sent76,sent71,sent70,sent73,sent72,sent19,sent49,sent18,sent44,sent45,sent84,sent85,sent86,sent87,sent80,sent81,sent82,sent83,sent40,sent41,sent42,sent43,sent88,sent89,sent46,sent47,intros.thisRepN,intros.thisTrialN,intros.thisN,intros.thisIndex,trials.thisRepN,trials.thisTrialN,trials.thisN,trials.thisIndex,testWords.thisRepN,testWords.thisTrialN,testWords.thisN,testWords.thisIndex,test1,test3,test2,test5,test4,test7,test6,test9,test8,test10,realTrials.thisRepN,realTrials.thisTrialN,realTrials.thisN,realTrials.thisIndex,words.thisRepN,words.thisTrialN,words.thisN,words.thisIndex,key_resp_3.keys,key_resp_3.rt,key_resp_8.keys,key_resp_10.keys,key_resp_10.rt,key_resp_6.keys,wordRead.keys,wordRead.rt,key_resp_5.keys,questAnswer.keys,questAnswer.rt,key_resp_6.rt,date,frameRate,expName,session,participant,
"Vielen Dank, dass Sie an diesem Experiment teilnehmen. Vor dem eigentlichen Experiment sehen Sie nun zuerst eine kurze Erläuterung, und Sie absolvieren ein kurze Übungsphase.

Das Experiment dauert insgesamt nicht mehr als 45 Minuten.",,,,,,,,,,,,,,,,,,,,,,,,,,,,,,,,,,,,,,,,,,,,,,,,,,,,,,,,,,,,,,,,,,,,,,,,,,,,,,,,,,,,,,,,,,,,,,,,,,,0,0,0,0,,,,,,,,,,,,,,,,,,,,,,,,,,,,,,,,,,,,,,,2017_Jan_24_1353,59.6441801368,spr_backupper,001,Di14,
"In diesem Experiment lesen Sie deutsche Sätze, indem Sie sich von Wort zu Wort mit der Leertaste durch den Satz klicken.",,,,,,,,,,,,,,,,,,,,,,,,,,,,,,,,,,,,,,,,,,,,,,,,,,,,,,,,,,,,,,,,,,,,,,,,,,,,,,,,,,,,,,,,,,,,,,,,,,,0,1,1,1,,,,,,,,,,,,,,,,,,,,,,,,,,,,,,,,,,,,,,,2017_Jan_24_1353,59.6441801368,spr_backupper,001,Di14,
"Sie sehen dabei immer nur das aktuelle Wort. Die Lesegeschwindigkeit bestimmen Sie vollständig selber. Vor jedem Satz sehen Sie in der Bildschirmmitte für zwei Sekunden ein + an der Stelle, an der dann die Wörter erscheinen.",,,,,,,,,,,,,,,,,,,,,,,,,,,,,,,,,,,,,,,,,,,,,,,,,,,,,,,,,,,,,,,,,,,,,,,,,,,,,,,,,,,,,,,,,,,,,,,,,,,0,2,2,2,,,,,,,,,,,,,,,,,,,,,,,,,,,,,,,,,,,,,,,2017_Jan_24_1353,59.6441801368,spr_backupper,001,Di14,
"Nach jedem Satz wird Ihnen eine Ja/Nein-Verständnisfrage zum zuvor gelesenen Satz gestellt, die Sie mit der J-Taste für "Ja" und der N-Taste für "Nein" beantworten. Antworten Sie möglichst spontan und ohne lange Nachzudenken.",,,,,,,,,,,,,,,,,,,,,,,,,,,,,,,,,,,,,,,,,,,,,,,,,,,,,,,,,,,,,,,,,,,,,,,,,,,,,,,,,,,,,,,,,,,,,,,,,,,0,3,3,3,,,,,,,,,,,,,,,,,,,,,,,,,,,,,,,,,,,,,,,2017_Jan_24_1353,59.6441801368,spr_backupper,001,Di14,
"Unterbrechen Sie das Experiment bitte auf keinen Fall, stellen Sie den ExperimentatorInnen nach dem Experimentbeginn keine Fragen, und lassen Sie sich nicht durch Umgebungsgeräusche ablenken.",,,,,,,,,,,,,,,,,,,,,,,,,,,,,,,,,,,,,,,,,,,,,,,,,,,,,,,,,,,,,,,,,,,,,,,,,,,,,,,,,,,,,,,,,,,,,,,,,,,0,4,4,4,,,,,,,,,,,,,,,,,,,,,,,,,,,,,,,,,,,,,,,2017_Jan_24_1353,59.6441801368,spr_backupper,001,Di14,
"Im nächsten Schritt beantworten Sie bitte eine Frage zu Ihren Deutschkenntnissen. Danach beginnt eine Übungseinheit, mit der Sie sich an die Art der Durchführung dieses Experiments gewöhnen können.",,,,,,,,,,,,,,,,,,,,,,,,,,,,,,,,,,,,,,,,,,,,,,,,,,,,,,,,,,,,,,,,,,,,,,,,,,,,,,,,,,,,,,,,,,,,,,,,,,,0,5,5,5,,,,,,,,,,,,,,,,,,,,,,,,,,,,,,,,,,,,,,,2017_Jan_24_1353,59.6441801368,spr_backupper,001,Di14,
,,,,,,,,,,,,,,,,,,,,,,,,,,,,,,,,,,,,,,,,,,,,,,,,,,,,,,,,,,,,,,,,,,,,,,,,,,,,,,,,,,,,,,,,,,,,,,,,,,,,,,,,,,,,,,,,,,,,,,,,,,,,,,,,,j,6.69194102287,,,,,,,,,,,2017_Jan_24_1353,59.6441801368,spr_backupper,001,Di14,
,,,,,,,,,,,,,,,,,,,,,,,,,,,,,,,,,,,,,,,,,,,,,,,,,,,,,,,,,,,,,,,,,,,,,,,,,,,,,,,,,,,,,,,,,,,,,,,,,,,,,,,0,0,0,0,,,,,,,,,,,,,,,,,,,,,,,,,None,,,,,,,,,,2017_Jan_24_1353,59.6441801368,spr_backupper,001,Di14,
,,,,,,,,,,,,,,,,,,,,,,,,,,,,,,,,,,,,,,,,,,,,,,,,,,,,,,,,,,,,,,,,,,,,,,,,,,,,,,,,,,,,,,,,,,,,,,,,,,,,,,,1,0,1,0,,,,,,,,,,,,,,,,,,,,,,,,,None,,,,,,,,,,2017_Jan_24_1353,59.6441801368,spr_backupper,001,Di14,
,,,,,,,,,,,,,,,,,,,,,,,,,,,,,,,,,,,,,,,,,,,,,,,,,,,,,,,,,,,,,,,,,,,,,,,,,,,,,,,,,,,,,,,,,,,,,,,,,,,,,,,2,0,2,0,,,,,,,,,,,,,,,,,,,,,,,,,None,,,,,,,,,,2017_Jan_24_1353,59.6441801368,spr_backupper,001,Di14,
,,,,,,,,,,,,,,,,,,,,,,,,,,,,,,,,,,,,,,,,,,,,,,,,,,,,,,,,,,,,,,,,,,,,,,,,,,,,,,,,,,,,,,,,,,,,,,,,,,,,,,,3,0,3,0,,,,,,,,,,,,,,,,,,,,,,,,,None,,,,,,,,,,2017_Jan_24_1353,59.6441801368,spr_backupper,001,Di14,
,,,,,,,,,,,,,,,,,,,,,,,,,,,,,,,,,,,,,,,,,,,,,,,,,,,,,,,,,,,,,,,,,,,,,,,,,,,,,,,,,,,,,,,,,,,,,,,,,,,,,,,4,0,4,0,,,,,,,,,,,,,,,,,,,,,,,,,None,,,,,,,,,,2017_Jan_24_1353,59.6441801368,spr_backupper,001,Di14,
,,,,,,,,,,,,,,,,,,,,,,,,,,,,,,,,,,,,,,,,,,,,,,,,,,,,,,,,,,,,,,,,,,,,,,,,,,,,,,,,,,,,,,,,,,,,,,,,,,,,,,,5,0,5,0,,,,,,,,,,,,,,,,,,,,,,,,,None,,,,,,,,,,2017_Jan_24_1353,59.6441801368,spr_backupper,001,Di14,
,,,,,,,,,,,,,,,,,,,,,,,,,,,,,,,,,,,,,,,,,,,,,,,,,,,,,,,,,,,,,,,,,,,,,,,,,,,,,,,,,,,,,,,,,,,,,,,,,,,,,,,6,0,6,0,,,,,,,,,,,,,,,,,,,,,,,,,None,,,,,,,,,,2017_Jan_24_1353,59.6441801368,spr_backupper,001,Di14,
,,,,,,,,,,,,,,,,,,,,,,,,,,,,,,,,,,,,,,,,,,,,,,,,,,,,,,,,,,,,,,,,,,,,,,,,,,,,,,,,,,,,,,,,,,,,,,,,,,,,,,,7,0,7,0,,,,,,,,,,,,,,,,,,,,,,,,,None,,,,,,,,,,2017_Jan_24_1353,59.6441801368,spr_backupper,001,Di14,
,,,,,,,,,,,,,,,,,,,,,,,,,,,,,,,,,,,,,,,,,,,,,,,,,,,,,,,,,,,,,,,,,,,,,,,,,,,,,,,,,,,,,,,,,,,,,,,,,,,,,,,8,0,8,0,,,,,,,,,,,,,,,,,,,,,,,,,None,,,,,,,,,,2017_Jan_24_1353,59.6441801368,spr_backupper,001,Di14,
,,,,,,,,,,,,,,,,,,,,,,,,,,,,,,,,,,,,,,,,,,,,,,,,,,,,,,,,,,,,,,,,,,,,,,,,,,,,,,,,,,,,,,,,,,,,,,,,,,,,,,,9,0,9,0,,,,,,,,,,,,,,,,,,,,,,,,,None,,,,,,,,,,2017_Jan_24_1353,59.6441801368,spr_backupper,001,Di14,
,,,,,,,,,,,,,,,,,,,,,,,,,,,,,,,,,,,,,,,,,,,,,,,,,,,,,,,,,,,,,,,,,,,,,,,,,,,,,,,,,,,,,,,,,,,,,,,,,,,,,,,,,,,,,,,,,,,,,,,,,,,,,,,,,,,,space,4.8292028904,,,,,,,,2017_Jan_24_1353,59.6441801368,spr_backupper,001,Di14,
,Es,Es,Alle,Die,Jungtiere,Die,Er,Die,Ich,Die,Das,Die,Sie,Die,Manche,Bei,Nicht,Fernab,Die,Er,Er,Am,Außer,Beträchtliche,In,Außer,100,Dass,Die,In,Ich,Die,Wir,Sie,Außer,Er,Wir,Wir,Die,Sie,Die,Es,Man,Der,Die,Bei,Wir,In,Viele,Danach,Er,Bei,Es,Man,In,Am,Die,Dort,Die,In,Im,Sie,Jetzt,Bei,Die,Wir,In,Die,Die,Ihr,Wir,Ich,Walter,In,Es,Außer,Sie,Wir,Unter,In,Jugendliche,Nicht,Als,Die,Dort,Die,Sie,Mit,Die,Wir,Die,Sie,Wir,Mit,Beträchtliche,Im,100,Viele,,,,,,,,,,,,,,,,,,,,,,,0,0,0,0,0,0,0,0,,,,,,None,space,0.9560110569,,,,,2017_Jan_24_1353,59.6441801368,spr_backupper,001,Di14,
,waren,hat,Betten,Schule,sollten,Kinder,wurde,Gäste,nehme,Schuhe,Tuch,Autos,hatte,Uhr,Kreditnehmer,der,ein,des,Schule,wurde,stellt,äußersten,den,Stücke,den,dem,g,es,Gäste,den,nehme,Lösung,übergaben,verbrauchen,das,stellt,hatten,konnten,Teilnehmerinnen,verbrauchen,Stücke,wurden,machte,Flug,müden,der,hatten,diesem,Tonnen,wurde,hat,unserer,waren,machte,der,äußeren,Schuhe,türmen,"Uhr,",meinem,Fernrohr,hatte,ist,unserer,Eislaufbahnen,übergaben,einer,Formen,Uhr,Blutdruck,mussten,wurde,Scheel,meinem,wurden,dem,haben,haben,keinen,der,können,ein,die,Linie,türmen,Autos,verlassen,dieser,Kinder,haben,Uhr,verlassen,mussten,dieser,Stücke,Fernrohr,g,Tonnen,,,,,,,,,,,,,,,,,,,,,,,0,0,0,0,0,1,1,1,,,,,,,space,0.520602941513,,,,,2017_Jan_24_1353,59.6441801368,spr_backupper,001,Di14,
,nur,uns,wurden,verbraucht,immer,fuhren,trotz,suchen,eine,in,wurde,beider,keine,war,sind,Feier,Tropfen,Rummels,verbraucht,trotz,die,Rand,Bürgermeister,saftiges,Kakao,Essen,braunen,"regnete,",suchen,Kakao,eine,wird,dem,60,Essen,die,in,dann,wussten,60,wurden,Eimer,mal,zum,Teilnehmer,Feier,in,Zirkus,gebrauchter,die,ein,Ankunft,nur,mal,Tat,Rand,in,sich,die,Studium,sahen,keine,genau,Ankunft,wurden,das,Studie,wurden,schlug,kann,uns,damals,war,Studium,Eimer,Bürgermeister,die,jede,Umständen,Tat,Kleidung,Tropfen,Sonne,101,sich,beider,wegen,Methode,fuhren,jede,schlug,wegen,uns,Methode,saftigen,sahen,brauner,gebrauchte,,,,,,,,,,,,,,,,,,,,,,,0,0,0,0,0,2,2,2,,,,,,,space,0.469945192337,,,,,2017_Jan_24_1353,59.6441801368,spr_backupper,001,Di14,
,kleinere,die,mit,260.000,auf,mit,des,die,große,Größe,dann,beteiligten,Lust,aus,mit,gedachte,königliches,wurde,260.000,dem,Masse,der,beschuldigten,Fleisch,gehören,kann,Zuckers,hat,die,gehören,große,mit,Mann,Liter,kann,Masse,Dänemark,mit,überwiegend,Liter,aus,roter,wieder,Mond,wurden,gedachte,Dänemark,werden,Kleidung,Leinwand,Hemd,stand,kleinere,wieder,wissen,der,Größe,Berge,er,habe,wir,Lust,die,stand,mit,Auto,wurde,unter,"sporadisch,",schon,durch,schnell,der,las,rote,beschuldigten,Erlebnisse,Menge,können,wissen,bei,königlichen,"unterging,",hält,Berge,beteiligter,dem,kann,mit,Menge,"sporadisch,",des,durch,kann,Fleischs,wir,Zucker,Kleidung,,,,,,,,,,,,,,,,,,,,,,,0,0,0,0,0,3,3,3,,,,,,,space,0.419421195984,,,,,2017_Jan_24_1353,59.6441801368,spr_backupper,001,Di14,
,"Delikte,",Stimmung,"üblichem,",Kilowattstunden,warmem,solchen,bekannten,Wohnung,Packung,36,mit,Fahrer,auf,"Japan,","sämtlichem,",man,Blut,schon,Kilowattstunden,bekannten,mit,Stadt,die,wurden,immer,ich,sind,uns,Wohnung,immer,Packung,"reichlichem,",das,sprudelndes,ich,mit,gelegentlich,"minimalem,","nicht,",sprudelnden,"wertvollem,",Farbe,viel,dauerte,mit,man,einen,die,landen,aus,aus,ein,"Delikte,",viel,wir,Stadt,36,schmutziger,"trug,",ich,den,auf,richtige,ein,dauerhaftem,dem,jetzt,"regelmäßigem,",obschon,bei,Büschel,dank,vierte,ich,Farbe,die,bei,alten,Neuwahlen,wir,ausreichendem,Bluts,war,nicht,schmutzige,Fahrer,schönen,man,solch,alten,obwohl,schönen,Büschel,man,wurden,den,sind,landen,,,,,,,,,,,,,,,,,,,,,,,0,0,0,0,0,4,4,4,,,,,,,space,0.503278970718,,,,,2017_Jan_24_1353,59.6441801368,spr_backupper,001,Di14,
,derer,ziemlich,harten,elektrische,weichem,unzureichenden,Skandals,des,salziger,würden,"reichem,",wurden,noch,die,künftigem,den,hat,immer,elektrischer,Skandal,einem,liegen,Störenfriede,serviert.,350,leider,auf,die,des,350,salzige,purem,Auto,Trinkwasser.,leider,einem,einen,sauberen,was,Trinkwassers.,klassischen,geschleudert.,Lärm,ungefähr,zusätzlichem,der,gelegentlichen,Tiere,im,seltenem,feinem,Glas,deren,Lärm,um,liegen,hätten,Wäsche.,war,mehr,roten,noch,"Zeit,",Glas,feinem,Mann,"nachgewiesen,",kaltem,sie,minimalem,frischen,täglichem,Bundespräsident.,mehr,geschleudert.,Störenfriede,"frischem,",Kram,vor,von,monatlichem,hat,die,am,Wäsche.,wurden,Wetter,eine,unzureichenden,Krams,sie,Wetters,frisches,eine,serviert.,roten,auf,im,,,,,,,,,,,,,,,,,,,,,,,0,0,0,0,0,5,5,5,,,,,,,space,0.720566987991,,,,,2017_Jan_24_1353,59.6441801368,spr_backupper,001,Di14,
,sie,"vermiest,",Schaumstoff,Energie.,Untergrund,Helmen,wiedergewählt.,Herrn,Wurst,seiner,goldenen,verschrottet.,eine,er,Einkommen,Soldaten,den,ruhig,Energie.,wiedergewählt.,Esslöffel,die,jeden.,nan,ml,nichts,jeden,Stimmung,Herrn,ml,Wurst,Alkohol,mehr,nan,nichts,Esslöffel,Besucher.,Kraftstoff,Tupperware,nan,Schmuck,nan,um,drei,schwarzem,Soldaten,Besucher.,artgerecht,Müll.,dichten,dichten,köstlicher,sie,um,die,die,seiner,nan,aus,als,Planeten,eine,um,köstlichen,Kunsteis,mehr,dass,Abduschen,defekt,täglichen,Grases,grünen,nan,als,nan,jeden.,kaltem,aus,Dezember,den,Taschengeld,den,Flut,Hauptbahnhof.,nan,verschrottet.,die,große,Helmen,aus,defekt,die,Gras,große,nan,Planet,jeden,Müll.,,,,,,,,,,,,,,,,,,,,,,,0,0,0,0,0,6,6,6,,,,,,,space,1.05761289597,,,,,2017_Jan_24_1353,59.6441801368,spr_backupper,001,Di14,
,,,,,,,,,,,,,,,,,,,,,,,,,,,,,,,,,,,,,,,,,,,,,,,,,,,,,,,,,,,,,,,,,,,,,,,,,,,,,,,,,,,,,,,,,,,,,,,,,,,,,,,,,,,,,,,,,,,,,,,,,0,0,0,0,,,,,,,,,,,,,None,j,2.70546603203,,2017_Jan_24_1353,59.6441801368,spr_backupper,001,Di14,
,Es,Es,Alle,Die,Jungtiere,Die,Er,Die,Ich,Die,Das,Die,Sie,Die,Manche,Bei,Nicht,Fernab,Die,Er,Er,Am,Außer,Beträchtliche,In,Außer,100,Dass,Die,In,Ich,Die,Wir,Sie,Außer,Er,Wir,Wir,Die,Sie,Die,Es,Man,Der,Die,Bei,Wir,In,Viele,Danach,Er,Bei,Es,Man,In,Am,Die,Dort,Die,In,Im,Sie,Jetzt,Bei,Die,Wir,In,Die,Die,Ihr,Wir,Ich,Walter,In,Es,Außer,Sie,Wir,Unter,In,Jugendliche,Nicht,Als,Die,Dort,Die,Sie,Mit,Die,Wir,Die,Sie,Wir,Mit,Beträchtliche,Im,100,Viele,,,,,,,,,,,,,,,,,,,,,,,1,0,1,0,0,0,0,0,,,,,,None,space,0.471302032471,,,,,2017_Jan_24_1353,59.6441801368,spr_backupper,001,Di14,
,waren,hat,Betten,Schule,sollten,Kinder,wurde,Gäste,nehme,Schuhe,Tuch,Autos,hatte,Uhr,Kreditnehmer,der,ein,des,Schule,wurde,stellt,äußersten,den,Stücke,den,dem,g,es,Gäste,den,nehme,Lösung,übergaben,verbrauchen,das,stellt,hatten,konnten,Teilnehmerinnen,verbrauchen,Stücke,wurden,machte,Flug,müden,der,hatten,diesem,Tonnen,wurde,hat,unserer,waren,machte,der,äußeren,Schuhe,türmen,"Uhr,",meinem,Fernrohr,hatte,ist,unserer,Eislaufbahnen,übergaben,einer,Formen,Uhr,Blutdruck,mussten,wurde,Scheel,meinem,wurden,dem,haben,haben,keinen,der,können,ein,die,Linie,türmen,Autos,verlassen,dieser,Kinder,haben,Uhr,verlassen,mussten,dieser,Stücke,Fernrohr,g,Tonnen,,,,,,,,,,,,,,,,,,,,,,,1,0,1,0,0,1,1,1,,,,,,,space,0.41099691391,,,,,2017_Jan_24_1353,59.6441801368,spr_backupper,001,Di14,
,nur,uns,wurden,verbraucht,immer,fuhren,trotz,suchen,eine,in,wurde,beider,keine,war,sind,Feier,Tropfen,Rummels,verbraucht,trotz,die,Rand,Bürgermeister,saftiges,Kakao,Essen,braunen,"regnete,",suchen,Kakao,eine,wird,dem,60,Essen,die,in,dann,wussten,60,wurden,Eimer,mal,zum,Teilnehmer,Feier,in,Zirkus,gebrauchter,die,ein,Ankunft,nur,mal,Tat,Rand,in,sich,die,Studium,sahen,keine,genau,Ankunft,wurden,das,Studie,wurden,schlug,kann,uns,damals,war,Studium,Eimer,Bürgermeister,die,jede,Umständen,Tat,Kleidung,Tropfen,Sonne,101,sich,beider,wegen,Methode,fuhren,jede,schlug,wegen,uns,Methode,saftigen,sahen,brauner,gebrauchte,,,,,,,,,,,,,,,,,,,,,,,1,0,1,0,0,2,2,2,,,,,,,space,0.644175052643,,,,,2017_Jan_24_1353,59.6441801368,spr_backupper,001,Di14,
,kleinere,die,mit,260.000,auf,mit,des,die,große,Größe,dann,beteiligten,Lust,aus,mit,gedachte,königliches,wurde,260.000,dem,Masse,der,beschuldigten,Fleisch,gehören,kann,Zuckers,hat,die,gehören,große,mit,Mann,Liter,kann,Masse,Dänemark,mit,überwiegend,Liter,aus,roter,wieder,Mond,wurden,gedachte,Dänemark,werden,Kleidung,Leinwand,Hemd,stand,kleinere,wieder,wissen,der,Größe,Berge,er,habe,wir,Lust,die,stand,mit,Auto,wurde,unter,"sporadisch,",schon,durch,schnell,der,las,rote,beschuldigten,Erlebnisse,Menge,können,wissen,bei,königlichen,"unterging,",hält,Berge,beteiligter,dem,kann,mit,Menge,"sporadisch,",des,durch,kann,Fleischs,wir,Zucker,Kleidung,,,,,,,,,,,,,,,,,,,,,,,1,0,1,0,0,3,3,3,,,,,,,space,0.553152084351,,,,,2017_Jan_24_1353,59.6441801368,spr_backupper,001,Di14,
,"Delikte,",Stimmung,"üblichem,",Kilowattstunden,warmem,solchen,bekannten,Wohnung,Packung,36,mit,Fahrer,auf,"Japan,","sämtlichem,",man,Blut,schon,Kilowattstunden,bekannten,mit,Stadt,die,wurden,immer,ich,sind,uns,Wohnung,immer,Packung,"reichlichem,",das,sprudelndes,ich,mit,gelegentlich,"minimalem,","nicht,",sprudelnden,"wertvollem,",Farbe,viel,dauerte,mit,man,einen,die,landen,aus,aus,ein,"Delikte,",viel,wir,Stadt,36,schmutziger,"trug,",ich,den,auf,richtige,ein,dauerhaftem,dem,jetzt,"regelmäßigem,",obschon,bei,Büschel,dank,vierte,ich,Farbe,die,bei,alten,Neuwahlen,wir,ausreichendem,Bluts,war,nicht,schmutzige,Fahrer,schönen,man,solch,alten,obwohl,schönen,Büschel,man,wurden,den,sind,landen,,,,,,,,,,,,,,,,,,,,,,,1,0,1,0,0,4,4,4,,,,,,,space,0.620750188828,,,,,2017_Jan_24_1353,59.6441801368,spr_backupper,001,Di14,
,derer,ziemlich,harten,elektrische,weichem,unzureichenden,Skandals,des,salziger,würden,"reichem,",wurden,noch,die,künftigem,den,hat,immer,elektrischer,Skandal,einem,liegen,Störenfriede,serviert.,350,leider,auf,die,des,350,salzige,purem,Auto,Trinkwasser.,leider,einem,einen,sauberen,was,Trinkwassers.,klassischen,geschleudert.,Lärm,ungefähr,zusätzlichem,der,gelegentlichen,Tiere,im,seltenem,feinem,Glas,deren,Lärm,um,liegen,hätten,Wäsche.,war,mehr,roten,noch,"Zeit,",Glas,feinem,Mann,"nachgewiesen,",kaltem,sie,minimalem,frischen,täglichem,Bundespräsident.,mehr,geschleudert.,Störenfriede,"frischem,",Kram,vor,von,monatlichem,hat,die,am,Wäsche.,wurden,Wetter,eine,unzureichenden,Krams,sie,Wetters,frisches,eine,serviert.,roten,auf,im,,,,,,,,,,,,,,,,,,,,,,,1,0,1,0,0,5,5,5,,,,,,,space,1.34332513809,,,,,2017_Jan_24_1353,59.6441801368,spr_backupper,001,Di14,
,sie,"vermiest,",Schaumstoff,Energie.,Untergrund,Helmen,wiedergewählt.,Herrn,Wurst,seiner,goldenen,verschrottet.,eine,er,Einkommen,Soldaten,den,ruhig,Energie.,wiedergewählt.,Esslöffel,die,jeden.,nan,ml,nichts,jeden,Stimmung,Herrn,ml,Wurst,Alkohol,mehr,nan,nichts,Esslöffel,Besucher.,Kraftstoff,Tupperware,nan,Schmuck,nan,um,drei,schwarzem,Soldaten,Besucher.,artgerecht,Müll.,dichten,dichten,köstlicher,sie,um,die,die,seiner,nan,aus,als,Planeten,eine,um,köstlichen,Kunsteis,mehr,dass,Abduschen,defekt,täglichen,Grases,grünen,nan,als,nan,jeden.,kaltem,aus,Dezember,den,Taschengeld,den,Flut,Hauptbahnhof.,nan,verschrottet.,die,große,Helmen,aus,defekt,die,Gras,große,nan,Planet,jeden,Müll.,,,,,,,,,,,,,,,,,,,,,,,1,0,1,0,0,6,6,6,,,,,,,space,1.04465413094,,,,,2017_Jan_24_1353,59.6441801368,spr_backupper,001,Di14,
,überführt,dass,gefertigt.,nan,liegen.,zur,nan,Gantenbeins.,mit,Frau,Besatz,nan,Sammlung,trug.,haftbar.,des,Boden,diskutiert.,nan,nan,warmen,Slums.,nan,nan,warme,mitbringen.,Fall,ziemlich,Gantenbein.,warmer,mit,verdünnt.,als,nan,mitbringen.,warmem,nan,fahren.,ist.,nan,umgearbeitet.,nan,jede,Tage.,Kaffee,des,nan,gehalten.,nan,Gewebe,Stoff,Wein,überführt,jede,Probleme,Slums.,Frau,nan,Japan.,einmal,ganz,Sammlung,Nadelhölzer,Weins,eingesprüht.,als,das,gehärtet.,war.,Einsatz,zwängen.,Tee,nan,einmal,nan,nan,Saft,dem,stattfinden.,Problemen,selber,Boden,zurückgekehrt.,nan,nan,nan,Wohnung.,Menge,zur,dem,war.,Wohnung.,zwängen.,Menge,nan,ganz,Fall,nan,,,,,,,,,,,,,,,,,,,,,,,1,0,1,0,0,7,7,7,,,,,,,space,0.537510871887,,,,,2017_Jan_24_1353,59.6441801368,spr_backupper,001,Di14,
,wurden.,es,nan,nan,nan,Schule.,nan,nan,an,gepasst,rekonstruiert.,nan,dummer,nan,nan,zweiten,berührt.,nan,nan,nan,Honigs,nan,nan,nan,Milch.,nan,genug.,vermiest.,nan,Milch.,an,nan,gerne.,nan,nan,Honig,nan,nan,nan,nan,nan,nan,Menge,nan,wiederbelebt.,zweiten,nan,nan,nan,wiederhergestellt.,gefertigt.,schon,wurden.,Menge,im,nan,gepasst.,nan,nan,Rilke,deutlich.,dumme,umzusetzen.,schon,nan,gerne.,Medikament,nan,nan,sinken.,nan,wieder,nan,Rilke.,nan,nan,besprochen.,Haus,nan,im,kaufen.,berührt.,nan,nan,nan,nan,nan,dunkler,Schule.,Haus,nan,nan,nan,dunkle,nan,deutlich.,genug.,nan,,,,,,,,,,,,,,,,,,,,,,,1,0,1,0,0,8,8,8,,,,,,,space,0.819961071014,,,,,2017_Jan_24_1353,59.6441801368,spr_backupper,001,Di14,
,,,,,,,,,,,,,,,,,,,,,,,,,,,,,,,,,,,,,,,,,,,,,,,,,,,,,,,,,,,,,,,,,,,,,,,,,,,,,,,,,,,,,,,,,,,,,,,,,,,,,,,,,,,,,,,,,,,,,,,,,1,0,1,0,,,,,,,,,,,,,None,j,2.6123509407,,2017_Jan_24_1353,59.6441801368,spr_backupper,001,Di14,
,Es,Es,Alle,Die,Jungtiere,Die,Er,Die,Ich,Die,Das,Die,Sie,Die,Manche,Bei,Nicht,Fernab,Die,Er,Er,Am,Außer,Beträchtliche,In,Außer,100,Dass,Die,In,Ich,Die,Wir,Sie,Außer,Er,Wir,Wir,Die,Sie,Die,Es,Man,Der,Die,Bei,Wir,In,Viele,Danach,Er,Bei,Es,Man,In,Am,Die,Dort,Die,In,Im,Sie,Jetzt,Bei,Die,Wir,In,Die,Die,Ihr,Wir,Ich,Walter,In,Es,Außer,Sie,Wir,Unter,In,Jugendliche,Nicht,Als,Die,Dort,Die,Sie,Mit,Die,Wir,Die,Sie,Wir,Mit,Beträchtliche,Im,100,Viele,,,,,,,,,,,,,,,,,,,,,,,2,0,2,0,0,0,0,0,,,,,,space,space,0.546105861664,,,,0.520720005035,2017_Jan_24_1353,59.6441801368,spr_backupper,001,Di14,
,waren,hat,Betten,Schule,sollten,Kinder,wurde,Gäste,nehme,Schuhe,Tuch,Autos,hatte,Uhr,Kreditnehmer,der,ein,des,Schule,wurde,stellt,äußersten,den,Stücke,den,dem,g,es,Gäste,den,nehme,Lösung,übergaben,verbrauchen,das,stellt,hatten,konnten,Teilnehmerinnen,verbrauchen,Stücke,wurden,machte,Flug,müden,der,hatten,diesem,Tonnen,wurde,hat,unserer,waren,machte,der,äußeren,Schuhe,türmen,"Uhr,",meinem,Fernrohr,hatte,ist,unserer,Eislaufbahnen,übergaben,einer,Formen,Uhr,Blutdruck,mussten,wurde,Scheel,meinem,wurden,dem,haben,haben,keinen,der,können,ein,die,Linie,türmen,Autos,verlassen,dieser,Kinder,haben,Uhr,verlassen,mussten,dieser,Stücke,Fernrohr,g,Tonnen,,,,,,,,,,,,,,,,,,,,,,,2,0,2,0,0,1,1,1,,,,,,,space,0.618494987488,,,,,2017_Jan_24_1353,59.6441801368,spr_backupper,001,Di14,
,nur,uns,wurden,verbraucht,immer,fuhren,trotz,suchen,eine,in,wurde,beider,keine,war,sind,Feier,Tropfen,Rummels,verbraucht,trotz,die,Rand,Bürgermeister,saftiges,Kakao,Essen,braunen,"regnete,",suchen,Kakao,eine,wird,dem,60,Essen,die,in,dann,wussten,60,wurden,Eimer,mal,zum,Teilnehmer,Feier,in,Zirkus,gebrauchter,die,ein,Ankunft,nur,mal,Tat,Rand,in,sich,die,Studium,sahen,keine,genau,Ankunft,wurden,das,Studie,wurden,schlug,kann,uns,damals,war,Studium,Eimer,Bürgermeister,die,jede,Umständen,Tat,Kleidung,Tropfen,Sonne,101,sich,beider,wegen,Methode,fuhren,jede,schlug,wegen,uns,Methode,saftigen,sahen,brauner,gebrauchte,,,,,,,,,,,,,,,,,,,,,,,2,0,2,0,0,2,2,2,,,,,,,space,0.612327098846,,,,,2017_Jan_24_1353,59.6441801368,spr_backupper,001,Di14,
,kleinere,die,mit,260.000,auf,mit,des,die,große,Größe,dann,beteiligten,Lust,aus,mit,gedachte,königliches,wurde,260.000,dem,Masse,der,beschuldigten,Fleisch,gehören,kann,Zuckers,hat,die,gehören,große,mit,Mann,Liter,kann,Masse,Dänemark,mit,überwiegend,Liter,aus,roter,wieder,Mond,wurden,gedachte,Dänemark,werden,Kleidung,Leinwand,Hemd,stand,kleinere,wieder,wissen,der,Größe,Berge,er,habe,wir,Lust,die,stand,mit,Auto,wurde,unter,"sporadisch,",schon,durch,schnell,der,las,rote,beschuldigten,Erlebnisse,Menge,können,wissen,bei,königlichen,"unterging,",hält,Berge,beteiligter,dem,kann,mit,Menge,"sporadisch,",des,durch,kann,Fleischs,wir,Zucker,Kleidung,,,,,,,,,,,,,,,,,,,,,,,2,0,2,0,0,3,3,3,,,,,,,space,0.618675947189,,,,,2017_Jan_24_1353,59.6441801368,spr_backupper,001,Di14,
,"Delikte,",Stimmung,"üblichem,",Kilowattstunden,warmem,solchen,bekannten,Wohnung,Packung,36,mit,Fahrer,auf,"Japan,","sämtlichem,",man,Blut,schon,Kilowattstunden,bekannten,mit,Stadt,die,wurden,immer,ich,sind,uns,Wohnung,immer,Packung,"reichlichem,",das,sprudelndes,ich,mit,gelegentlich,"minimalem,","nicht,",sprudelnden,"wertvollem,",Farbe,viel,dauerte,mit,man,einen,die,landen,aus,aus,ein,"Delikte,",viel,wir,Stadt,36,schmutziger,"trug,",ich,den,auf,richtige,ein,dauerhaftem,dem,jetzt,"regelmäßigem,",obschon,bei,Büschel,dank,vierte,ich,Farbe,die,bei,alten,Neuwahlen,wir,ausreichendem,Bluts,war,nicht,schmutzige,Fahrer,schönen,man,solch,alten,obwohl,schönen,Büschel,man,wurden,den,sind,landen,,,,,,,,,,,,,,,,,,,,,,,2,0,2,0,0,4,4,4,,,,,,,space,0.621412992477,,,,,2017_Jan_24_1353,59.6441801368,spr_backupper,001,Di14,
,derer,ziemlich,harten,elektrische,weichem,unzureichenden,Skandals,des,salziger,würden,"reichem,",wurden,noch,die,künftigem,den,hat,immer,elektrischer,Skandal,einem,liegen,Störenfriede,serviert.,350,leider,auf,die,des,350,salzige,purem,Auto,Trinkwasser.,leider,einem,einen,sauberen,was,Trinkwassers.,klassischen,geschleudert.,Lärm,ungefähr,zusätzlichem,der,gelegentlichen,Tiere,im,seltenem,feinem,Glas,deren,Lärm,um,liegen,hätten,Wäsche.,war,mehr,roten,noch,"Zeit,",Glas,feinem,Mann,"nachgewiesen,",kaltem,sie,minimalem,frischen,täglichem,Bundespräsident.,mehr,geschleudert.,Störenfriede,"frischem,",Kram,vor,von,monatlichem,hat,die,am,Wäsche.,wurden,Wetter,eine,unzureichenden,Krams,sie,Wetters,frisches,eine,serviert.,roten,auf,im,,,,,,,,,,,,,,,,,,,,,,,2,0,2,0,0,5,5,5,,,,,,,space,0.796405076981,,,,,2017_Jan_24_1353,59.6441801368,spr_backupper,001,Di14,
,sie,"vermiest,",Schaumstoff,Energie.,Untergrund,Helmen,wiedergewählt.,Herrn,Wurst,seiner,goldenen,verschrottet.,eine,er,Einkommen,Soldaten,den,ruhig,Energie.,wiedergewählt.,Esslöffel,die,jeden.,nan,ml,nichts,jeden,Stimmung,Herrn,ml,Wurst,Alkohol,mehr,nan,nichts,Esslöffel,Besucher.,Kraftstoff,Tupperware,nan,Schmuck,nan,um,drei,schwarzem,Soldaten,Besucher.,artgerecht,Müll.,dichten,dichten,köstlicher,sie,um,die,die,seiner,nan,aus,als,Planeten,eine,um,köstlichen,Kunsteis,mehr,dass,Abduschen,defekt,täglichen,Grases,grünen,nan,als,nan,jeden.,kaltem,aus,Dezember,den,Taschengeld,den,Flut,Hauptbahnhof.,nan,verschrottet.,die,große,Helmen,aus,defekt,die,Gras,große,nan,Planet,jeden,Müll.,,,,,,,,,,,,,,,,,,,,,,,2,0,2,0,0,6,6,6,,,,,,,space,0.920690059662,,,,,2017_Jan_24_1353,59.6441801368,spr_backupper,001,Di14,
,überführt,dass,gefertigt.,nan,liegen.,zur,nan,Gantenbeins.,mit,Frau,Besatz,nan,Sammlung,trug.,haftbar.,des,Boden,diskutiert.,nan,nan,warmen,Slums.,nan,nan,warme,mitbringen.,Fall,ziemlich,Gantenbein.,warmer,mit,verdünnt.,als,nan,mitbringen.,warmem,nan,fahren.,ist.,nan,umgearbeitet.,nan,jede,Tage.,Kaffee,des,nan,gehalten.,nan,Gewebe,Stoff,Wein,überführt,jede,Probleme,Slums.,Frau,nan,Japan.,einmal,ganz,Sammlung,Nadelhölzer,Weins,eingesprüht.,als,das,gehärtet.,war.,Einsatz,zwängen.,Tee,nan,einmal,nan,nan,Saft,dem,stattfinden.,Problemen,selber,Boden,zurückgekehrt.,nan,nan,nan,Wohnung.,Menge,zur,dem,war.,Wohnung.,zwängen.,Menge,nan,ganz,Fall,nan,,,,,,,,,,,,,,,,,,,,,,,2,0,2,0,0,7,7,7,,,,,,,space,0.610599994659,,,,,2017_Jan_24_1353,59.6441801368,spr_backupper,001,Di14,
,,,,,,,,,,,,,,,,,,,,,,,,,,,,,,,,,,,,,,,,,,,,,,,,,,,,,,,,,,,,,,,,,,,,,,,,,,,,,,,,,,,,,,,,,,,,,,,,,,,,,,,,,,,,,,,,,,,,,,,,,2,0,2,0,,,,,,,,,,,,,None,n,1.63023304939,,2017_Jan_24_1353,59.6441801368,spr_backupper,001,Di14,
,Es,Es,Alle,Die,Jungtiere,Die,Er,Die,Ich,Die,Das,Die,Sie,Die,Manche,Bei,Nicht,Fernab,Die,Er,Er,Am,Außer,Beträchtliche,In,Außer,100,Dass,Die,In,Ich,Die,Wir,Sie,Außer,Er,Wir,Wir,Die,Sie,Die,Es,Man,Der,Die,Bei,Wir,In,Viele,Danach,Er,Bei,Es,Man,In,Am,Die,Dort,Die,In,Im,Sie,Jetzt,Bei,Die,Wir,In,Die,Die,Ihr,Wir,Ich,Walter,In,Es,Außer,Sie,Wir,Unter,In,Jugendliche,Nicht,Als,Die,Dort,Die,Sie,Mit,Die,Wir,Die,Sie,Wir,Mit,Beträchtliche,Im,100,Viele,,,,,,,,,,,,,,,,,,,,,,,3,0,3,0,0,0,0,0,,,,,,None,space,0.0748269557953,,,,,2017_Jan_24_1353,59.6441801368,spr_backupper,001,Di14,
,waren,hat,Betten,Schule,sollten,Kinder,wurde,Gäste,nehme,Schuhe,Tuch,Autos,hatte,Uhr,Kreditnehmer,der,ein,des,Schule,wurde,stellt,äußersten,den,Stücke,den,dem,g,es,Gäste,den,nehme,Lösung,übergaben,verbrauchen,das,stellt,hatten,konnten,Teilnehmerinnen,verbrauchen,Stücke,wurden,machte,Flug,müden,der,hatten,diesem,Tonnen,wurde,hat,unserer,waren,machte,der,äußeren,Schuhe,türmen,"Uhr,",meinem,Fernrohr,hatte,ist,unserer,Eislaufbahnen,übergaben,einer,Formen,Uhr,Blutdruck,mussten,wurde,Scheel,meinem,wurden,dem,haben,haben,keinen,der,können,ein,die,Linie,türmen,Autos,verlassen,dieser,Kinder,haben,Uhr,verlassen,mussten,dieser,Stücke,Fernrohr,g,Tonnen,,,,,,,,,,,,,,,,,,,,,,,3,0,3,0,0,1,1,1,,,,,,,space,1.39909315109,,,,,2017_Jan_24_1353,59.6441801368,spr_backupper,001,Di14,
,nur,uns,wurden,verbraucht,immer,fuhren,trotz,suchen,eine,in,wurde,beider,keine,war,sind,Feier,Tropfen,Rummels,verbraucht,trotz,die,Rand,Bürgermeister,saftiges,Kakao,Essen,braunen,"regnete,",suchen,Kakao,eine,wird,dem,60,Essen,die,in,dann,wussten,60,wurden,Eimer,mal,zum,Teilnehmer,Feier,in,Zirkus,gebrauchter,die,ein,Ankunft,nur,mal,Tat,Rand,in,sich,die,Studium,sahen,keine,genau,Ankunft,wurden,das,Studie,wurden,schlug,kann,uns,damals,war,Studium,Eimer,Bürgermeister,die,jede,Umständen,Tat,Kleidung,Tropfen,Sonne,101,sich,beider,wegen,Methode,fuhren,jede,schlug,wegen,uns,Methode,saftigen,sahen,brauner,gebrauchte,,,,,,,,,,,,,,,,,,,,,,,3,0,3,0,0,2,2,2,,,,,,,space,0.88107085228,,,,,2017_Jan_24_1353,59.6441801368,spr_backupper,001,Di14,
,kleinere,die,mit,260.000,auf,mit,des,die,große,Größe,dann,beteiligten,Lust,aus,mit,gedachte,königliches,wurde,260.000,dem,Masse,der,beschuldigten,Fleisch,gehören,kann,Zuckers,hat,die,gehören,große,mit,Mann,Liter,kann,Masse,Dänemark,mit,überwiegend,Liter,aus,roter,wieder,Mond,wurden,gedachte,Dänemark,werden,Kleidung,Leinwand,Hemd,stand,kleinere,wieder,wissen,der,Größe,Berge,er,habe,wir,Lust,die,stand,mit,Auto,wurde,unter,"sporadisch,",schon,durch,schnell,der,las,rote,beschuldigten,Erlebnisse,Menge,können,wissen,bei,königlichen,"unterging,",hält,Berge,beteiligter,dem,kann,mit,Menge,"sporadisch,",des,durch,kann,Fleischs,wir,Zucker,Kleidung,,,,,,,,,,,,,,,,,,,,,,,3,0,3,0,0,3,3,3,,,,,,,space,1.75106596947,,,,,2017_Jan_24_1353,59.6441801368,spr_backupper,001,Di14,
,"Delikte,",Stimmung,"üblichem,",Kilowattstunden,warmem,solchen,bekannten,Wohnung,Packung,36,mit,Fahrer,auf,"Japan,","sämtlichem,",man,Blut,schon,Kilowattstunden,bekannten,mit,Stadt,die,wurden,immer,ich,sind,uns,Wohnung,immer,Packung,"reichlichem,",das,sprudelndes,ich,mit,gelegentlich,"minimalem,","nicht,",sprudelnden,"wertvollem,",Farbe,viel,dauerte,mit,man,einen,die,landen,aus,aus,ein,"Delikte,",viel,wir,Stadt,36,schmutziger,"trug,",ich,den,auf,richtige,ein,dauerhaftem,dem,jetzt,"regelmäßigem,",obschon,bei,Büschel,dank,vierte,ich,Farbe,die,bei,alten,Neuwahlen,wir,ausreichendem,Bluts,war,nicht,schmutzige,Fahrer,schönen,man,solch,alten,obwohl,schönen,Büschel,man,wurden,den,sind,landen,,,,,,,,,,,,,,,,,,,,,,,3,0,3,0,0,4,4,4,,,,,,,space,0.702385187149,,,,,2017_Jan_24_1353,59.6441801368,spr_backupper,001,Di14,
,derer,ziemlich,harten,elektrische,weichem,unzureichenden,Skandals,des,salziger,würden,"reichem,",wurden,noch,die,künftigem,den,hat,immer,elektrischer,Skandal,einem,liegen,Störenfriede,serviert.,350,leider,auf,die,des,350,salzige,purem,Auto,Trinkwasser.,leider,einem,einen,sauberen,was,Trinkwassers.,klassischen,geschleudert.,Lärm,ungefähr,zusätzlichem,der,gelegentlichen,Tiere,im,seltenem,feinem,Glas,deren,Lärm,um,liegen,hätten,Wäsche.,war,mehr,roten,noch,"Zeit,",Glas,feinem,Mann,"nachgewiesen,",kaltem,sie,minimalem,frischen,täglichem,Bundespräsident.,mehr,geschleudert.,Störenfriede,"frischem,",Kram,vor,von,monatlichem,hat,die,am,Wäsche.,wurden,Wetter,eine,unzureichenden,Krams,sie,Wetters,frisches,eine,serviert.,roten,auf,im,,,,,,,,,,,,,,,,,,,,,,,3,0,3,0,0,5,5,5,,,,,,,space,0.743589162827,,,,,2017_Jan_24_1353,59.6441801368,spr_backupper,001,Di14,
,sie,"vermiest,",Schaumstoff,Energie.,Untergrund,Helmen,wiedergewählt.,Herrn,Wurst,seiner,goldenen,verschrottet.,eine,er,Einkommen,Soldaten,den,ruhig,Energie.,wiedergewählt.,Esslöffel,die,jeden.,nan,ml,nichts,jeden,Stimmung,Herrn,ml,Wurst,Alkohol,mehr,nan,nichts,Esslöffel,Besucher.,Kraftstoff,Tupperware,nan,Schmuck,nan,um,drei,schwarzem,Soldaten,Besucher.,artgerecht,Müll.,dichten,dichten,köstlicher,sie,um,die,die,seiner,nan,aus,als,Planeten,eine,um,köstlichen,Kunsteis,mehr,dass,Abduschen,defekt,täglichen,Grases,grünen,nan,als,nan,jeden.,kaltem,aus,Dezember,den,Taschengeld,den,Flut,Hauptbahnhof.,nan,verschrottet.,die,große,Helmen,aus,defekt,die,Gras,große,nan,Planet,jeden,Müll.,,,,,,,,,,,,,,,,,,,,,,,3,0,3,0,0,6,6,6,,,,,,,space,1.1401860714,,,,,2017_Jan_24_1353,59.6441801368,spr_backupper,001,Di14,
,,,,,,,,,,,,,,,,,,,,,,,,,,,,,,,,,,,,,,,,,,,,,,,,,,,,,,,,,,,,,,,,,,,,,,,,,,,,,,,,,,,,,,,,,,,,,,,,,,,,,,,,,,,,,,,,,,,,,,,,,3,0,3,0,,,,,,,,,,,,,None,n,2.02988290787,,2017_Jan_24_1353,59.6441801368,spr_backupper,001,Di14,
,Es,Es,Alle,Die,Jungtiere,Die,Er,Die,Ich,Die,Das,Die,Sie,Die,Manche,Bei,Nicht,Fernab,Die,Er,Er,Am,Außer,Beträchtliche,In,Außer,100,Dass,Die,In,Ich,Die,Wir,Sie,Außer,Er,Wir,Wir,Die,Sie,Die,Es,Man,Der,Die,Bei,Wir,In,Viele,Danach,Er,Bei,Es,Man,In,Am,Die,Dort,Die,In,Im,Sie,Jetzt,Bei,Die,Wir,In,Die,Die,Ihr,Wir,Ich,Walter,In,Es,Außer,Sie,Wir,Unter,In,Jugendliche,Nicht,Als,Die,Dort,Die,Sie,Mit,Die,Wir,Die,Sie,Wir,Mit,Beträchtliche,Im,100,Viele,,,,,,,,,,,,,,,,,,,,,,,4,0,4,0,0,0,0,0,,,,,,None,space,0.430330038071,,,,,2017_Jan_24_1353,59.6441801368,spr_backupper,001,Di14,
,waren,hat,Betten,Schule,sollten,Kinder,wurde,Gäste,nehme,Schuhe,Tuch,Autos,hatte,Uhr,Kreditnehmer,der,ein,des,Schule,wurde,stellt,äußersten,den,Stücke,den,dem,g,es,Gäste,den,nehme,Lösung,übergaben,verbrauchen,das,stellt,hatten,konnten,Teilnehmerinnen,verbrauchen,Stücke,wurden,machte,Flug,müden,der,hatten,diesem,Tonnen,wurde,hat,unserer,waren,machte,der,äußeren,Schuhe,türmen,"Uhr,",meinem,Fernrohr,hatte,ist,unserer,Eislaufbahnen,übergaben,einer,Formen,Uhr,Blutdruck,mussten,wurde,Scheel,meinem,wurden,dem,haben,haben,keinen,der,können,ein,die,Linie,türmen,Autos,verlassen,dieser,Kinder,haben,Uhr,verlassen,mussten,dieser,Stücke,Fernrohr,g,Tonnen,,,,,,,,,,,,,,,,,,,,,,,4,0,4,0,0,1,1,1,,,,,,,space,0.550487041473,,,,,2017_Jan_24_1353,59.6441801368,spr_backupper,001,Di14,
,nur,uns,wurden,verbraucht,immer,fuhren,trotz,suchen,eine,in,wurde,beider,keine,war,sind,Feier,Tropfen,Rummels,verbraucht,trotz,die,Rand,Bürgermeister,saftiges,Kakao,Essen,braunen,"regnete,",suchen,Kakao,eine,wird,dem,60,Essen,die,in,dann,wussten,60,wurden,Eimer,mal,zum,Teilnehmer,Feier,in,Zirkus,gebrauchter,die,ein,Ankunft,nur,mal,Tat,Rand,in,sich,die,Studium,sahen,keine,genau,Ankunft,wurden,das,Studie,wurden,schlug,kann,uns,damals,war,Studium,Eimer,Bürgermeister,die,jede,Umständen,Tat,Kleidung,Tropfen,Sonne,101,sich,beider,wegen,Methode,fuhren,jede,schlug,wegen,uns,Methode,saftigen,sahen,brauner,gebrauchte,,,,,,,,,,,,,,,,,,,,,,,4,0,4,0,0,2,2,2,,,,,,,space,0.409898042679,,,,,2017_Jan_24_1353,59.6441801368,spr_backupper,001,Di14,
,kleinere,die,mit,260.000,auf,mit,des,die,große,Größe,dann,beteiligten,Lust,aus,mit,gedachte,königliches,wurde,260.000,dem,Masse,der,beschuldigten,Fleisch,gehören,kann,Zuckers,hat,die,gehören,große,mit,Mann,Liter,kann,Masse,Dänemark,mit,überwiegend,Liter,aus,roter,wieder,Mond,wurden,gedachte,Dänemark,werden,Kleidung,Leinwand,Hemd,stand,kleinere,wieder,wissen,der,Größe,Berge,er,habe,wir,Lust,die,stand,mit,Auto,wurde,unter,"sporadisch,",schon,durch,schnell,der,las,rote,beschuldigten,Erlebnisse,Menge,können,wissen,bei,königlichen,"unterging,",hält,Berge,beteiligter,dem,kann,mit,Menge,"sporadisch,",des,durch,kann,Fleischs,wir,Zucker,Kleidung,,,,,,,,,,,,,,,,,,,,,,,4,0,4,0,0,3,3,3,,,,,,,space,0.503757953644,,,,,2017_Jan_24_1353,59.6441801368,spr_backupper,001,Di14,
,"Delikte,",Stimmung,"üblichem,",Kilowattstunden,warmem,solchen,bekannten,Wohnung,Packung,36,mit,Fahrer,auf,"Japan,","sämtlichem,",man,Blut,schon,Kilowattstunden,bekannten,mit,Stadt,die,wurden,immer,ich,sind,uns,Wohnung,immer,Packung,"reichlichem,",das,sprudelndes,ich,mit,gelegentlich,"minimalem,","nicht,",sprudelnden,"wertvollem,",Farbe,viel,dauerte,mit,man,einen,die,landen,aus,aus,ein,"Delikte,",viel,wir,Stadt,36,schmutziger,"trug,",ich,den,auf,richtige,ein,dauerhaftem,dem,jetzt,"regelmäßigem,",obschon,bei,Büschel,dank,vierte,ich,Farbe,die,bei,alten,Neuwahlen,wir,ausreichendem,Bluts,war,nicht,schmutzige,Fahrer,schönen,man,solch,alten,obwohl,schönen,Büschel,man,wurden,den,sind,landen,,,,,,,,,,,,,,,,,,,,,,,4,0,4,0,0,4,4,4,,,,,,,space,0.469968080521,,,,,2017_Jan_24_1353,59.6441801368,spr_backupper,001,Di14,
,derer,ziemlich,harten,elektrische,weichem,unzureichenden,Skandals,des,salziger,würden,"reichem,",wurden,noch,die,künftigem,den,hat,immer,elektrischer,Skandal,einem,liegen,Störenfriede,serviert.,350,leider,auf,die,des,350,salzige,purem,Auto,Trinkwasser.,leider,einem,einen,sauberen,was,Trinkwassers.,klassischen,geschleudert.,Lärm,ungefähr,zusätzlichem,der,gelegentlichen,Tiere,im,seltenem,feinem,Glas,deren,Lärm,um,liegen,hätten,Wäsche.,war,mehr,roten,noch,"Zeit,",Glas,feinem,Mann,"nachgewiesen,",kaltem,sie,minimalem,frischen,täglichem,Bundespräsident.,mehr,geschleudert.,Störenfriede,"frischem,",Kram,vor,von,monatlichem,hat,die,am,Wäsche.,wurden,Wetter,eine,unzureichenden,Krams,sie,Wetters,frisches,eine,serviert.,roten,auf,im,,,,,,,,,,,,,,,,,,,,,,,4,0,4,0,0,5,5,5,,,,,,,space,0.626514911652,,,,,2017_Jan_24_1353,59.6441801368,spr_backupper,001,Di14,
,sie,"vermiest,",Schaumstoff,Energie.,Untergrund,Helmen,wiedergewählt.,Herrn,Wurst,seiner,goldenen,verschrottet.,eine,er,Einkommen,Soldaten,den,ruhig,Energie.,wiedergewählt.,Esslöffel,die,jeden.,nan,ml,nichts,jeden,Stimmung,Herrn,ml,Wurst,Alkohol,mehr,nan,nichts,Esslöffel,Besucher.,Kraftstoff,Tupperware,nan,Schmuck,nan,um,drei,schwarzem,Soldaten,Besucher.,artgerecht,Müll.,dichten,dichten,köstlicher,sie,um,die,die,seiner,nan,aus,als,Planeten,eine,um,köstlichen,Kunsteis,mehr,dass,Abduschen,defekt,täglichen,Grases,grünen,nan,als,nan,jeden.,kaltem,aus,Dezember,den,Taschengeld,den,Flut,Hauptbahnhof.,nan,verschrottet.,die,große,Helmen,aus,defekt,die,Gras,große,nan,Planet,jeden,Müll.,,,,,,,,,,,,,,,,,,,,,,,4,0,4,0,0,6,6,6,,,,,,,space,0.755801916122,,,,,2017_Jan_24_1353,59.6441801368,spr_backupper,001,Di14,
,überführt,dass,gefertigt.,nan,liegen.,zur,nan,Gantenbeins.,mit,Frau,Besatz,nan,Sammlung,trug.,haftbar.,des,Boden,diskutiert.,nan,nan,warmen,Slums.,nan,nan,warme,mitbringen.,Fall,ziemlich,Gantenbein.,warmer,mit,verdünnt.,als,nan,mitbringen.,warmem,nan,fahren.,ist.,nan,umgearbeitet.,nan,jede,Tage.,Kaffee,des,nan,gehalten.,nan,Gewebe,Stoff,Wein,überführt,jede,Probleme,Slums.,Frau,nan,Japan.,einmal,ganz,Sammlung,Nadelhölzer,Weins,eingesprüht.,als,das,gehärtet.,war.,Einsatz,zwängen.,Tee,nan,einmal,nan,nan,Saft,dem,stattfinden.,Problemen,selber,Boden,zurückgekehrt.,nan,nan,nan,Wohnung.,Menge,zur,dem,war.,Wohnung.,zwängen.,Menge,nan,ganz,Fall,nan,,,,,,,,,,,,,,,,,,,,,,,4,0,4,0,0,7,7,7,,,,,,,space,0.676120996475,,,,,2017_Jan_24_1353,59.6441801368,spr_backupper,001,Di14,
,wurden.,es,nan,nan,nan,Schule.,nan,nan,an,gepasst,rekonstruiert.,nan,dummer,nan,nan,zweiten,berührt.,nan,nan,nan,Honigs,nan,nan,nan,Milch.,nan,genug.,vermiest.,nan,Milch.,an,nan,gerne.,nan,nan,Honig,nan,nan,nan,nan,nan,nan,Menge,nan,wiederbelebt.,zweiten,nan,nan,nan,wiederhergestellt.,gefertigt.,schon,wurden.,Menge,im,nan,gepasst.,nan,nan,Rilke,deutlich.,dumme,umzusetzen.,schon,nan,gerne.,Medikament,nan,nan,sinken.,nan,wieder,nan,Rilke.,nan,nan,besprochen.,Haus,nan,im,kaufen.,berührt.,nan,nan,nan,nan,nan,dunkler,Schule.,Haus,nan,nan,nan,dunkle,nan,deutlich.,genug.,nan,,,,,,,,,,,,,,,,,,,,,,,4,0,4,0,0,8,8,8,,,,,,,space,0.734302997589,,,,,2017_Jan_24_1353,59.6441801368,spr_backupper,001,Di14,
,,,,,,,,,,,,,,,,,,,,,,,,,,,,,,,,,,,,,,,,,,,,,,,,,,,,,,,,,,,,,,,,,,,,,,,,,,,,,,,,,,,,,,,,,,,,,,,,,,,,,,,,,,,,,,,,,,,,,,,,,4,0,4,0,,,,,,,,,,,,,None,n,2.1975300312,,2017_Jan_24_1353,59.6441801368,spr_backupper,001,Di14,
,Es,Es,Alle,Die,Jungtiere,Die,Er,Die,Ich,Die,Das,Die,Sie,Die,Manche,Bei,Nicht,Fernab,Die,Er,Er,Am,Außer,Beträchtliche,In,Außer,100,Dass,Die,In,Ich,Die,Wir,Sie,Außer,Er,Wir,Wir,Die,Sie,Die,Es,Man,Der,Die,Bei,Wir,In,Viele,Danach,Er,Bei,Es,Man,In,Am,Die,Dort,Die,In,Im,Sie,Jetzt,Bei,Die,Wir,In,Die,Die,Ihr,Wir,Ich,Walter,In,Es,Außer,Sie,Wir,Unter,In,Jugendliche,Nicht,Als,Die,Dort,Die,Sie,Mit,Die,Wir,Die,Sie,Wir,Mit,Beträchtliche,Im,100,Viele,,,,,,,,,,,,,,,,,,,,,,,5,0,5,0,0,0,0,0,,,,,,None,space,0.487538099289,,,,,2017_Jan_24_1353,59.6441801368,spr_backupper,001,Di14,
,waren,hat,Betten,Schule,sollten,Kinder,wurde,Gäste,nehme,Schuhe,Tuch,Autos,hatte,Uhr,Kreditnehmer,der,ein,des,Schule,wurde,stellt,äußersten,den,Stücke,den,dem,g,es,Gäste,den,nehme,Lösung,übergaben,verbrauchen,das,stellt,hatten,konnten,Teilnehmerinnen,verbrauchen,Stücke,wurden,machte,Flug,müden,der,hatten,diesem,Tonnen,wurde,hat,unserer,waren,machte,der,äußeren,Schuhe,türmen,"Uhr,",meinem,Fernrohr,hatte,ist,unserer,Eislaufbahnen,übergaben,einer,Formen,Uhr,Blutdruck,mussten,wurde,Scheel,meinem,wurden,dem,haben,haben,keinen,der,können,ein,die,Linie,türmen,Autos,verlassen,dieser,Kinder,haben,Uhr,verlassen,mussten,dieser,Stücke,Fernrohr,g,Tonnen,,,,,,,,,,,,,,,,,,,,,,,5,0,5,0,0,1,1,1,,,,,,,space,0.464531898499,,,,,2017_Jan_24_1353,59.6441801368,spr_backupper,001,Di14,
,nur,uns,wurden,verbraucht,immer,fuhren,trotz,suchen,eine,in,wurde,beider,keine,war,sind,Feier,Tropfen,Rummels,verbraucht,trotz,die,Rand,Bürgermeister,saftiges,Kakao,Essen,braunen,"regnete,",suchen,Kakao,eine,wird,dem,60,Essen,die,in,dann,wussten,60,wurden,Eimer,mal,zum,Teilnehmer,Feier,in,Zirkus,gebrauchter,die,ein,Ankunft,nur,mal,Tat,Rand,in,sich,die,Studium,sahen,keine,genau,Ankunft,wurden,das,Studie,wurden,schlug,kann,uns,damals,war,Studium,Eimer,Bürgermeister,die,jede,Umständen,Tat,Kleidung,Tropfen,Sonne,101,sich,beider,wegen,Methode,fuhren,jede,schlug,wegen,uns,Methode,saftigen,sahen,brauner,gebrauchte,,,,,,,,,,,,,,,,,,,,,,,5,0,5,0,0,2,2,2,,,,,,,space,0.503302812576,,,,,2017_Jan_24_1353,59.6441801368,spr_backupper,001,Di14,
,kleinere,die,mit,260.000,auf,mit,des,die,große,Größe,dann,beteiligten,Lust,aus,mit,gedachte,königliches,wurde,260.000,dem,Masse,der,beschuldigten,Fleisch,gehören,kann,Zuckers,hat,die,gehören,große,mit,Mann,Liter,kann,Masse,Dänemark,mit,überwiegend,Liter,aus,roter,wieder,Mond,wurden,gedachte,Dänemark,werden,Kleidung,Leinwand,Hemd,stand,kleinere,wieder,wissen,der,Größe,Berge,er,habe,wir,Lust,die,stand,mit,Auto,wurde,unter,"sporadisch,",schon,durch,schnell,der,las,rote,beschuldigten,Erlebnisse,Menge,können,wissen,bei,königlichen,"unterging,",hält,Berge,beteiligter,dem,kann,mit,Menge,"sporadisch,",des,durch,kann,Fleischs,wir,Zucker,Kleidung,,,,,,,,,,,,,,,,,,,,,,,5,0,5,0,0,3,3,3,,,,,,,space,0.503613948822,,,,,2017_Jan_24_1353,59.6441801368,spr_backupper,001,Di14,
,"Delikte,",Stimmung,"üblichem,",Kilowattstunden,warmem,solchen,bekannten,Wohnung,Packung,36,mit,Fahrer,auf,"Japan,","sämtlichem,",man,Blut,schon,Kilowattstunden,bekannten,mit,Stadt,die,wurden,immer,ich,sind,uns,Wohnung,immer,Packung,"reichlichem,",das,sprudelndes,ich,mit,gelegentlich,"minimalem,","nicht,",sprudelnden,"wertvollem,",Farbe,viel,dauerte,mit,man,einen,die,landen,aus,aus,ein,"Delikte,",viel,wir,Stadt,36,schmutziger,"trug,",ich,den,auf,richtige,ein,dauerhaftem,dem,jetzt,"regelmäßigem,",obschon,bei,Büschel,dank,vierte,ich,Farbe,die,bei,alten,Neuwahlen,wir,ausreichendem,Bluts,war,nicht,schmutzige,Fahrer,schönen,man,solch,alten,obwohl,schönen,Büschel,man,wurden,den,sind,landen,,,,,,,,,,,,,,,,,,,,,,,5,0,5,0,0,4,4,4,,,,,,,space,0.476119041443,,,,,2017_Jan_24_1353,59.6441801368,spr_backupper,001,Di14,
,derer,ziemlich,harten,elektrische,weichem,unzureichenden,Skandals,des,salziger,würden,"reichem,",wurden,noch,die,künftigem,den,hat,immer,elektrischer,Skandal,einem,liegen,Störenfriede,serviert.,350,leider,auf,die,des,350,salzige,purem,Auto,Trinkwasser.,leider,einem,einen,sauberen,was,Trinkwassers.,klassischen,geschleudert.,Lärm,ungefähr,zusätzlichem,der,gelegentlichen,Tiere,im,seltenem,feinem,Glas,deren,Lärm,um,liegen,hätten,Wäsche.,war,mehr,roten,noch,"Zeit,",Glas,feinem,Mann,"nachgewiesen,",kaltem,sie,minimalem,frischen,täglichem,Bundespräsident.,mehr,geschleudert.,Störenfriede,"frischem,",Kram,vor,von,monatlichem,hat,die,am,Wäsche.,wurden,Wetter,eine,unzureichenden,Krams,sie,Wetters,frisches,eine,serviert.,roten,auf,im,,,,,,,,,,,,,,,,,,,,,,,5,0,5,0,0,5,5,5,,,,,,,space,0.453642845154,,,,,2017_Jan_24_1353,59.6441801368,spr_backupper,001,Di14,
,sie,"vermiest,",Schaumstoff,Energie.,Untergrund,Helmen,wiedergewählt.,Herrn,Wurst,seiner,goldenen,verschrottet.,eine,er,Einkommen,Soldaten,den,ruhig,Energie.,wiedergewählt.,Esslöffel,die,jeden.,nan,ml,nichts,jeden,Stimmung,Herrn,ml,Wurst,Alkohol,mehr,nan,nichts,Esslöffel,Besucher.,Kraftstoff,Tupperware,nan,Schmuck,nan,um,drei,schwarzem,Soldaten,Besucher.,artgerecht,Müll.,dichten,dichten,köstlicher,sie,um,die,die,seiner,nan,aus,als,Planeten,eine,um,köstlichen,Kunsteis,mehr,dass,Abduschen,defekt,täglichen,Grases,grünen,nan,als,nan,jeden.,kaltem,aus,Dezember,den,Taschengeld,den,Flut,Hauptbahnhof.,nan,verschrottet.,die,große,Helmen,aus,defekt,die,Gras,große,nan,Planet,jeden,Müll.,,,,,,,,,,,,,,,,,,,,,,,5,0,5,0,0,6,6,6,,,,,,,space,0.541491031647,,,,,2017_Jan_24_1353,59.6441801368,spr_backupper,001,Di14,
,überführt,dass,gefertigt.,nan,liegen.,zur,nan,Gantenbeins.,mit,Frau,Besatz,nan,Sammlung,trug.,haftbar.,des,Boden,diskutiert.,nan,nan,warmen,Slums.,nan,nan,warme,mitbringen.,Fall,ziemlich,Gantenbein.,warmer,mit,verdünnt.,als,nan,mitbringen.,warmem,nan,fahren.,ist.,nan,umgearbeitet.,nan,jede,Tage.,Kaffee,des,nan,gehalten.,nan,Gewebe,Stoff,Wein,überführt,jede,Probleme,Slums.,Frau,nan,Japan.,einmal,ganz,Sammlung,Nadelhölzer,Weins,eingesprüht.,als,das,gehärtet.,war.,Einsatz,zwängen.,Tee,nan,einmal,nan,nan,Saft,dem,stattfinden.,Problemen,selber,Boden,zurückgekehrt.,nan,nan,nan,Wohnung.,Menge,zur,dem,war.,Wohnung.,zwängen.,Menge,nan,ganz,Fall,nan,,,,,,,,,,,,,,,,,,,,,,,5,0,5,0,0,7,7,7,,,,,,,space,0.40310382843,,,,,2017_Jan_24_1353,59.6441801368,spr_backupper,001,Di14,
,wurden.,es,nan,nan,nan,Schule.,nan,nan,an,gepasst,rekonstruiert.,nan,dummer,nan,nan,zweiten,berührt.,nan,nan,nan,Honigs,nan,nan,nan,Milch.,nan,genug.,vermiest.,nan,Milch.,an,nan,gerne.,nan,nan,Honig,nan,nan,nan,nan,nan,nan,Menge,nan,wiederbelebt.,zweiten,nan,nan,nan,wiederhergestellt.,gefertigt.,schon,wurden.,Menge,im,nan,gepasst.,nan,nan,Rilke,deutlich.,dumme,umzusetzen.,schon,nan,gerne.,Medikament,nan,nan,sinken.,nan,wieder,nan,Rilke.,nan,nan,besprochen.,Haus,nan,im,kaufen.,berührt.,nan,nan,nan,nan,nan,dunkler,Schule.,Haus,nan,nan,nan,dunkle,nan,deutlich.,genug.,nan,,,,,,,,,,,,,,,,,,,,,,,5,0,5,0,0,8,8,8,,,,,,,space,0.570343017578,,,,,2017_Jan_24_1353,59.6441801368,spr_backupper,001,Di14,
,nan,regnete.,nan,nan,nan,nan,nan,nan,den,haben.,nan,nan,Sprüche.,nan,nan,Weltkriegs.,nan,nan,nan,nan,her.,nan,nan,nan,nan,nan,nan,nan,nan,nan,den,nan,nan,nan,nan,her.,nan,nan,nan,nan,nan,nan,heißer,nan,nan,Weltkriegs.,nan,nan,nan,nan,nan,auf,nan,heiße,Landkreis.,nan,nan,nan,nan,gelesen.,nan,Sprüche.,nan,auf,nan,nan,nicht,nan,nan,nan,nan,fit.,nan,nan,nan,nan,nan,geschafft.,nan,Landkreis.,nan,nan,nan,nan,nan,nan,nan,Materie,nan,geschafft.,nan,nan,nan,Materie,nan,nan,nan,nan,,,,,,,,,,,,,,,,,,,,,,,5,0,5,0,0,9,9,9,,,,,,,space,0.660991191864,,,,,2017_Jan_24_1353,59.6441801368,spr_backupper,001,Di14,
,,,,,,,,,,,,,,,,,,,,,,,,,,,,,,,,,,,,,,,,,,,,,,,,,,,,,,,,,,,,,,,,,,,,,,,,,,,,,,,,,,,,,,,,,,,,,,,,,,,,,,,,,,,,,,,,,,,,,,,,,5,0,5,0,,,,,,,,,,,,,None,n,1.65946912766,,2017_Jan_24_1353,59.6441801368,spr_backupper,001,Di14,
,Es,Es,Alle,Die,Jungtiere,Die,Er,Die,Ich,Die,Das,Die,Sie,Die,Manche,Bei,Nicht,Fernab,Die,Er,Er,Am,Außer,Beträchtliche,In,Außer,100,Dass,Die,In,Ich,Die,Wir,Sie,Außer,Er,Wir,Wir,Die,Sie,Die,Es,Man,Der,Die,Bei,Wir,In,Viele,Danach,Er,Bei,Es,Man,In,Am,Die,Dort,Die,In,Im,Sie,Jetzt,Bei,Die,Wir,In,Die,Die,Ihr,Wir,Ich,Walter,In,Es,Außer,Sie,Wir,Unter,In,Jugendliche,Nicht,Als,Die,Dort,Die,Sie,Mit,Die,Wir,Die,Sie,Wir,Mit,Beträchtliche,Im,100,Viele,,,,,,,,,,,,,,,,,,,,,,,6,0,6,0,0,0,0,0,,,,,,None,space,0.555451154709,,,,,2017_Jan_24_1353,59.6441801368,spr_backupper,001,Di14,
,waren,hat,Betten,Schule,sollten,Kinder,wurde,Gäste,nehme,Schuhe,Tuch,Autos,hatte,Uhr,Kreditnehmer,der,ein,des,Schule,wurde,stellt,äußersten,den,Stücke,den,dem,g,es,Gäste,den,nehme,Lösung,übergaben,verbrauchen,das,stellt,hatten,konnten,Teilnehmerinnen,verbrauchen,Stücke,wurden,machte,Flug,müden,der,hatten,diesem,Tonnen,wurde,hat,unserer,waren,machte,der,äußeren,Schuhe,türmen,"Uhr,",meinem,Fernrohr,hatte,ist,unserer,Eislaufbahnen,übergaben,einer,Formen,Uhr,Blutdruck,mussten,wurde,Scheel,meinem,wurden,dem,haben,haben,keinen,der,können,ein,die,Linie,türmen,Autos,verlassen,dieser,Kinder,haben,Uhr,verlassen,mussten,dieser,Stücke,Fernrohr,g,Tonnen,,,,,,,,,,,,,,,,,,,,,,,6,0,6,0,0,1,1,1,,,,,,,space,0.46806883812,,,,,2017_Jan_24_1353,59.6441801368,spr_backupper,001,Di14,
,nur,uns,wurden,verbraucht,immer,fuhren,trotz,suchen,eine,in,wurde,beider,keine,war,sind,Feier,Tropfen,Rummels,verbraucht,trotz,die,Rand,Bürgermeister,saftiges,Kakao,Essen,braunen,"regnete,",suchen,Kakao,eine,wird,dem,60,Essen,die,in,dann,wussten,60,wurden,Eimer,mal,zum,Teilnehmer,Feier,in,Zirkus,gebrauchter,die,ein,Ankunft,nur,mal,Tat,Rand,in,sich,die,Studium,sahen,keine,genau,Ankunft,wurden,das,Studie,wurden,schlug,kann,uns,damals,war,Studium,Eimer,Bürgermeister,die,jede,Umständen,Tat,Kleidung,Tropfen,Sonne,101,sich,beider,wegen,Methode,fuhren,jede,schlug,wegen,uns,Methode,saftigen,sahen,brauner,gebrauchte,,,,,,,,,,,,,,,,,,,,,,,6,0,6,0,0,2,2,2,,,,,,,space,0.431308984756,,,,,2017_Jan_24_1353,59.6441801368,spr_backupper,001,Di14,
,kleinere,die,mit,260.000,auf,mit,des,die,große,Größe,dann,beteiligten,Lust,aus,mit,gedachte,königliches,wurde,260.000,dem,Masse,der,beschuldigten,Fleisch,gehören,kann,Zuckers,hat,die,gehören,große,mit,Mann,Liter,kann,Masse,Dänemark,mit,überwiegend,Liter,aus,roter,wieder,Mond,wurden,gedachte,Dänemark,werden,Kleidung,Leinwand,Hemd,stand,kleinere,wieder,wissen,der,Größe,Berge,er,habe,wir,Lust,die,stand,mit,Auto,wurde,unter,"sporadisch,",schon,durch,schnell,der,las,rote,beschuldigten,Erlebnisse,Menge,können,wissen,bei,königlichen,"unterging,",hält,Berge,beteiligter,dem,kann,mit,Menge,"sporadisch,",des,durch,kann,Fleischs,wir,Zucker,Kleidung,,,,,,,,,,,,,,,,,,,,,,,6,0,6,0,0,3,3,3,,,,,,,space,0.49872303009,,,,,2017_Jan_24_1353,59.6441801368,spr_backupper,001,Di14,
,"Delikte,",Stimmung,"üblichem,",Kilowattstunden,warmem,solchen,bekannten,Wohnung,Packung,36,mit,Fahrer,auf,"Japan,","sämtlichem,",man,Blut,schon,Kilowattstunden,bekannten,mit,Stadt,die,wurden,immer,ich,sind,uns,Wohnung,immer,Packung,"reichlichem,",das,sprudelndes,ich,mit,gelegentlich,"minimalem,","nicht,",sprudelnden,"wertvollem,",Farbe,viel,dauerte,mit,man,einen,die,landen,aus,aus,ein,"Delikte,",viel,wir,Stadt,36,schmutziger,"trug,",ich,den,auf,richtige,ein,dauerhaftem,dem,jetzt,"regelmäßigem,",obschon,bei,Büschel,dank,vierte,ich,Farbe,die,bei,alten,Neuwahlen,wir,ausreichendem,Bluts,war,nicht,schmutzige,Fahrer,schönen,man,solch,alten,obwohl,schönen,Büschel,man,wurden,den,sind,landen,,,,,,,,,,,,,,,,,,,,,,,6,0,6,0,0,4,4,4,,,,,,,space,0.487697839737,,,,,2017_Jan_24_1353,59.6441801368,spr_backupper,001,Di14,
,derer,ziemlich,harten,elektrische,weichem,unzureichenden,Skandals,des,salziger,würden,"reichem,",wurden,noch,die,künftigem,den,hat,immer,elektrischer,Skandal,einem,liegen,Störenfriede,serviert.,350,leider,auf,die,des,350,salzige,purem,Auto,Trinkwasser.,leider,einem,einen,sauberen,was,Trinkwassers.,klassischen,geschleudert.,Lärm,ungefähr,zusätzlichem,der,gelegentlichen,Tiere,im,seltenem,feinem,Glas,deren,Lärm,um,liegen,hätten,Wäsche.,war,mehr,roten,noch,"Zeit,",Glas,feinem,Mann,"nachgewiesen,",kaltem,sie,minimalem,frischen,täglichem,Bundespräsident.,mehr,geschleudert.,Störenfriede,"frischem,",Kram,vor,von,monatlichem,hat,die,am,Wäsche.,wurden,Wetter,eine,unzureichenden,Krams,sie,Wetters,frisches,eine,serviert.,roten,auf,im,,,,,,,,,,,,,,,,,,,,,,,6,0,6,0,0,5,5,5,,,,,,,space,0.475625991821,,,,,2017_Jan_24_1353,59.6441801368,spr_backupper,001,Di14,
,sie,"vermiest,",Schaumstoff,Energie.,Untergrund,Helmen,wiedergewählt.,Herrn,Wurst,seiner,goldenen,verschrottet.,eine,er,Einkommen,Soldaten,den,ruhig,Energie.,wiedergewählt.,Esslöffel,die,jeden.,nan,ml,nichts,jeden,Stimmung,Herrn,ml,Wurst,Alkohol,mehr,nan,nichts,Esslöffel,Besucher.,Kraftstoff,Tupperware,nan,Schmuck,nan,um,drei,schwarzem,Soldaten,Besucher.,artgerecht,Müll.,dichten,dichten,köstlicher,sie,um,die,die,seiner,nan,aus,als,Planeten,eine,um,köstlichen,Kunsteis,mehr,dass,Abduschen,defekt,täglichen,Grases,grünen,nan,als,nan,jeden.,kaltem,aus,Dezember,den,Taschengeld,den,Flut,Hauptbahnhof.,nan,verschrottet.,die,große,Helmen,aus,defekt,die,Gras,große,nan,Planet,jeden,Müll.,,,,,,,,,,,,,,,,,,,,,,,6,0,6,0,0,6,6,6,,,,,,,space,0.500113964081,,,,,2017_Jan_24_1353,59.6441801368,spr_backupper,001,Di14,
,überführt,dass,gefertigt.,nan,liegen.,zur,nan,Gantenbeins.,mit,Frau,Besatz,nan,Sammlung,trug.,haftbar.,des,Boden,diskutiert.,nan,nan,warmen,Slums.,nan,nan,warme,mitbringen.,Fall,ziemlich,Gantenbein.,warmer,mit,verdünnt.,als,nan,mitbringen.,warmem,nan,fahren.,ist.,nan,umgearbeitet.,nan,jede,Tage.,Kaffee,des,nan,gehalten.,nan,Gewebe,Stoff,Wein,überführt,jede,Probleme,Slums.,Frau,nan,Japan.,einmal,ganz,Sammlung,Nadelhölzer,Weins,eingesprüht.,als,das,gehärtet.,war.,Einsatz,zwängen.,Tee,nan,einmal,nan,nan,Saft,dem,stattfinden.,Problemen,selber,Boden,zurückgekehrt.,nan,nan,nan,Wohnung.,Menge,zur,dem,war.,Wohnung.,zwängen.,Menge,nan,ganz,Fall,nan,,,,,,,,,,,,,,,,,,,,,,,6,0,6,0,0,7,7,7,,,,,,,space,0.537007808685,,,,,2017_Jan_24_1353,59.6441801368,spr_backupper,001,Di14,
,wurden.,es,nan,nan,nan,Schule.,nan,nan,an,gepasst,rekonstruiert.,nan,dummer,nan,nan,zweiten,berührt.,nan,nan,nan,Honigs,nan,nan,nan,Milch.,nan,genug.,vermiest.,nan,Milch.,an,nan,gerne.,nan,nan,Honig,nan,nan,nan,nan,nan,nan,Menge,nan,wiederbelebt.,zweiten,nan,nan,nan,wiederhergestellt.,gefertigt.,schon,wurden.,Menge,im,nan,gepasst.,nan,nan,Rilke,deutlich.,dumme,umzusetzen.,schon,nan,gerne.,Medikament,nan,nan,sinken.,nan,wieder,nan,Rilke.,nan,nan,besprochen.,Haus,nan,im,kaufen.,berührt.,nan,nan,nan,nan,nan,dunkler,Schule.,Haus,nan,nan,nan,dunkle,nan,deutlich.,genug.,nan,,,,,,,,,,,,,,,,,,,,,,,6,0,6,0,0,8,8,8,,,,,,,space,0.671154022217,,,,,2017_Jan_24_1353,59.6441801368,spr_backupper,001,Di14,
,nan,regnete.,nan,nan,nan,nan,nan,nan,den,haben.,nan,nan,Sprüche.,nan,nan,Weltkriegs.,nan,nan,nan,nan,her.,nan,nan,nan,nan,nan,nan,nan,nan,nan,den,nan,nan,nan,nan,her.,nan,nan,nan,nan,nan,nan,heißer,nan,nan,Weltkriegs.,nan,nan,nan,nan,nan,auf,nan,heiße,Landkreis.,nan,nan,nan,nan,gelesen.,nan,Sprüche.,nan,auf,nan,nan,nicht,nan,nan,nan,nan,fit.,nan,nan,nan,nan,nan,geschafft.,nan,Landkreis.,nan,nan,nan,nan,nan,nan,nan,Materie,nan,geschafft.,nan,nan,nan,Materie,nan,nan,nan,nan,,,,,,,,,,,,,,,,,,,,,,,6,0,6,0,0,9,9,9,,,,,,,space,0.600964069366,,,,,2017_Jan_24_1353,59.6441801368,spr_backupper,001,Di14,
,nan,nan,nan,nan,nan,nan,nan,nan,See.,nan,nan,nan,nan,nan,nan,nan,nan,nan,nan,nan,nan,nan,nan,nan,nan,nan,nan,nan,nan,nan,See.,nan,nan,nan,nan,nan,nan,nan,nan,nan,nan,nan,Luft.,nan,nan,nan,nan,nan,nan,nan,nan,dem,nan,Luft.,nan,nan,nan,nan,nan,nan,nan,nan,nan,dem,nan,nan,wirkt.,nan,nan,nan,nan,nan,nan,nan,nan,nan,nan,nan,nan,nan,nan,nan,nan,nan,nan,nan,nan,erzeugen.,nan,nan,nan,nan,nan,erzeugen.,nan,nan,nan,nan,,,,,,,,,,,,,,,,,,,,,,,6,0,6,0,0,10,10,10,,,,,,,space,0.683193206787,,,,,2017_Jan_24_1353,59.6441801368,spr_backupper,001,Di14,
,,,,,,,,,,,,,,,,,,,,,,,,,,,,,,,,,,,,,,,,,,,,,,,,,,,,,,,,,,,,,,,,,,,,,,,,,,,,,,,,,,,,,,,,,,,,,,,,,,,,,,,,,,,,,,,,,,,,,,,,,6,0,6,0,,,,,,,,,,,,,None,j,4.17598104477,,2017_Jan_24_1353,59.6441801368,spr_backupper,001,Di14,
,Es,Es,Alle,Die,Jungtiere,Die,Er,Die,Ich,Die,Das,Die,Sie,Die,Manche,Bei,Nicht,Fernab,Die,Er,Er,Am,Außer,Beträchtliche,In,Außer,100,Dass,Die,In,Ich,Die,Wir,Sie,Außer,Er,Wir,Wir,Die,Sie,Die,Es,Man,Der,Die,Bei,Wir,In,Viele,Danach,Er,Bei,Es,Man,In,Am,Die,Dort,Die,In,Im,Sie,Jetzt,Bei,Die,Wir,In,Die,Die,Ihr,Wir,Ich,Walter,In,Es,Außer,Sie,Wir,Unter,In,Jugendliche,Nicht,Als,Die,Dort,Die,Sie,Mit,Die,Wir,Die,Sie,Wir,Mit,Beträchtliche,Im,100,Viele,,,,,,,,,,,,,,,,,,,,,,,7,0,7,0,0,0,0,0,,,,,,None,space,0.504879951477,,,,,2017_Jan_24_1353,59.6441801368,spr_backupper,001,Di14,
,waren,hat,Betten,Schule,sollten,Kinder,wurde,Gäste,nehme,Schuhe,Tuch,Autos,hatte,Uhr,Kreditnehmer,der,ein,des,Schule,wurde,stellt,äußersten,den,Stücke,den,dem,g,es,Gäste,den,nehme,Lösung,übergaben,verbrauchen,das,stellt,hatten,konnten,Teilnehmerinnen,verbrauchen,Stücke,wurden,machte,Flug,müden,der,hatten,diesem,Tonnen,wurde,hat,unserer,waren,machte,der,äußeren,Schuhe,türmen,"Uhr,",meinem,Fernrohr,hatte,ist,unserer,Eislaufbahnen,übergaben,einer,Formen,Uhr,Blutdruck,mussten,wurde,Scheel,meinem,wurden,dem,haben,haben,keinen,der,können,ein,die,Linie,türmen,Autos,verlassen,dieser,Kinder,haben,Uhr,verlassen,mussten,dieser,Stücke,Fernrohr,g,Tonnen,,,,,,,,,,,,,,,,,,,,,,,7,0,7,0,0,1,1,1,,,,,,,space,0.471387147903,,,,,2017_Jan_24_1353,59.6441801368,spr_backupper,001,Di14,
,nur,uns,wurden,verbraucht,immer,fuhren,trotz,suchen,eine,in,wurde,beider,keine,war,sind,Feier,Tropfen,Rummels,verbraucht,trotz,die,Rand,Bürgermeister,saftiges,Kakao,Essen,braunen,"regnete,",suchen,Kakao,eine,wird,dem,60,Essen,die,in,dann,wussten,60,wurden,Eimer,mal,zum,Teilnehmer,Feier,in,Zirkus,gebrauchter,die,ein,Ankunft,nur,mal,Tat,Rand,in,sich,die,Studium,sahen,keine,genau,Ankunft,wurden,das,Studie,wurden,schlug,kann,uns,damals,war,Studium,Eimer,Bürgermeister,die,jede,Umständen,Tat,Kleidung,Tropfen,Sonne,101,sich,beider,wegen,Methode,fuhren,jede,schlug,wegen,uns,Methode,saftigen,sahen,brauner,gebrauchte,,,,,,,,,,,,,,,,,,,,,,,7,0,7,0,0,2,2,2,,,,,,,space,0.458331823349,,,,,2017_Jan_24_1353,59.6441801368,spr_backupper,001,Di14,
,kleinere,die,mit,260.000,auf,mit,des,die,große,Größe,dann,beteiligten,Lust,aus,mit,gedachte,königliches,wurde,260.000,dem,Masse,der,beschuldigten,Fleisch,gehören,kann,Zuckers,hat,die,gehören,große,mit,Mann,Liter,kann,Masse,Dänemark,mit,überwiegend,Liter,aus,roter,wieder,Mond,wurden,gedachte,Dänemark,werden,Kleidung,Leinwand,Hemd,stand,kleinere,wieder,wissen,der,Größe,Berge,er,habe,wir,Lust,die,stand,mit,Auto,wurde,unter,"sporadisch,",schon,durch,schnell,der,las,rote,beschuldigten,Erlebnisse,Menge,können,wissen,bei,königlichen,"unterging,",hält,Berge,beteiligter,dem,kann,mit,Menge,"sporadisch,",des,durch,kann,Fleischs,wir,Zucker,Kleidung,,,,,,,,,,,,,,,,,,,,,,,7,0,7,0,0,3,3,3,,,,,,,space,0.48620891571,,,,,2017_Jan_24_1353,59.6441801368,spr_backupper,001,Di14,
,"Delikte,",Stimmung,"üblichem,",Kilowattstunden,warmem,solchen,bekannten,Wohnung,Packung,36,mit,Fahrer,auf,"Japan,","sämtlichem,",man,Blut,schon,Kilowattstunden,bekannten,mit,Stadt,die,wurden,immer,ich,sind,uns,Wohnung,immer,Packung,"reichlichem,",das,sprudelndes,ich,mit,gelegentlich,"minimalem,","nicht,",sprudelnden,"wertvollem,",Farbe,viel,dauerte,mit,man,einen,die,landen,aus,aus,ein,"Delikte,",viel,wir,Stadt,36,schmutziger,"trug,",ich,den,auf,richtige,ein,dauerhaftem,dem,jetzt,"regelmäßigem,",obschon,bei,Büschel,dank,vierte,ich,Farbe,die,bei,alten,Neuwahlen,wir,ausreichendem,Bluts,war,nicht,schmutzige,Fahrer,schönen,man,solch,alten,obwohl,schönen,Büschel,man,wurden,den,sind,landen,,,,,,,,,,,,,,,,,,,,,,,7,0,7,0,0,4,4,4,,,,,,,space,0.670305013657,,,,,2017_Jan_24_1353,59.6441801368,spr_backupper,001,Di14,
,derer,ziemlich,harten,elektrische,weichem,unzureichenden,Skandals,des,salziger,würden,"reichem,",wurden,noch,die,künftigem,den,hat,immer,elektrischer,Skandal,einem,liegen,Störenfriede,serviert.,350,leider,auf,die,des,350,salzige,purem,Auto,Trinkwasser.,leider,einem,einen,sauberen,was,Trinkwassers.,klassischen,geschleudert.,Lärm,ungefähr,zusätzlichem,der,gelegentlichen,Tiere,im,seltenem,feinem,Glas,deren,Lärm,um,liegen,hätten,Wäsche.,war,mehr,roten,noch,"Zeit,",Glas,feinem,Mann,"nachgewiesen,",kaltem,sie,minimalem,frischen,täglichem,Bundespräsident.,mehr,geschleudert.,Störenfriede,"frischem,",Kram,vor,von,monatlichem,hat,die,am,Wäsche.,wurden,Wetter,eine,unzureichenden,Krams,sie,Wetters,frisches,eine,serviert.,roten,auf,im,,,,,,,,,,,,,,,,,,,,,,,7,0,7,0,0,5,5,5,,,,,,,space,0.862290859222,,,,,2017_Jan_24_1353,59.6441801368,spr_backupper,001,Di14,
,sie,"vermiest,",Schaumstoff,Energie.,Untergrund,Helmen,wiedergewählt.,Herrn,Wurst,seiner,goldenen,verschrottet.,eine,er,Einkommen,Soldaten,den,ruhig,Energie.,wiedergewählt.,Esslöffel,die,jeden.,nan,ml,nichts,jeden,Stimmung,Herrn,ml,Wurst,Alkohol,mehr,nan,nichts,Esslöffel,Besucher.,Kraftstoff,Tupperware,nan,Schmuck,nan,um,drei,schwarzem,Soldaten,Besucher.,artgerecht,Müll.,dichten,dichten,köstlicher,sie,um,die,die,seiner,nan,aus,als,Planeten,eine,um,köstlichen,Kunsteis,mehr,dass,Abduschen,defekt,täglichen,Grases,grünen,nan,als,nan,jeden.,kaltem,aus,Dezember,den,Taschengeld,den,Flut,Hauptbahnhof.,nan,verschrottet.,die,große,Helmen,aus,defekt,die,Gras,große,nan,Planet,jeden,Müll.,,,,,,,,,,,,,,,,,,,,,,,7,0,7,0,0,6,6,6,,,,,,,space,0.769824028015,,,,,2017_Jan_24_1353,59.6441801368,spr_backupper,001,Di14,
,überführt,dass,gefertigt.,nan,liegen.,zur,nan,Gantenbeins.,mit,Frau,Besatz,nan,Sammlung,trug.,haftbar.,des,Boden,diskutiert.,nan,nan,warmen,Slums.,nan,nan,warme,mitbringen.,Fall,ziemlich,Gantenbein.,warmer,mit,verdünnt.,als,nan,mitbringen.,warmem,nan,fahren.,ist.,nan,umgearbeitet.,nan,jede,Tage.,Kaffee,des,nan,gehalten.,nan,Gewebe,Stoff,Wein,überführt,jede,Probleme,Slums.,Frau,nan,Japan.,einmal,ganz,Sammlung,Nadelhölzer,Weins,eingesprüht.,als,das,gehärtet.,war.,Einsatz,zwängen.,Tee,nan,einmal,nan,nan,Saft,dem,stattfinden.,Problemen,selber,Boden,zurückgekehrt.,nan,nan,nan,Wohnung.,Menge,zur,dem,war.,Wohnung.,zwängen.,Menge,nan,ganz,Fall,nan,,,,,,,,,,,,,,,,,,,,,,,7,0,7,0,0,7,7,7,,,,,,,space,0.655136823654,,,,,2017_Jan_24_1353,59.6441801368,spr_backupper,001,Di14,
,,,,,,,,,,,,,,,,,,,,,,,,,,,,,,,,,,,,,,,,,,,,,,,,,,,,,,,,,,,,,,,,,,,,,,,,,,,,,,,,,,,,,,,,,,,,,,,,,,,,,,,,,,,,,,,,,,,,,,,,,7,0,7,0,,,,,,,,,,,,,None,j,5.68176317215,,2017_Jan_24_1353,59.6441801368,spr_backupper,001,Di14,
,Es,Es,Alle,Die,Jungtiere,Die,Er,Die,Ich,Die,Das,Die,Sie,Die,Manche,Bei,Nicht,Fernab,Die,Er,Er,Am,Außer,Beträchtliche,In,Außer,100,Dass,Die,In,Ich,Die,Wir,Sie,Außer,Er,Wir,Wir,Die,Sie,Die,Es,Man,Der,Die,Bei,Wir,In,Viele,Danach,Er,Bei,Es,Man,In,Am,Die,Dort,Die,In,Im,Sie,Jetzt,Bei,Die,Wir,In,Die,Die,Ihr,Wir,Ich,Walter,In,Es,Außer,Sie,Wir,Unter,In,Jugendliche,Nicht,Als,Die,Dort,Die,Sie,Mit,Die,Wir,Die,Sie,Wir,Mit,Beträchtliche,Im,100,Viele,,,,,,,,,,,,,,,,,,,,,,,8,0,8,0,0,0,0,0,,,,,,None,space,0.872413158417,,,,,2017_Jan_24_1353,59.6441801368,spr_backupper,001,Di14,
,waren,hat,Betten,Schule,sollten,Kinder,wurde,Gäste,nehme,Schuhe,Tuch,Autos,hatte,Uhr,Kreditnehmer,der,ein,des,Schule,wurde,stellt,äußersten,den,Stücke,den,dem,g,es,Gäste,den,nehme,Lösung,übergaben,verbrauchen,das,stellt,hatten,konnten,Teilnehmerinnen,verbrauchen,Stücke,wurden,machte,Flug,müden,der,hatten,diesem,Tonnen,wurde,hat,unserer,waren,machte,der,äußeren,Schuhe,türmen,"Uhr,",meinem,Fernrohr,hatte,ist,unserer,Eislaufbahnen,übergaben,einer,Formen,Uhr,Blutdruck,mussten,wurde,Scheel,meinem,wurden,dem,haben,haben,keinen,der,können,ein,die,Linie,türmen,Autos,verlassen,dieser,Kinder,haben,Uhr,verlassen,mussten,dieser,Stücke,Fernrohr,g,Tonnen,,,,,,,,,,,,,,,,,,,,,,,8,0,8,0,0,1,1,1,,,,,,,space,0.567105054855,,,,,2017_Jan_24_1353,59.6441801368,spr_backupper,001,Di14,
,nur,uns,wurden,verbraucht,immer,fuhren,trotz,suchen,eine,in,wurde,beider,keine,war,sind,Feier,Tropfen,Rummels,verbraucht,trotz,die,Rand,Bürgermeister,saftiges,Kakao,Essen,braunen,"regnete,",suchen,Kakao,eine,wird,dem,60,Essen,die,in,dann,wussten,60,wurden,Eimer,mal,zum,Teilnehmer,Feier,in,Zirkus,gebrauchter,die,ein,Ankunft,nur,mal,Tat,Rand,in,sich,die,Studium,sahen,keine,genau,Ankunft,wurden,das,Studie,wurden,schlug,kann,uns,damals,war,Studium,Eimer,Bürgermeister,die,jede,Umständen,Tat,Kleidung,Tropfen,Sonne,101,sich,beider,wegen,Methode,fuhren,jede,schlug,wegen,uns,Methode,saftigen,sahen,brauner,gebrauchte,,,,,,,,,,,,,,,,,,,,,,,8,0,8,0,0,2,2,2,,,,,,,space,0.637726068497,,,,,2017_Jan_24_1353,59.6441801368,spr_backupper,001,Di14,
,kleinere,die,mit,260.000,auf,mit,des,die,große,Größe,dann,beteiligten,Lust,aus,mit,gedachte,königliches,wurde,260.000,dem,Masse,der,beschuldigten,Fleisch,gehören,kann,Zuckers,hat,die,gehören,große,mit,Mann,Liter,kann,Masse,Dänemark,mit,überwiegend,Liter,aus,roter,wieder,Mond,wurden,gedachte,Dänemark,werden,Kleidung,Leinwand,Hemd,stand,kleinere,wieder,wissen,der,Größe,Berge,er,habe,wir,Lust,die,stand,mit,Auto,wurde,unter,"sporadisch,",schon,durch,schnell,der,las,rote,beschuldigten,Erlebnisse,Menge,können,wissen,bei,königlichen,"unterging,",hält,Berge,beteiligter,dem,kann,mit,Menge,"sporadisch,",des,durch,kann,Fleischs,wir,Zucker,Kleidung,,,,,,,,,,,,,,,,,,,,,,,8,0,8,0,0,3,3,3,,,,,,,space,0.619696855545,,,,,2017_Jan_24_1353,59.6441801368,spr_backupper,001,Di14,
,"Delikte,",Stimmung,"üblichem,",Kilowattstunden,warmem,solchen,bekannten,Wohnung,Packung,36,mit,Fahrer,auf,"Japan,","sämtlichem,",man,Blut,schon,Kilowattstunden,bekannten,mit,Stadt,die,wurden,immer,ich,sind,uns,Wohnung,immer,Packung,"reichlichem,",das,sprudelndes,ich,mit,gelegentlich,"minimalem,","nicht,",sprudelnden,"wertvollem,",Farbe,viel,dauerte,mit,man,einen,die,landen,aus,aus,ein,"Delikte,",viel,wir,Stadt,36,schmutziger,"trug,",ich,den,auf,richtige,ein,dauerhaftem,dem,jetzt,"regelmäßigem,",obschon,bei,Büschel,dank,vierte,ich,Farbe,die,bei,alten,Neuwahlen,wir,ausreichendem,Bluts,war,nicht,schmutzige,Fahrer,schönen,man,solch,alten,obwohl,schönen,Büschel,man,wurden,den,sind,landen,,,,,,,,,,,,,,,,,,,,,,,8,0,8,0,0,4,4,4,,,,,,,space,0.709625959396,,,,,2017_Jan_24_1353,59.6441801368,spr_backupper,001,Di14,
,derer,ziemlich,harten,elektrische,weichem,unzureichenden,Skandals,des,salziger,würden,"reichem,",wurden,noch,die,künftigem,den,hat,immer,elektrischer,Skandal,einem,liegen,Störenfriede,serviert.,350,leider,auf,die,des,350,salzige,purem,Auto,Trinkwasser.,leider,einem,einen,sauberen,was,Trinkwassers.,klassischen,geschleudert.,Lärm,ungefähr,zusätzlichem,der,gelegentlichen,Tiere,im,seltenem,feinem,Glas,deren,Lärm,um,liegen,hätten,Wäsche.,war,mehr,roten,noch,"Zeit,",Glas,feinem,Mann,"nachgewiesen,",kaltem,sie,minimalem,frischen,täglichem,Bundespräsident.,mehr,geschleudert.,Störenfriede,"frischem,",Kram,vor,von,monatlichem,hat,die,am,Wäsche.,wurden,Wetter,eine,unzureichenden,Krams,sie,Wetters,frisches,eine,serviert.,roten,auf,im,,,,,,,,,,,,,,,,,,,,,,,8,0,8,0,0,5,5,5,,,,,,,space,0.486536026001,,,,,2017_Jan_24_1353,59.6441801368,spr_backupper,001,Di14,
,sie,"vermiest,",Schaumstoff,Energie.,Untergrund,Helmen,wiedergewählt.,Herrn,Wurst,seiner,goldenen,verschrottet.,eine,er,Einkommen,Soldaten,den,ruhig,Energie.,wiedergewählt.,Esslöffel,die,jeden.,nan,ml,nichts,jeden,Stimmung,Herrn,ml,Wurst,Alkohol,mehr,nan,nichts,Esslöffel,Besucher.,Kraftstoff,Tupperware,nan,Schmuck,nan,um,drei,schwarzem,Soldaten,Besucher.,artgerecht,Müll.,dichten,dichten,köstlicher,sie,um,die,die,seiner,nan,aus,als,Planeten,eine,um,köstlichen,Kunsteis,mehr,dass,Abduschen,defekt,täglichen,Grases,grünen,nan,als,nan,jeden.,kaltem,aus,Dezember,den,Taschengeld,den,Flut,Hauptbahnhof.,nan,verschrottet.,die,große,Helmen,aus,defekt,die,Gras,große,nan,Planet,jeden,Müll.,,,,,,,,,,,,,,,,,,,,,,,8,0,8,0,0,6,6,6,,,,,,,space,0.637968063354,,,,,2017_Jan_24_1353,59.6441801368,spr_backupper,001,Di14,
,überführt,dass,gefertigt.,nan,liegen.,zur,nan,Gantenbeins.,mit,Frau,Besatz,nan,Sammlung,trug.,haftbar.,des,Boden,diskutiert.,nan,nan,warmen,Slums.,nan,nan,warme,mitbringen.,Fall,ziemlich,Gantenbein.,warmer,mit,verdünnt.,als,nan,mitbringen.,warmem,nan,fahren.,ist.,nan,umgearbeitet.,nan,jede,Tage.,Kaffee,des,nan,gehalten.,nan,Gewebe,Stoff,Wein,überführt,jede,Probleme,Slums.,Frau,nan,Japan.,einmal,ganz,Sammlung,Nadelhölzer,Weins,eingesprüht.,als,das,gehärtet.,war.,Einsatz,zwängen.,Tee,nan,einmal,nan,nan,Saft,dem,stattfinden.,Problemen,selber,Boden,zurückgekehrt.,nan,nan,nan,Wohnung.,Menge,zur,dem,war.,Wohnung.,zwängen.,Menge,nan,ganz,Fall,nan,,,,,,,,,,,,,,,,,,,,,,,8,0,8,0,0,7,7,7,,,,,,,space,0.436308860779,,,,,2017_Jan_24_1353,59.6441801368,spr_backupper,001,Di14,
,wurden.,es,nan,nan,nan,Schule.,nan,nan,an,gepasst,rekonstruiert.,nan,dummer,nan,nan,zweiten,berührt.,nan,nan,nan,Honigs,nan,nan,nan,Milch.,nan,genug.,vermiest.,nan,Milch.,an,nan,gerne.,nan,nan,Honig,nan,nan,nan,nan,nan,nan,Menge,nan,wiederbelebt.,zweiten,nan,nan,nan,wiederhergestellt.,gefertigt.,schon,wurden.,Menge,im,nan,gepasst.,nan,nan,Rilke,deutlich.,dumme,umzusetzen.,schon,nan,gerne.,Medikament,nan,nan,sinken.,nan,wieder,nan,Rilke.,nan,nan,besprochen.,Haus,nan,im,kaufen.,berührt.,nan,nan,nan,nan,nan,dunkler,Schule.,Haus,nan,nan,nan,dunkle,nan,deutlich.,genug.,nan,,,,,,,,,,,,,,,,,,,,,,,8,0,8,0,0,8,8,8,,,,,,,space,0.420114994049,,,,,2017_Jan_24_1353,59.6441801368,spr_backupper,001,Di14,
,nan,regnete.,nan,nan,nan,nan,nan,nan,den,haben.,nan,nan,Sprüche.,nan,nan,Weltkriegs.,nan,nan,nan,nan,her.,nan,nan,nan,nan,nan,nan,nan,nan,nan,den,nan,nan,nan,nan,her.,nan,nan,nan,nan,nan,nan,heißer,nan,nan,Weltkriegs.,nan,nan,nan,nan,nan,auf,nan,heiße,Landkreis.,nan,nan,nan,nan,gelesen.,nan,Sprüche.,nan,auf,nan,nan,nicht,nan,nan,nan,nan,fit.,nan,nan,nan,nan,nan,geschafft.,nan,Landkreis.,nan,nan,nan,nan,nan,nan,nan,Materie,nan,geschafft.,nan,nan,nan,Materie,nan,nan,nan,nan,,,,,,,,,,,,,,,,,,,,,,,8,0,8,0,0,9,9,9,,,,,,,space,0.461606025696,,,,,2017_Jan_24_1353,59.6441801368,spr_backupper,001,Di14,
,,,,,,,,,,,,,,,,,,,,,,,,,,,,,,,,,,,,,,,,,,,,,,,,,,,,,,,,,,,,,,,,,,,,,,,,,,,,,,,,,,,,,,,,,,,,,,,,,,,,,,,,,,,,,,,,,,,,,,,,,8,0,8,0,,,,,,,,,,,,,None,j,1.32584786415,,2017_Jan_24_1353,59.6441801368,spr_backupper,001,Di14,
,Es,Es,Alle,Die,Jungtiere,Die,Er,Die,Ich,Die,Das,Die,Sie,Die,Manche,Bei,Nicht,Fernab,Die,Er,Er,Am,Außer,Beträchtliche,In,Außer,100,Dass,Die,In,Ich,Die,Wir,Sie,Außer,Er,Wir,Wir,Die,Sie,Die,Es,Man,Der,Die,Bei,Wir,In,Viele,Danach,Er,Bei,Es,Man,In,Am,Die,Dort,Die,In,Im,Sie,Jetzt,Bei,Die,Wir,In,Die,Die,Ihr,Wir,Ich,Walter,In,Es,Außer,Sie,Wir,Unter,In,Jugendliche,Nicht,Als,Die,Dort,Die,Sie,Mit,Die,Wir,Die,Sie,Wir,Mit,Beträchtliche,Im,100,Viele,,,,,,,,,,,,,,,,,,,,,,,9,0,9,0,0,0,0,0,,,,,,None,space,0.561033010483,,,,,2017_Jan_24_1353,59.6441801368,spr_backupper,001,Di14,
,waren,hat,Betten,Schule,sollten,Kinder,wurde,Gäste,nehme,Schuhe,Tuch,Autos,hatte,Uhr,Kreditnehmer,der,ein,des,Schule,wurde,stellt,äußersten,den,Stücke,den,dem,g,es,Gäste,den,nehme,Lösung,übergaben,verbrauchen,das,stellt,hatten,konnten,Teilnehmerinnen,verbrauchen,Stücke,wurden,machte,Flug,müden,der,hatten,diesem,Tonnen,wurde,hat,unserer,waren,machte,der,äußeren,Schuhe,türmen,"Uhr,",meinem,Fernrohr,hatte,ist,unserer,Eislaufbahnen,übergaben,einer,Formen,Uhr,Blutdruck,mussten,wurde,Scheel,meinem,wurden,dem,haben,haben,keinen,der,können,ein,die,Linie,türmen,Autos,verlassen,dieser,Kinder,haben,Uhr,verlassen,mussten,dieser,Stücke,Fernrohr,g,Tonnen,,,,,,,,,,,,,,,,,,,,,,,9,0,9,0,0,1,1,1,,,,,,,space,0.424557924271,,,,,2017_Jan_24_1353,59.6441801368,spr_backupper,001,Di14,
,nur,uns,wurden,verbraucht,immer,fuhren,trotz,suchen,eine,in,wurde,beider,keine,war,sind,Feier,Tropfen,Rummels,verbraucht,trotz,die,Rand,Bürgermeister,saftiges,Kakao,Essen,braunen,"regnete,",suchen,Kakao,eine,wird,dem,60,Essen,die,in,dann,wussten,60,wurden,Eimer,mal,zum,Teilnehmer,Feier,in,Zirkus,gebrauchter,die,ein,Ankunft,nur,mal,Tat,Rand,in,sich,die,Studium,sahen,keine,genau,Ankunft,wurden,das,Studie,wurden,schlug,kann,uns,damals,war,Studium,Eimer,Bürgermeister,die,jede,Umständen,Tat,Kleidung,Tropfen,Sonne,101,sich,beider,wegen,Methode,fuhren,jede,schlug,wegen,uns,Methode,saftigen,sahen,brauner,gebrauchte,,,,,,,,,,,,,,,,,,,,,,,9,0,9,0,0,2,2,2,,,,,,,space,0.400036811829,,,,,2017_Jan_24_1353,59.6441801368,spr_backupper,001,Di14,
,kleinere,die,mit,260.000,auf,mit,des,die,große,Größe,dann,beteiligten,Lust,aus,mit,gedachte,königliches,wurde,260.000,dem,Masse,der,beschuldigten,Fleisch,gehören,kann,Zuckers,hat,die,gehören,große,mit,Mann,Liter,kann,Masse,Dänemark,mit,überwiegend,Liter,aus,roter,wieder,Mond,wurden,gedachte,Dänemark,werden,Kleidung,Leinwand,Hemd,stand,kleinere,wieder,wissen,der,Größe,Berge,er,habe,wir,Lust,die,stand,mit,Auto,wurde,unter,"sporadisch,",schon,durch,schnell,der,las,rote,beschuldigten,Erlebnisse,Menge,können,wissen,bei,königlichen,"unterging,",hält,Berge,beteiligter,dem,kann,mit,Menge,"sporadisch,",des,durch,kann,Fleischs,wir,Zucker,Kleidung,,,,,,,,,,,,,,,,,,,,,,,9,0,9,0,0,3,3,3,,,,,,,space,0.413845062256,,,,,2017_Jan_24_1353,59.6441801368,spr_backupper,001,Di14,
,"Delikte,",Stimmung,"üblichem,",Kilowattstunden,warmem,solchen,bekannten,Wohnung,Packung,36,mit,Fahrer,auf,"Japan,","sämtlichem,",man,Blut,schon,Kilowattstunden,bekannten,mit,Stadt,die,wurden,immer,ich,sind,uns,Wohnung,immer,Packung,"reichlichem,",das,sprudelndes,ich,mit,gelegentlich,"minimalem,","nicht,",sprudelnden,"wertvollem,",Farbe,viel,dauerte,mit,man,einen,die,landen,aus,aus,ein,"Delikte,",viel,wir,Stadt,36,schmutziger,"trug,",ich,den,auf,richtige,ein,dauerhaftem,dem,jetzt,"regelmäßigem,",obschon,bei,Büschel,dank,vierte,ich,Farbe,die,bei,alten,Neuwahlen,wir,ausreichendem,Bluts,war,nicht,schmutzige,Fahrer,schönen,man,solch,alten,obwohl,schönen,Büschel,man,wurden,den,sind,landen,,,,,,,,,,,,,,,,,,,,,,,9,0,9,0,0,4,4,4,,,,,,,space,0.357683897018,,,,,2017_Jan_24_1353,59.6441801368,spr_backupper,001,Di14,
,derer,ziemlich,harten,elektrische,weichem,unzureichenden,Skandals,des,salziger,würden,"reichem,",wurden,noch,die,künftigem,den,hat,immer,elektrischer,Skandal,einem,liegen,Störenfriede,serviert.,350,leider,auf,die,des,350,salzige,purem,Auto,Trinkwasser.,leider,einem,einen,sauberen,was,Trinkwassers.,klassischen,geschleudert.,Lärm,ungefähr,zusätzlichem,der,gelegentlichen,Tiere,im,seltenem,feinem,Glas,deren,Lärm,um,liegen,hätten,Wäsche.,war,mehr,roten,noch,"Zeit,",Glas,feinem,Mann,"nachgewiesen,",kaltem,sie,minimalem,frischen,täglichem,Bundespräsident.,mehr,geschleudert.,Störenfriede,"frischem,",Kram,vor,von,monatlichem,hat,die,am,Wäsche.,wurden,Wetter,eine,unzureichenden,Krams,sie,Wetters,frisches,eine,serviert.,roten,auf,im,,,,,,,,,,,,,,,,,,,,,,,9,0,9,0,0,5,5,5,,,,,,,space,0.420432806015,,,,,2017_Jan_24_1353,59.6441801368,spr_backupper,001,Di14,
,,,,,,,,,,,,,,,,,,,,,,,,,,,,,,,,,,,,,,,,,,,,,,,,,,,,,,,,,,,,,,,,,,,,,,,,,,,,,,,,,,,,,,,,,,,,,,,,,,,,,,,,,,,,,,,,,,,,,,,,,9,0,9,0,,,,,,,,,,,,,None,n,1.70149302483,,2017_Jan_24_1353,59.6441801368,spr_backupper,001,Di14,
,Es,Es,Alle,Die,Jungtiere,Die,Er,Die,Ich,Die,Das,Die,Sie,Die,Manche,Bei,Nicht,Fernab,Die,Er,Er,Am,Außer,Beträchtliche,In,Außer,100,Dass,Die,In,Ich,Die,Wir,Sie,Außer,Er,Wir,Wir,Die,Sie,Die,Es,Man,Der,Die,Bei,Wir,In,Viele,Danach,Er,Bei,Es,Man,In,Am,Die,Dort,Die,In,Im,Sie,Jetzt,Bei,Die,Wir,In,Die,Die,Ihr,Wir,Ich,Walter,In,Es,Außer,Sie,Wir,Unter,In,Jugendliche,Nicht,Als,Die,Dort,Die,Sie,Mit,Die,Wir,Die,Sie,Wir,Mit,Beträchtliche,Im,100,Viele,,,,,,,,,,,,,,,,,,,,,,,10,0,10,0,0,0,0,0,,,,,,None,space,1.31872296333,,,,,2017_Jan_24_1353,59.6441801368,spr_backupper,001,Di14,
,waren,hat,Betten,Schule,sollten,Kinder,wurde,Gäste,nehme,Schuhe,Tuch,Autos,hatte,Uhr,Kreditnehmer,der,ein,des,Schule,wurde,stellt,äußersten,den,Stücke,den,dem,g,es,Gäste,den,nehme,Lösung,übergaben,verbrauchen,das,stellt,hatten,konnten,Teilnehmerinnen,verbrauchen,Stücke,wurden,machte,Flug,müden,der,hatten,diesem,Tonnen,wurde,hat,unserer,waren,machte,der,äußeren,Schuhe,türmen,"Uhr,",meinem,Fernrohr,hatte,ist,unserer,Eislaufbahnen,übergaben,einer,Formen,Uhr,Blutdruck,mussten,wurde,Scheel,meinem,wurden,dem,haben,haben,keinen,der,können,ein,die,Linie,türmen,Autos,verlassen,dieser,Kinder,haben,Uhr,verlassen,mussten,dieser,Stücke,Fernrohr,g,Tonnen,,,,,,,,,,,,,,,,,,,,,,,10,0,10,0,0,1,1,1,,,,,,,space,0.445178985596,,,,,2017_Jan_24_1353,59.6441801368,spr_backupper,001,Di14,
,nur,uns,wurden,verbraucht,immer,fuhren,trotz,suchen,eine,in,wurde,beider,keine,war,sind,Feier,Tropfen,Rummels,verbraucht,trotz,die,Rand,Bürgermeister,saftiges,Kakao,Essen,braunen,"regnete,",suchen,Kakao,eine,wird,dem,60,Essen,die,in,dann,wussten,60,wurden,Eimer,mal,zum,Teilnehmer,Feier,in,Zirkus,gebrauchter,die,ein,Ankunft,nur,mal,Tat,Rand,in,sich,die,Studium,sahen,keine,genau,Ankunft,wurden,das,Studie,wurden,schlug,kann,uns,damals,war,Studium,Eimer,Bürgermeister,die,jede,Umständen,Tat,Kleidung,Tropfen,Sonne,101,sich,beider,wegen,Methode,fuhren,jede,schlug,wegen,uns,Methode,saftigen,sahen,brauner,gebrauchte,,,,,,,,,,,,,,,,,,,,,,,10,0,10,0,0,2,2,2,,,,,,,space,0.519963979721,,,,,2017_Jan_24_1353,59.6441801368,spr_backupper,001,Di14,
,kleinere,die,mit,260.000,auf,mit,des,die,große,Größe,dann,beteiligten,Lust,aus,mit,gedachte,königliches,wurde,260.000,dem,Masse,der,beschuldigten,Fleisch,gehören,kann,Zuckers,hat,die,gehören,große,mit,Mann,Liter,kann,Masse,Dänemark,mit,überwiegend,Liter,aus,roter,wieder,Mond,wurden,gedachte,Dänemark,werden,Kleidung,Leinwand,Hemd,stand,kleinere,wieder,wissen,der,Größe,Berge,er,habe,wir,Lust,die,stand,mit,Auto,wurde,unter,"sporadisch,",schon,durch,schnell,der,las,rote,beschuldigten,Erlebnisse,Menge,können,wissen,bei,königlichen,"unterging,",hält,Berge,beteiligter,dem,kann,mit,Menge,"sporadisch,",des,durch,kann,Fleischs,wir,Zucker,Kleidung,,,,,,,,,,,,,,,,,,,,,,,10,0,10,0,0,3,3,3,,,,,,,space,0.55294585228,,,,,2017_Jan_24_1353,59.6441801368,spr_backupper,001,Di14,
,"Delikte,",Stimmung,"üblichem,",Kilowattstunden,warmem,solchen,bekannten,Wohnung,Packung,36,mit,Fahrer,auf,"Japan,","sämtlichem,",man,Blut,schon,Kilowattstunden,bekannten,mit,Stadt,die,wurden,immer,ich,sind,uns,Wohnung,immer,Packung,"reichlichem,",das,sprudelndes,ich,mit,gelegentlich,"minimalem,","nicht,",sprudelnden,"wertvollem,",Farbe,viel,dauerte,mit,man,einen,die,landen,aus,aus,ein,"Delikte,",viel,wir,Stadt,36,schmutziger,"trug,",ich,den,auf,richtige,ein,dauerhaftem,dem,jetzt,"regelmäßigem,",obschon,bei,Büschel,dank,vierte,ich,Farbe,die,bei,alten,Neuwahlen,wir,ausreichendem,Bluts,war,nicht,schmutzige,Fahrer,schönen,man,solch,alten,obwohl,schönen,Büschel,man,wurden,den,sind,landen,,,,,,,,,,,,,,,,,,,,,,,10,0,10,0,0,4,4,4,,,,,,,space,1.5773999691,,,,,2017_Jan_24_1353,59.6441801368,spr_backupper,001,Di14,
,derer,ziemlich,harten,elektrische,weichem,unzureichenden,Skandals,des,salziger,würden,"reichem,",wurden,noch,die,künftigem,den,hat,immer,elektrischer,Skandal,einem,liegen,Störenfriede,serviert.,350,leider,auf,die,des,350,salzige,purem,Auto,Trinkwasser.,leider,einem,einen,sauberen,was,Trinkwassers.,klassischen,geschleudert.,Lärm,ungefähr,zusätzlichem,der,gelegentlichen,Tiere,im,seltenem,feinem,Glas,deren,Lärm,um,liegen,hätten,Wäsche.,war,mehr,roten,noch,"Zeit,",Glas,feinem,Mann,"nachgewiesen,",kaltem,sie,minimalem,frischen,täglichem,Bundespräsident.,mehr,geschleudert.,Störenfriede,"frischem,",Kram,vor,von,monatlichem,hat,die,am,Wäsche.,wurden,Wetter,eine,unzureichenden,Krams,sie,Wetters,frisches,eine,serviert.,roten,auf,im,,,,,,,,,,,,,,,,,,,,,,,10,0,10,0,0,5,5,5,,,,,,,space,0.745608091354,,,,,2017_Jan_24_1353,59.6441801368,spr_backupper,001,Di14,
,sie,"vermiest,",Schaumstoff,Energie.,Untergrund,Helmen,wiedergewählt.,Herrn,Wurst,seiner,goldenen,verschrottet.,eine,er,Einkommen,Soldaten,den,ruhig,Energie.,wiedergewählt.,Esslöffel,die,jeden.,nan,ml,nichts,jeden,Stimmung,Herrn,ml,Wurst,Alkohol,mehr,nan,nichts,Esslöffel,Besucher.,Kraftstoff,Tupperware,nan,Schmuck,nan,um,drei,schwarzem,Soldaten,Besucher.,artgerecht,Müll.,dichten,dichten,köstlicher,sie,um,die,die,seiner,nan,aus,als,Planeten,eine,um,köstlichen,Kunsteis,mehr,dass,Abduschen,defekt,täglichen,Grases,grünen,nan,als,nan,jeden.,kaltem,aus,Dezember,den,Taschengeld,den,Flut,Hauptbahnhof.,nan,verschrottet.,die,große,Helmen,aus,defekt,die,Gras,große,nan,Planet,jeden,Müll.,,,,,,,,,,,,,,,,,,,,,,,10,0,10,0,0,6,6,6,,,,,,,space,0.786081075668,,,,,2017_Jan_24_1353,59.6441801368,spr_backupper,001,Di14,
,,,,,,,,,,,,,,,,,,,,,,,,,,,,,,,,,,,,,,,,,,,,,,,,,,,,,,,,,,,,,,,,,,,,,,,,,,,,,,,,,,,,,,,,,,,,,,,,,,,,,,,,,,,,,,,,,,,,,,,,,10,0,10,0,,,,,,,,,,,,,None,n,2.31456017494,,2017_Jan_24_1353,59.6441801368,spr_backupper,001,Di14,
,Es,Es,Alle,Die,Jungtiere,Die,Er,Die,Ich,Die,Das,Die,Sie,Die,Manche,Bei,Nicht,Fernab,Die,Er,Er,Am,Außer,Beträchtliche,In,Außer,100,Dass,Die,In,Ich,Die,Wir,Sie,Außer,Er,Wir,Wir,Die,Sie,Die,Es,Man,Der,Die,Bei,Wir,In,Viele,Danach,Er,Bei,Es,Man,In,Am,Die,Dort,Die,In,Im,Sie,Jetzt,Bei,Die,Wir,In,Die,Die,Ihr,Wir,Ich,Walter,In,Es,Außer,Sie,Wir,Unter,In,Jugendliche,Nicht,Als,Die,Dort,Die,Sie,Mit,Die,Wir,Die,Sie,Wir,Mit,Beträchtliche,Im,100,Viele,,,,,,,,,,,,,,,,,,,,,,,11,0,11,0,0,0,0,0,,,,,,space,space,0.689312934875,,,,0.603533983231,2017_Jan_24_1353,59.6441801368,spr_backupper,001,Di14,
,waren,hat,Betten,Schule,sollten,Kinder,wurde,Gäste,nehme,Schuhe,Tuch,Autos,hatte,Uhr,Kreditnehmer,der,ein,des,Schule,wurde,stellt,äußersten,den,Stücke,den,dem,g,es,Gäste,den,nehme,Lösung,übergaben,verbrauchen,das,stellt,hatten,konnten,Teilnehmerinnen,verbrauchen,Stücke,wurden,machte,Flug,müden,der,hatten,diesem,Tonnen,wurde,hat,unserer,waren,machte,der,äußeren,Schuhe,türmen,"Uhr,",meinem,Fernrohr,hatte,ist,unserer,Eislaufbahnen,übergaben,einer,Formen,Uhr,Blutdruck,mussten,wurde,Scheel,meinem,wurden,dem,haben,haben,keinen,der,können,ein,die,Linie,türmen,Autos,verlassen,dieser,Kinder,haben,Uhr,verlassen,mussten,dieser,Stücke,Fernrohr,g,Tonnen,,,,,,,,,,,,,,,,,,,,,,,11,0,11,0,0,1,1,1,,,,,,,space,0.632068872452,,,,,2017_Jan_24_1353,59.6441801368,spr_backupper,001,Di14,
,nur,uns,wurden,verbraucht,immer,fuhren,trotz,suchen,eine,in,wurde,beider,keine,war,sind,Feier,Tropfen,Rummels,verbraucht,trotz,die,Rand,Bürgermeister,saftiges,Kakao,Essen,braunen,"regnete,",suchen,Kakao,eine,wird,dem,60,Essen,die,in,dann,wussten,60,wurden,Eimer,mal,zum,Teilnehmer,Feier,in,Zirkus,gebrauchter,die,ein,Ankunft,nur,mal,Tat,Rand,in,sich,die,Studium,sahen,keine,genau,Ankunft,wurden,das,Studie,wurden,schlug,kann,uns,damals,war,Studium,Eimer,Bürgermeister,die,jede,Umständen,Tat,Kleidung,Tropfen,Sonne,101,sich,beider,wegen,Methode,fuhren,jede,schlug,wegen,uns,Methode,saftigen,sahen,brauner,gebrauchte,,,,,,,,,,,,,,,,,,,,,,,11,0,11,0,0,2,2,2,,,,,,,space,0.620146036148,,,,,2017_Jan_24_1353,59.6441801368,spr_backupper,001,Di14,
,kleinere,die,mit,260.000,auf,mit,des,die,große,Größe,dann,beteiligten,Lust,aus,mit,gedachte,königliches,wurde,260.000,dem,Masse,der,beschuldigten,Fleisch,gehören,kann,Zuckers,hat,die,gehören,große,mit,Mann,Liter,kann,Masse,Dänemark,mit,überwiegend,Liter,aus,roter,wieder,Mond,wurden,gedachte,Dänemark,werden,Kleidung,Leinwand,Hemd,stand,kleinere,wieder,wissen,der,Größe,Berge,er,habe,wir,Lust,die,stand,mit,Auto,wurde,unter,"sporadisch,",schon,durch,schnell,der,las,rote,beschuldigten,Erlebnisse,Menge,können,wissen,bei,königlichen,"unterging,",hält,Berge,beteiligter,dem,kann,mit,Menge,"sporadisch,",des,durch,kann,Fleischs,wir,Zucker,Kleidung,,,,,,,,,,,,,,,,,,,,,,,11,0,11,0,0,3,3,3,,,,,,,space,0.369453907013,,,,,2017_Jan_24_1353,59.6441801368,spr_backupper,001,Di14,
,"Delikte,",Stimmung,"üblichem,",Kilowattstunden,warmem,solchen,bekannten,Wohnung,Packung,36,mit,Fahrer,auf,"Japan,","sämtlichem,",man,Blut,schon,Kilowattstunden,bekannten,mit,Stadt,die,wurden,immer,ich,sind,uns,Wohnung,immer,Packung,"reichlichem,",das,sprudelndes,ich,mit,gelegentlich,"minimalem,","nicht,",sprudelnden,"wertvollem,",Farbe,viel,dauerte,mit,man,einen,die,landen,aus,aus,ein,"Delikte,",viel,wir,Stadt,36,schmutziger,"trug,",ich,den,auf,richtige,ein,dauerhaftem,dem,jetzt,"regelmäßigem,",obschon,bei,Büschel,dank,vierte,ich,Farbe,die,bei,alten,Neuwahlen,wir,ausreichendem,Bluts,war,nicht,schmutzige,Fahrer,schönen,man,solch,alten,obwohl,schönen,Büschel,man,wurden,den,sind,landen,,,,,,,,,,,,,,,,,,,,,,,11,0,11,0,0,4,4,4,,,,,,,space,0.419025182724,,,,,2017_Jan_24_1353,59.6441801368,spr_backupper,001,Di14,
,derer,ziemlich,harten,elektrische,weichem,unzureichenden,Skandals,des,salziger,würden,"reichem,",wurden,noch,die,künftigem,den,hat,immer,elektrischer,Skandal,einem,liegen,Störenfriede,serviert.,350,leider,auf,die,des,350,salzige,purem,Auto,Trinkwasser.,leider,einem,einen,sauberen,was,Trinkwassers.,klassischen,geschleudert.,Lärm,ungefähr,zusätzlichem,der,gelegentlichen,Tiere,im,seltenem,feinem,Glas,deren,Lärm,um,liegen,hätten,Wäsche.,war,mehr,roten,noch,"Zeit,",Glas,feinem,Mann,"nachgewiesen,",kaltem,sie,minimalem,frischen,täglichem,Bundespräsident.,mehr,geschleudert.,Störenfriede,"frischem,",Kram,vor,von,monatlichem,hat,die,am,Wäsche.,wurden,Wetter,eine,unzureichenden,Krams,sie,Wetters,frisches,eine,serviert.,roten,auf,im,,,,,,,,,,,,,,,,,,,,,,,11,0,11,0,0,5,5,5,,,,,,,space,0.403398036957,,,,,2017_Jan_24_1353,59.6441801368,spr_backupper,001,Di14,
,sie,"vermiest,",Schaumstoff,Energie.,Untergrund,Helmen,wiedergewählt.,Herrn,Wurst,seiner,goldenen,verschrottet.,eine,er,Einkommen,Soldaten,den,ruhig,Energie.,wiedergewählt.,Esslöffel,die,jeden.,nan,ml,nichts,jeden,Stimmung,Herrn,ml,Wurst,Alkohol,mehr,nan,nichts,Esslöffel,Besucher.,Kraftstoff,Tupperware,nan,Schmuck,nan,um,drei,schwarzem,Soldaten,Besucher.,artgerecht,Müll.,dichten,dichten,köstlicher,sie,um,die,die,seiner,nan,aus,als,Planeten,eine,um,köstlichen,Kunsteis,mehr,dass,Abduschen,defekt,täglichen,Grases,grünen,nan,als,nan,jeden.,kaltem,aus,Dezember,den,Taschengeld,den,Flut,Hauptbahnhof.,nan,verschrottet.,die,große,Helmen,aus,defekt,die,Gras,große,nan,Planet,jeden,Müll.,,,,,,,,,,,,,,,,,,,,,,,11,0,11,0,0,6,6,6,,,,,,,space,0.415644168854,,,,,2017_Jan_24_1353,59.6441801368,spr_backupper,001,Di14,
,überführt,dass,gefertigt.,nan,liegen.,zur,nan,Gantenbeins.,mit,Frau,Besatz,nan,Sammlung,trug.,haftbar.,des,Boden,diskutiert.,nan,nan,warmen,Slums.,nan,nan,warme,mitbringen.,Fall,ziemlich,Gantenbein.,warmer,mit,verdünnt.,als,nan,mitbringen.,warmem,nan,fahren.,ist.,nan,umgearbeitet.,nan,jede,Tage.,Kaffee,des,nan,gehalten.,nan,Gewebe,Stoff,Wein,überführt,jede,Probleme,Slums.,Frau,nan,Japan.,einmal,ganz,Sammlung,Nadelhölzer,Weins,eingesprüht.,als,das,gehärtet.,war.,Einsatz,zwängen.,Tee,nan,einmal,nan,nan,Saft,dem,stattfinden.,Problemen,selber,Boden,zurückgekehrt.,nan,nan,nan,Wohnung.,Menge,zur,dem,war.,Wohnung.,zwängen.,Menge,nan,ganz,Fall,nan,,,,,,,,,,,,,,,,,,,,,,,11,0,11,0,0,7,7,7,,,,,,,space,0.735012054443,,,,,2017_Jan_24_1353,59.6441801368,spr_backupper,001,Di14,
,,,,,,,,,,,,,,,,,,,,,,,,,,,,,,,,,,,,,,,,,,,,,,,,,,,,,,,,,,,,,,,,,,,,,,,,,,,,,,,,,,,,,,,,,,,,,,,,,,,,,,,,,,,,,,,,,,,,,,,,,11,0,11,0,,,,,,,,,,,,,None,j,1.90413308144,,2017_Jan_24_1353,59.6441801368,spr_backupper,001,Di14,
,Es,Es,Alle,Die,Jungtiere,Die,Er,Die,Ich,Die,Das,Die,Sie,Die,Manche,Bei,Nicht,Fernab,Die,Er,Er,Am,Außer,Beträchtliche,In,Außer,100,Dass,Die,In,Ich,Die,Wir,Sie,Außer,Er,Wir,Wir,Die,Sie,Die,Es,Man,Der,Die,Bei,Wir,In,Viele,Danach,Er,Bei,Es,Man,In,Am,Die,Dort,Die,In,Im,Sie,Jetzt,Bei,Die,Wir,In,Die,Die,Ihr,Wir,Ich,Walter,In,Es,Außer,Sie,Wir,Unter,In,Jugendliche,Nicht,Als,Die,Dort,Die,Sie,Mit,Die,Wir,Die,Sie,Wir,Mit,Beträchtliche,Im,100,Viele,,,,,,,,,,,,,,,,,,,,,,,12,0,12,0,0,0,0,0,,,,,,None,space,0.286388874054,,,,,2017_Jan_24_1353,59.6441801368,spr_backupper,001,Di14,
,waren,hat,Betten,Schule,sollten,Kinder,wurde,Gäste,nehme,Schuhe,Tuch,Autos,hatte,Uhr,Kreditnehmer,der,ein,des,Schule,wurde,stellt,äußersten,den,Stücke,den,dem,g,es,Gäste,den,nehme,Lösung,übergaben,verbrauchen,das,stellt,hatten,konnten,Teilnehmerinnen,verbrauchen,Stücke,wurden,machte,Flug,müden,der,hatten,diesem,Tonnen,wurde,hat,unserer,waren,machte,der,äußeren,Schuhe,türmen,"Uhr,",meinem,Fernrohr,hatte,ist,unserer,Eislaufbahnen,übergaben,einer,Formen,Uhr,Blutdruck,mussten,wurde,Scheel,meinem,wurden,dem,haben,haben,keinen,der,können,ein,die,Linie,türmen,Autos,verlassen,dieser,Kinder,haben,Uhr,verlassen,mussten,dieser,Stücke,Fernrohr,g,Tonnen,,,,,,,,,,,,,,,,,,,,,,,12,0,12,0,0,1,1,1,,,,,,,space,0.38693189621,,,,,2017_Jan_24_1353,59.6441801368,spr_backupper,001,Di14,
,nur,uns,wurden,verbraucht,immer,fuhren,trotz,suchen,eine,in,wurde,beider,keine,war,sind,Feier,Tropfen,Rummels,verbraucht,trotz,die,Rand,Bürgermeister,saftiges,Kakao,Essen,braunen,"regnete,",suchen,Kakao,eine,wird,dem,60,Essen,die,in,dann,wussten,60,wurden,Eimer,mal,zum,Teilnehmer,Feier,in,Zirkus,gebrauchter,die,ein,Ankunft,nur,mal,Tat,Rand,in,sich,die,Studium,sahen,keine,genau,Ankunft,wurden,das,Studie,wurden,schlug,kann,uns,damals,war,Studium,Eimer,Bürgermeister,die,jede,Umständen,Tat,Kleidung,Tropfen,Sonne,101,sich,beider,wegen,Methode,fuhren,jede,schlug,wegen,uns,Methode,saftigen,sahen,brauner,gebrauchte,,,,,,,,,,,,,,,,,,,,,,,12,0,12,0,0,2,2,2,,,,,,,space,0.436316013336,,,,,2017_Jan_24_1353,59.6441801368,spr_backupper,001,Di14,
,kleinere,die,mit,260.000,auf,mit,des,die,große,Größe,dann,beteiligten,Lust,aus,mit,gedachte,königliches,wurde,260.000,dem,Masse,der,beschuldigten,Fleisch,gehören,kann,Zuckers,hat,die,gehören,große,mit,Mann,Liter,kann,Masse,Dänemark,mit,überwiegend,Liter,aus,roter,wieder,Mond,wurden,gedachte,Dänemark,werden,Kleidung,Leinwand,Hemd,stand,kleinere,wieder,wissen,der,Größe,Berge,er,habe,wir,Lust,die,stand,mit,Auto,wurde,unter,"sporadisch,",schon,durch,schnell,der,las,rote,beschuldigten,Erlebnisse,Menge,können,wissen,bei,königlichen,"unterging,",hält,Berge,beteiligter,dem,kann,mit,Menge,"sporadisch,",des,durch,kann,Fleischs,wir,Zucker,Kleidung,,,,,,,,,,,,,,,,,,,,,,,12,0,12,0,0,3,3,3,,,,,,,space,0.629179000854,,,,,2017_Jan_24_1353,59.6441801368,spr_backupper,001,Di14,
,"Delikte,",Stimmung,"üblichem,",Kilowattstunden,warmem,solchen,bekannten,Wohnung,Packung,36,mit,Fahrer,auf,"Japan,","sämtlichem,",man,Blut,schon,Kilowattstunden,bekannten,mit,Stadt,die,wurden,immer,ich,sind,uns,Wohnung,immer,Packung,"reichlichem,",das,sprudelndes,ich,mit,gelegentlich,"minimalem,","nicht,",sprudelnden,"wertvollem,",Farbe,viel,dauerte,mit,man,einen,die,landen,aus,aus,ein,"Delikte,",viel,wir,Stadt,36,schmutziger,"trug,",ich,den,auf,richtige,ein,dauerhaftem,dem,jetzt,"regelmäßigem,",obschon,bei,Büschel,dank,vierte,ich,Farbe,die,bei,alten,Neuwahlen,wir,ausreichendem,Bluts,war,nicht,schmutzige,Fahrer,schönen,man,solch,alten,obwohl,schönen,Büschel,man,wurden,den,sind,landen,,,,,,,,,,,,,,,,,,,,,,,12,0,12,0,0,4,4,4,,,,,,,space,0.451761960983,,,,,2017_Jan_24_1353,59.6441801368,spr_backupper,001,Di14,
,derer,ziemlich,harten,elektrische,weichem,unzureichenden,Skandals,des,salziger,würden,"reichem,",wurden,noch,die,künftigem,den,hat,immer,elektrischer,Skandal,einem,liegen,Störenfriede,serviert.,350,leider,auf,die,des,350,salzige,purem,Auto,Trinkwasser.,leider,einem,einen,sauberen,was,Trinkwassers.,klassischen,geschleudert.,Lärm,ungefähr,zusätzlichem,der,gelegentlichen,Tiere,im,seltenem,feinem,Glas,deren,Lärm,um,liegen,hätten,Wäsche.,war,mehr,roten,noch,"Zeit,",Glas,feinem,Mann,"nachgewiesen,",kaltem,sie,minimalem,frischen,täglichem,Bundespräsident.,mehr,geschleudert.,Störenfriede,"frischem,",Kram,vor,von,monatlichem,hat,die,am,Wäsche.,wurden,Wetter,eine,unzureichenden,Krams,sie,Wetters,frisches,eine,serviert.,roten,auf,im,,,,,,,,,,,,,,,,,,,,,,,12,0,12,0,0,5,5,5,,,,,,,space,0.494307041168,,,,,2017_Jan_24_1353,59.6441801368,spr_backupper,001,Di14,
,sie,"vermiest,",Schaumstoff,Energie.,Untergrund,Helmen,wiedergewählt.,Herrn,Wurst,seiner,goldenen,verschrottet.,eine,er,Einkommen,Soldaten,den,ruhig,Energie.,wiedergewählt.,Esslöffel,die,jeden.,nan,ml,nichts,jeden,Stimmung,Herrn,ml,Wurst,Alkohol,mehr,nan,nichts,Esslöffel,Besucher.,Kraftstoff,Tupperware,nan,Schmuck,nan,um,drei,schwarzem,Soldaten,Besucher.,artgerecht,Müll.,dichten,dichten,köstlicher,sie,um,die,die,seiner,nan,aus,als,Planeten,eine,um,köstlichen,Kunsteis,mehr,dass,Abduschen,defekt,täglichen,Grases,grünen,nan,als,nan,jeden.,kaltem,aus,Dezember,den,Taschengeld,den,Flut,Hauptbahnhof.,nan,verschrottet.,die,große,Helmen,aus,defekt,die,Gras,große,nan,Planet,jeden,Müll.,,,,,,,,,,,,,,,,,,,,,,,12,0,12,0,0,6,6,6,,,,,,,space,0.743113040924,,,,,2017_Jan_24_1353,59.6441801368,spr_backupper,001,Di14,
,überführt,dass,gefertigt.,nan,liegen.,zur,nan,Gantenbeins.,mit,Frau,Besatz,nan,Sammlung,trug.,haftbar.,des,Boden,diskutiert.,nan,nan,warmen,Slums.,nan,nan,warme,mitbringen.,Fall,ziemlich,Gantenbein.,warmer,mit,verdünnt.,als,nan,mitbringen.,warmem,nan,fahren.,ist.,nan,umgearbeitet.,nan,jede,Tage.,Kaffee,des,nan,gehalten.,nan,Gewebe,Stoff,Wein,überführt,jede,Probleme,Slums.,Frau,nan,Japan.,einmal,ganz,Sammlung,Nadelhölzer,Weins,eingesprüht.,als,das,gehärtet.,war.,Einsatz,zwängen.,Tee,nan,einmal,nan,nan,Saft,dem,stattfinden.,Problemen,selber,Boden,zurückgekehrt.,nan,nan,nan,Wohnung.,Menge,zur,dem,war.,Wohnung.,zwängen.,Menge,nan,ganz,Fall,nan,,,,,,,,,,,,,,,,,,,,,,,12,0,12,0,0,7,7,7,,,,,,,space,0.587711811066,,,,,2017_Jan_24_1353,59.6441801368,spr_backupper,001,Di14,
,wurden.,es,nan,nan,nan,Schule.,nan,nan,an,gepasst,rekonstruiert.,nan,dummer,nan,nan,zweiten,berührt.,nan,nan,nan,Honigs,nan,nan,nan,Milch.,nan,genug.,vermiest.,nan,Milch.,an,nan,gerne.,nan,nan,Honig,nan,nan,nan,nan,nan,nan,Menge,nan,wiederbelebt.,zweiten,nan,nan,nan,wiederhergestellt.,gefertigt.,schon,wurden.,Menge,im,nan,gepasst.,nan,nan,Rilke,deutlich.,dumme,umzusetzen.,schon,nan,gerne.,Medikament,nan,nan,sinken.,nan,wieder,nan,Rilke.,nan,nan,besprochen.,Haus,nan,im,kaufen.,berührt.,nan,nan,nan,nan,nan,dunkler,Schule.,Haus,nan,nan,nan,dunkle,nan,deutlich.,genug.,nan,,,,,,,,,,,,,,,,,,,,,,,12,0,12,0,0,8,8,8,,,,,,,space,0.502890110016,,,,,2017_Jan_24_1353,59.6441801368,spr_backupper,001,Di14,
,nan,regnete.,nan,nan,nan,nan,nan,nan,den,haben.,nan,nan,Sprüche.,nan,nan,Weltkriegs.,nan,nan,nan,nan,her.,nan,nan,nan,nan,nan,nan,nan,nan,nan,den,nan,nan,nan,nan,her.,nan,nan,nan,nan,nan,nan,heißer,nan,nan,Weltkriegs.,nan,nan,nan,nan,nan,auf,nan,heiße,Landkreis.,nan,nan,nan,nan,gelesen.,nan,Sprüche.,nan,auf,nan,nan,nicht,nan,nan,nan,nan,fit.,nan,nan,nan,nan,nan,geschafft.,nan,Landkreis.,nan,nan,nan,nan,nan,nan,nan,Materie,nan,geschafft.,nan,nan,nan,Materie,nan,nan,nan,nan,,,,,,,,,,,,,,,,,,,,,,,12,0,12,0,0,9,9,9,,,,,,,space,0.737942218781,,,,,2017_Jan_24_1353,59.6441801368,spr_backupper,001,Di14,
,,,,,,,,,,,,,,,,,,,,,,,,,,,,,,,,,,,,,,,,,,,,,,,,,,,,,,,,,,,,,,,,,,,,,,,,,,,,,,,,,,,,,,,,,,,,,,,,,,,,,,,,,,,,,,,,,,,,,,,,,12,0,12,0,,,,,,,,,,,,,None,j,7.68736100197,,2017_Jan_24_1353,59.6441801368,spr_backupper,001,Di14,
,Es,Es,Alle,Die,Jungtiere,Die,Er,Die,Ich,Die,Das,Die,Sie,Die,Manche,Bei,Nicht,Fernab,Die,Er,Er,Am,Außer,Beträchtliche,In,Außer,100,Dass,Die,In,Ich,Die,Wir,Sie,Außer,Er,Wir,Wir,Die,Sie,Die,Es,Man,Der,Die,Bei,Wir,In,Viele,Danach,Er,Bei,Es,Man,In,Am,Die,Dort,Die,In,Im,Sie,Jetzt,Bei,Die,Wir,In,Die,Die,Ihr,Wir,Ich,Walter,In,Es,Außer,Sie,Wir,Unter,In,Jugendliche,Nicht,Als,Die,Dort,Die,Sie,Mit,Die,Wir,Die,Sie,Wir,Mit,Beträchtliche,Im,100,Viele,,,,,,,,,,,,,,,,,,,,,,,13,0,13,0,0,0,0,0,,,,,,space,space,1.98272895813,,,,0.570112943649,2017_Jan_24_1353,59.6441801368,spr_backupper,001,Di14,
,waren,hat,Betten,Schule,sollten,Kinder,wurde,Gäste,nehme,Schuhe,Tuch,Autos,hatte,Uhr,Kreditnehmer,der,ein,des,Schule,wurde,stellt,äußersten,den,Stücke,den,dem,g,es,Gäste,den,nehme,Lösung,übergaben,verbrauchen,das,stellt,hatten,konnten,Teilnehmerinnen,verbrauchen,Stücke,wurden,machte,Flug,müden,der,hatten,diesem,Tonnen,wurde,hat,unserer,waren,machte,der,äußeren,Schuhe,türmen,"Uhr,",meinem,Fernrohr,hatte,ist,unserer,Eislaufbahnen,übergaben,einer,Formen,Uhr,Blutdruck,mussten,wurde,Scheel,meinem,wurden,dem,haben,haben,keinen,der,können,ein,die,Linie,türmen,Autos,verlassen,dieser,Kinder,haben,Uhr,verlassen,mussten,dieser,Stücke,Fernrohr,g,Tonnen,,,,,,,,,,,,,,,,,,,,,,,13,0,13,0,0,1,1,1,,,,,,,space,1.12227296829,,,,,2017_Jan_24_1353,59.6441801368,spr_backupper,001,Di14,
,nur,uns,wurden,verbraucht,immer,fuhren,trotz,suchen,eine,in,wurde,beider,keine,war,sind,Feier,Tropfen,Rummels,verbraucht,trotz,die,Rand,Bürgermeister,saftiges,Kakao,Essen,braunen,"regnete,",suchen,Kakao,eine,wird,dem,60,Essen,die,in,dann,wussten,60,wurden,Eimer,mal,zum,Teilnehmer,Feier,in,Zirkus,gebrauchter,die,ein,Ankunft,nur,mal,Tat,Rand,in,sich,die,Studium,sahen,keine,genau,Ankunft,wurden,das,Studie,wurden,schlug,kann,uns,damals,war,Studium,Eimer,Bürgermeister,die,jede,Umständen,Tat,Kleidung,Tropfen,Sonne,101,sich,beider,wegen,Methode,fuhren,jede,schlug,wegen,uns,Methode,saftigen,sahen,brauner,gebrauchte,,,,,,,,,,,,,,,,,,,,,,,13,0,13,0,0,2,2,2,,,,,,,space,0.575374126434,,,,,2017_Jan_24_1353,59.6441801368,spr_backupper,001,Di14,
,kleinere,die,mit,260.000,auf,mit,des,die,große,Größe,dann,beteiligten,Lust,aus,mit,gedachte,königliches,wurde,260.000,dem,Masse,der,beschuldigten,Fleisch,gehören,kann,Zuckers,hat,die,gehören,große,mit,Mann,Liter,kann,Masse,Dänemark,mit,überwiegend,Liter,aus,roter,wieder,Mond,wurden,gedachte,Dänemark,werden,Kleidung,Leinwand,Hemd,stand,kleinere,wieder,wissen,der,Größe,Berge,er,habe,wir,Lust,die,stand,mit,Auto,wurde,unter,"sporadisch,",schon,durch,schnell,der,las,rote,beschuldigten,Erlebnisse,Menge,können,wissen,bei,königlichen,"unterging,",hält,Berge,beteiligter,dem,kann,mit,Menge,"sporadisch,",des,durch,kann,Fleischs,wir,Zucker,Kleidung,,,,,,,,,,,,,,,,,,,,,,,13,0,13,0,0,3,3,3,,,,,,,space,0.470566987991,,,,,2017_Jan_24_1353,59.6441801368,spr_backupper,001,Di14,
,"Delikte,",Stimmung,"üblichem,",Kilowattstunden,warmem,solchen,bekannten,Wohnung,Packung,36,mit,Fahrer,auf,"Japan,","sämtlichem,",man,Blut,schon,Kilowattstunden,bekannten,mit,Stadt,die,wurden,immer,ich,sind,uns,Wohnung,immer,Packung,"reichlichem,",das,sprudelndes,ich,mit,gelegentlich,"minimalem,","nicht,",sprudelnden,"wertvollem,",Farbe,viel,dauerte,mit,man,einen,die,landen,aus,aus,ein,"Delikte,",viel,wir,Stadt,36,schmutziger,"trug,",ich,den,auf,richtige,ein,dauerhaftem,dem,jetzt,"regelmäßigem,",obschon,bei,Büschel,dank,vierte,ich,Farbe,die,bei,alten,Neuwahlen,wir,ausreichendem,Bluts,war,nicht,schmutzige,Fahrer,schönen,man,solch,alten,obwohl,schönen,Büschel,man,wurden,den,sind,landen,,,,,,,,,,,,,,,,,,,,,,,13,0,13,0,0,4,4,4,,,,,,,space,0.508017063141,,,,,2017_Jan_24_1353,59.6441801368,spr_backupper,001,Di14,
,derer,ziemlich,harten,elektrische,weichem,unzureichenden,Skandals,des,salziger,würden,"reichem,",wurden,noch,die,künftigem,den,hat,immer,elektrischer,Skandal,einem,liegen,Störenfriede,serviert.,350,leider,auf,die,des,350,salzige,purem,Auto,Trinkwasser.,leider,einem,einen,sauberen,was,Trinkwassers.,klassischen,geschleudert.,Lärm,ungefähr,zusätzlichem,der,gelegentlichen,Tiere,im,seltenem,feinem,Glas,deren,Lärm,um,liegen,hätten,Wäsche.,war,mehr,roten,noch,"Zeit,",Glas,feinem,Mann,"nachgewiesen,",kaltem,sie,minimalem,frischen,täglichem,Bundespräsident.,mehr,geschleudert.,Störenfriede,"frischem,",Kram,vor,von,monatlichem,hat,die,am,Wäsche.,wurden,Wetter,eine,unzureichenden,Krams,sie,Wetters,frisches,eine,serviert.,roten,auf,im,,,,,,,,,,,,,,,,,,,,,,,13,0,13,0,0,5,5,5,,,,,,,space,0.568125009537,,,,,2017_Jan_24_1353,59.6441801368,spr_backupper,001,Di14,
,sie,"vermiest,",Schaumstoff,Energie.,Untergrund,Helmen,wiedergewählt.,Herrn,Wurst,seiner,goldenen,verschrottet.,eine,er,Einkommen,Soldaten,den,ruhig,Energie.,wiedergewählt.,Esslöffel,die,jeden.,nan,ml,nichts,jeden,Stimmung,Herrn,ml,Wurst,Alkohol,mehr,nan,nichts,Esslöffel,Besucher.,Kraftstoff,Tupperware,nan,Schmuck,nan,um,drei,schwarzem,Soldaten,Besucher.,artgerecht,Müll.,dichten,dichten,köstlicher,sie,um,die,die,seiner,nan,aus,als,Planeten,eine,um,köstlichen,Kunsteis,mehr,dass,Abduschen,defekt,täglichen,Grases,grünen,nan,als,nan,jeden.,kaltem,aus,Dezember,den,Taschengeld,den,Flut,Hauptbahnhof.,nan,verschrottet.,die,große,Helmen,aus,defekt,die,Gras,große,nan,Planet,jeden,Müll.,,,,,,,,,,,,,,,,,,,,,,,13,0,13,0,0,6,6,6,,,,,,,space,0.537091970444,,,,,2017_Jan_24_1353,59.6441801368,spr_backupper,001,Di14,
,überführt,dass,gefertigt.,nan,liegen.,zur,nan,Gantenbeins.,mit,Frau,Besatz,nan,Sammlung,trug.,haftbar.,des,Boden,diskutiert.,nan,nan,warmen,Slums.,nan,nan,warme,mitbringen.,Fall,ziemlich,Gantenbein.,warmer,mit,verdünnt.,als,nan,mitbringen.,warmem,nan,fahren.,ist.,nan,umgearbeitet.,nan,jede,Tage.,Kaffee,des,nan,gehalten.,nan,Gewebe,Stoff,Wein,überführt,jede,Probleme,Slums.,Frau,nan,Japan.,einmal,ganz,Sammlung,Nadelhölzer,Weins,eingesprüht.,als,das,gehärtet.,war.,Einsatz,zwängen.,Tee,nan,einmal,nan,nan,Saft,dem,stattfinden.,Problemen,selber,Boden,zurückgekehrt.,nan,nan,nan,Wohnung.,Menge,zur,dem,war.,Wohnung.,zwängen.,Menge,nan,ganz,Fall,nan,,,,,,,,,,,,,,,,,,,,,,,13,0,13,0,0,7,7,7,,,,,,,space,1.79461693764,,,,,2017_Jan_24_1353,59.6441801368,spr_backupper,001,Di14,
,,,,,,,,,,,,,,,,,,,,,,,,,,,,,,,,,,,,,,,,,,,,,,,,,,,,,,,,,,,,,,,,,,,,,,,,,,,,,,,,,,,,,,,,,,,,,,,,,,,,,,,,,,,,,,,,,,,,,,,,,13,0,13,0,,,,,,,,,,,,,None,n,1.61616706848,,2017_Jan_24_1353,59.6441801368,spr_backupper,001,Di14,
,Es,Es,Alle,Die,Jungtiere,Die,Er,Die,Ich,Die,Das,Die,Sie,Die,Manche,Bei,Nicht,Fernab,Die,Er,Er,Am,Außer,Beträchtliche,In,Außer,100,Dass,Die,In,Ich,Die,Wir,Sie,Außer,Er,Wir,Wir,Die,Sie,Die,Es,Man,Der,Die,Bei,Wir,In,Viele,Danach,Er,Bei,Es,Man,In,Am,Die,Dort,Die,In,Im,Sie,Jetzt,Bei,Die,Wir,In,Die,Die,Ihr,Wir,Ich,Walter,In,Es,Außer,Sie,Wir,Unter,In,Jugendliche,Nicht,Als,Die,Dort,Die,Sie,Mit,Die,Wir,Die,Sie,Wir,Mit,Beträchtliche,Im,100,Viele,,,,,,,,,,,,,,,,,,,,,,,14,0,14,0,0,0,0,0,,,,,,None,space,0.507107019424,,,,,2017_Jan_24_1353,59.6441801368,spr_backupper,001,Di14,
,waren,hat,Betten,Schule,sollten,Kinder,wurde,Gäste,nehme,Schuhe,Tuch,Autos,hatte,Uhr,Kreditnehmer,der,ein,des,Schule,wurde,stellt,äußersten,den,Stücke,den,dem,g,es,Gäste,den,nehme,Lösung,übergaben,verbrauchen,das,stellt,hatten,konnten,Teilnehmerinnen,verbrauchen,Stücke,wurden,machte,Flug,müden,der,hatten,diesem,Tonnen,wurde,hat,unserer,waren,machte,der,äußeren,Schuhe,türmen,"Uhr,",meinem,Fernrohr,hatte,ist,unserer,Eislaufbahnen,übergaben,einer,Formen,Uhr,Blutdruck,mussten,wurde,Scheel,meinem,wurden,dem,haben,haben,keinen,der,können,ein,die,Linie,türmen,Autos,verlassen,dieser,Kinder,haben,Uhr,verlassen,mussten,dieser,Stücke,Fernrohr,g,Tonnen,,,,,,,,,,,,,,,,,,,,,,,14,0,14,0,0,1,1,1,,,,,,,space,0.526741981506,,,,,2017_Jan_24_1353,59.6441801368,spr_backupper,001,Di14,
