text,sent48,sent9,sent8,sent15,sent3,sent2,sent1,sent14,sent7,sent6,sent5,sent4,sent57,sent56,sent55,sent54,sent53,sent52,sent51,sent50,sent13,sent12,sent11,sent10,sent17,sent16,sent59,sent58,sent93,sent92,sent91,sent90,sent97,sent96,sent95,sent94,sent98,sent22,sent23,sent20,sent21,sent26,sent27,sent24,sent25,sent28,sent29,sent68,sent69,sent66,sent67,sent64,sent65,sent62,sent63,sent60,sent61,sent31,sent30,sent33,sent32,sent35,sent34,sent37,sent36,sent39,sent38,sent79,sent78,sent75,sent74,sent77,sent76,sent71,sent70,sent73,sent72,sent19,sent49,sent18,sent44,sent45,sent84,sent85,sent86,sent87,sent80,sent81,sent82,sent83,sent40,sent41,sent42,sent43,sent88,sent89,sent46,sent47,intros.thisRepN,intros.thisTrialN,intros.thisN,intros.thisIndex,trials.thisRepN,trials.thisTrialN,trials.thisN,trials.thisIndex,testWords.thisRepN,testWords.thisTrialN,testWords.thisN,testWords.thisIndex,test1,test3,test2,test5,test4,test7,test6,test9,test8,test10,realTrials.thisRepN,realTrials.thisTrialN,realTrials.thisN,realTrials.thisIndex,words.thisRepN,words.thisTrialN,words.thisN,words.thisIndex,key_resp_3.keys,key_resp_3.rt,key_resp_8.keys,key_resp_8.rt,key_resp_10.keys,key_resp_10.rt,key_resp_6.keys,wordRead.keys,wordRead.rt,key_resp_5.keys,questAnswer.keys,questAnswer.rt,key_resp_6.rt,key_resp_5.rt,date,frameRate,expName,session,participant,
"Vielen Dank, dass Sie an diesem Experiment teilnehmen. Vor dem eigentlichen Experiment sehen Sie nun zuerst eine kurze Erläuterung, und Sie absolvieren ein kurze Übungsphase.

Das Experiment dauert insgesamt nicht mehr als 45 Minuten.",,,,,,,,,,,,,,,,,,,,,,,,,,,,,,,,,,,,,,,,,,,,,,,,,,,,,,,,,,,,,,,,,,,,,,,,,,,,,,,,,,,,,,,,,,,,,,,,,,,0,0,0,0,,,,,,,,,,,,,,,,,,,,,,,,,,,,,,,,,,,,,,,,,2017_Jan_31_1209,60.416025075,spr_backupper,001,Di15,
"In diesem Experiment lesen Sie deutsche Sätze, indem Sie sich von Wort zu Wort mit der Leertaste durch den Satz klicken.",,,,,,,,,,,,,,,,,,,,,,,,,,,,,,,,,,,,,,,,,,,,,,,,,,,,,,,,,,,,,,,,,,,,,,,,,,,,,,,,,,,,,,,,,,,,,,,,,,,0,1,1,1,,,,,,,,,,,,,,,,,,,,,,,,,,,,,,,,,,,,,,,,,2017_Jan_31_1209,60.416025075,spr_backupper,001,Di15,
"Sie sehen dabei immer nur das aktuelle Wort. Die Lesegeschwindigkeit bestimmen Sie vollständig selber. Vor jedem Satz sehen Sie in der Bildschirmmitte für zwei Sekunden ein + an der Stelle, an der dann die Wörter erscheinen.",,,,,,,,,,,,,,,,,,,,,,,,,,,,,,,,,,,,,,,,,,,,,,,,,,,,,,,,,,,,,,,,,,,,,,,,,,,,,,,,,,,,,,,,,,,,,,,,,,,0,2,2,2,,,,,,,,,,,,,,,,,,,,,,,,,,,,,,,,,,,,,,,,,2017_Jan_31_1209,60.416025075,spr_backupper,001,Di15,
"Nach jedem Satz wird Ihnen eine Ja/Nein-Verständnisfrage zum zuvor gelesenen Satz gestellt, die Sie mit der J-Taste für "Ja" und der N-Taste für "Nein" beantworten. Antworten Sie möglichst spontan und ohne lange Nachzudenken.",,,,,,,,,,,,,,,,,,,,,,,,,,,,,,,,,,,,,,,,,,,,,,,,,,,,,,,,,,,,,,,,,,,,,,,,,,,,,,,,,,,,,,,,,,,,,,,,,,,0,3,3,3,,,,,,,,,,,,,,,,,,,,,,,,,,,,,,,,,,,,,,,,,2017_Jan_31_1209,60.416025075,spr_backupper,001,Di15,
"Unterbrechen Sie das Experiment bitte auf keinen Fall, stellen Sie den ExperimentatorInnen nach dem Experimentbeginn keine Fragen, und lassen Sie sich nicht durch Umgebungsgeräusche ablenken.",,,,,,,,,,,,,,,,,,,,,,,,,,,,,,,,,,,,,,,,,,,,,,,,,,,,,,,,,,,,,,,,,,,,,,,,,,,,,,,,,,,,,,,,,,,,,,,,,,,0,4,4,4,,,,,,,,,,,,,,,,,,,,,,,,,,,,,,,,,,,,,,,,,2017_Jan_31_1209,60.416025075,spr_backupper,001,Di15,
"Im nächsten Schritt beantworten Sie bitte eine Frage zu Ihren Deutschkenntnissen. Danach beginnt eine Übungseinheit, mit der Sie sich an die Art der Durchführung dieses Experiments gewöhnen können.",,,,,,,,,,,,,,,,,,,,,,,,,,,,,,,,,,,,,,,,,,,,,,,,,,,,,,,,,,,,,,,,,,,,,,,,,,,,,,,,,,,,,,,,,,,,,,,,,,,0,5,5,5,,,,,,,,,,,,,,,,,,,,,,,,,,,,,,,,,,,,,,,,,2017_Jan_31_1209,60.416025075,spr_backupper,001,Di15,
,,,,,,,,,,,,,,,,,,,,,,,,,,,,,,,,,,,,,,,,,,,,,,,,,,,,,,,,,,,,,,,,,,,,,,,,,,,,,,,,,,,,,,,,,,,,,,,,,,,,,,,,,,,,,,,,,,,,,,,,,,,,,,,,,j,7.93324613571,,,,,,,,,,,,,2017_Jan_31_1209,60.416025075,spr_backupper,001,Di15,
,,,,,,,,,,,,,,,,,,,,,,,,,,,,,,,,,,,,,,,,,,,,,,,,,,,,,,,,,,,,,,,,,,,,,,,,,,,,,,,,,,,,,,,,,,,,,,,,,,,,,,,0,0,0,0,,,,,,,,,,,,,,,,,,,,,,,,,None,,,,,,,,,,,,2017_Jan_31_1209,60.416025075,spr_backupper,001,Di15,
,,,,,,,,,,,,,,,,,,,,,,,,,,,,,,,,,,,,,,,,,,,,,,,,,,,,,,,,,,,,,,,,,,,,,,,,,,,,,,,,,,,,,,,,,,,,,,,,,,,,,,,1,0,1,0,,,,,,,,,,,,,,,,,,,,,,,,,space,0.653659105301,,,,,,,,,,,2017_Jan_31_1209,60.416025075,spr_backupper,001,Di15,
,,,,,,,,,,,,,,,,,,,,,,,,,,,,,,,,,,,,,,,,,,,,,,,,,,,,,,,,,,,,,,,,,,,,,,,,,,,,,,,,,,,,,,,,,,,,,,,,,,,,,,,2,0,2,0,,,,,,,,,,,,,,,,,,,,,,,,,None,,,,,,,,,,,,2017_Jan_31_1209,60.416025075,spr_backupper,001,Di15,
,,,,,,,,,,,,,,,,,,,,,,,,,,,,,,,,,,,,,,,,,,,,,,,,,,,,,,,,,,,,,,,,,,,,,,,,,,,,,,,,,,,,,,,,,,,,,,,,,,,,,,,3,0,3,0,,,,,,,,,,,,,,,,,,,,,,,,,None,,,,,,,,,,,,2017_Jan_31_1209,60.416025075,spr_backupper,001,Di15,
,,,,,,,,,,,,,,,,,,,,,,,,,,,,,,,,,,,,,,,,,,,,,,,,,,,,,,,,,,,,,,,,,,,,,,,,,,,,,,,,,,,,,,,,,,,,,,,,,,,,,,,4,0,4,0,,,,,,,,,,,,,,,,,,,,,,,,,None,,,,,,,,,,,,2017_Jan_31_1209,60.416025075,spr_backupper,001,Di15,
,,,,,,,,,,,,,,,,,,,,,,,,,,,,,,,,,,,,,,,,,,,,,,,,,,,,,,,,,,,,,,,,,,,,,,,,,,,,,,,,,,,,,,,,,,,,,,,,,,,,,,,5,0,5,0,,,,,,,,,,,,,,,,,,,,,,,,,None,,,,,,,,,,,,2017_Jan_31_1209,60.416025075,spr_backupper,001,Di15,
,,,,,,,,,,,,,,,,,,,,,,,,,,,,,,,,,,,,,,,,,,,,,,,,,,,,,,,,,,,,,,,,,,,,,,,,,,,,,,,,,,,,,,,,,,,,,,,,,,,,,,,6,0,6,0,,,,,,,,,,,,,,,,,,,,,,,,,None,,,,,,,,,,,,2017_Jan_31_1209,60.416025075,spr_backupper,001,Di15,
,,,,,,,,,,,,,,,,,,,,,,,,,,,,,,,,,,,,,,,,,,,,,,,,,,,,,,,,,,,,,,,,,,,,,,,,,,,,,,,,,,,,,,,,,,,,,,,,,,,,,,,7,0,7,0,,,,,,,,,,,,,,,,,,,,,,,,,None,,,,,,,,,,,,2017_Jan_31_1209,60.416025075,spr_backupper,001,Di15,
,,,,,,,,,,,,,,,,,,,,,,,,,,,,,,,,,,,,,,,,,,,,,,,,,,,,,,,,,,,,,,,,,,,,,,,,,,,,,,,,,,,,,,,,,,,,,,,,,,,,,,,8,0,8,0,,,,,,,,,,,,,,,,,,,,,,,,,None,,,,,,,,,,,,2017_Jan_31_1209,60.416025075,spr_backupper,001,Di15,
,,,,,,,,,,,,,,,,,,,,,,,,,,,,,,,,,,,,,,,,,,,,,,,,,,,,,,,,,,,,,,,,,,,,,,,,,,,,,,,,,,,,,,,,,,,,,,,,,,,,,,,9,0,9,0,,,,,,,,,,,,,,,,,,,,,,,,,None,,,,,,,,,,,,2017_Jan_31_1209,60.416025075,spr_backupper,001,Di15,
,,,,,,,,,,,,,,,,,,,,,,,,,,,,,,,,,,,,,,,,,,,,,,,,,,,,,,,,,,,,,,,,,,,,,,,,,,,,,,,,,,,,,,,,,,,,,,,,,,,,,,,,,,,,,,,,,,,,,,,,,,,,,,,,,,,,,space,4.04241800308,,,,,,,,,2017_Jan_31_1209,60.416025075,spr_backupper,001,Di15,
,Die,Bei,Als,Danach,Er,Im,Sie,Die,Am,Sie,Beträchtliche,Viele,Dort,Beträchtliche,Wir,Bei,In,Die,Die,Er,100,Die,Sie,Ihr,Bei,Wir,Wir,Die,Bei,Man,Am,Ich,Wir,Alle,In,Sie,Das,Die,In,Fernab,Ich,Ich,Die,Wir,Dass,Es,In,Die,Es,Nicht,Sie,Der,Wir,Es,Die,Wir,Die,Wir,Walter,Außer,Die,Er,Es,Dort,Die,In,In,Sie,Es,Die,Viele,In,In,Die,Die,100,Im,Außer,Die,Sie,Er,Die,Er,Außer,Mit,Die,Außer,Die,Unter,Jungtiere,Mit,Man,Manche,Die,Jugendliche,Jetzt,Wir,Nicht,,,,,,,,,,,,,,,,,,,,,,,0,0,0,0,0,0,0,0,,,,,,,None,space,0.454416036606,,,,,,2017_Jan_31_1209,60.416025075,spr_backupper,001,Di15,
,Autos,unserer,die,wurde,hat,Fernrohr,verlassen,Linie,äußeren,hatte,Stücke,Tonnen,türmen,Stücke,haben,der,meinem,"Uhr,",Schuhe,wurde,g,Gäste,haben,Blutdruck,der,haben,mussten,Uhr,unserer,machte,äußersten,nehme,konnten,Betten,den,verbrauchen,Tuch,Lösung,den,des,wurde,nehme,Formen,übergaben,es,waren,der,Eislaufbahnen,waren,ein,hatte,Flug,übergaben,wurden,Gäste,hatten,Schule,mussten,Scheel,dem,Uhr,wurde,wurden,türmen,Kinder,meinem,diesem,verlassen,hat,Teilnehmerinnen,Tonnen,der,einer,Autos,Stücke,g,Fernrohr,das,Schuhe,verbrauchen,stellt,Schule,stellt,dem,dieser,müden,den,Kinder,keinen,sollten,dieser,machte,Kreditnehmer,Uhr,können,ist,hatten,ein,,,,,,,,,,,,,,,,,,,,,,,0,0,0,0,0,1,1,1,,,,,,,,space,0.56051492691,,,,,,2017_Jan_31_1209,60.416025075,spr_backupper,001,Di15,
,beider,Ankunft,Sonne,die,ein,sahen,wegen,101,Rand,keine,saftigen,gebrauchter,sich,saftiges,jede,Feier,Studium,die,in,trotz,braunen,suchen,die,kann,Feier,jede,uns,schlug,Ankunft,mal,Rand,eine,dann,wurden,Kakao,60,wurde,wird,Kakao,Rummels,damals,eine,wurden,dem,"regnete,",nur,Tat,wurden,nur,Tropfen,keine,zum,das,Eimer,suchen,in,verbraucht,uns,war,Bürgermeister,schlug,trotz,Eimer,sich,fuhren,Studium,Zirkus,wegen,uns,wussten,gebrauchte,Tat,Studie,beider,wurden,brauner,sahen,Essen,in,60,die,verbraucht,die,Essen,Methode,Teilnehmer,Bürgermeister,fuhren,Umständen,immer,Methode,mal,sind,war,Kleidung,genau,in,Tropfen,,,,,,,,,,,,,,,,,,,,,,,0,0,0,0,0,2,2,2,,,,,,,,space,0.425955057144,,,,,,2017_Jan_31_1209,60.416025075,spr_backupper,001,Di15,
,beteiligter,stand,"unterging,",Leinwand,Hemd,wir,dem,hält,der,Lust,Fleischs,Kleidung,Berge,Fleisch,Menge,gedachte,habe,er,Größe,des,Zuckers,die,Erlebnisse,schon,gedachte,Menge,durch,"sporadisch,",stand,wieder,der,große,mit,mit,gehören,Liter,dann,mit,gehören,wurde,schnell,große,unter,Mann,hat,kleinere,wissen,mit,kleinere,königlichen,Lust,Mond,Auto,roter,die,Dänemark,260.000,durch,der,beschuldigten,"sporadisch,",dem,rote,Berge,mit,las,werden,des,die,überwiegend,Kleidung,wissen,wurde,beteiligten,aus,Zucker,wir,kann,Größe,Liter,Masse,260.000,Masse,kann,kann,wurden,beschuldigten,mit,können,auf,kann,wieder,mit,aus,bei,die,Dänemark,königliches,,,,,,,,,,,,,,,,,,,,,,,0,0,0,0,0,3,3,3,,,,,,,,space,0.43665599823,,,,,,2017_Jan_31_1209,60.416025075,spr_backupper,001,Di15,
,Fahrer,ein,war,aus,aus,den,schönen,nicht,Stadt,auf,wurden,landen,schmutziger,wurden,alten,man,ich,"trug,",36,bekannten,sind,Wohnung,bei,bei,man,alten,Büschel,obwohl,ein,viel,Stadt,Packung,"minimalem,","üblichem,",immer,sprudelnden,mit,"reichlichem,",immer,schon,dank,Packung,"regelmäßigem,",das,uns,"Delikte,",wir,dauerhaftem,"Delikte,",Bluts,auf,dauerte,dem,Farbe,Wohnung,einen,Kilowattstunden,Büschel,vierte,die,obschon,bekannten,Farbe,schmutzige,solch,ich,die,schönen,Stimmung,"nicht,",landen,wir,jetzt,Fahrer,"wertvollem,",sind,den,ich,36,sprudelndes,mit,Kilowattstunden,mit,ich,man,mit,die,solchen,Neuwahlen,warmem,man,viel,"sämtlichem,","Japan,",ausreichendem,richtige,gelegentlich,Blut,,,,,,,,,,,,,,,,,,,,,,,0,0,0,0,0,4,4,4,,,,,,,,space,0.453936100006,,,,,,2017_Jan_31_1209,60.416025075,spr_backupper,001,Di15,
,wurden,Glas,die,seltenem,feinem,roten,Wetter,am,liegen,noch,serviert.,im,Wäsche.,serviert.,Kram,der,mehr,war,würden,Skandals,auf,des,"frischem,",minimalem,den,Krams,frisches,sie,Glas,Lärm,liegen,salziger,sauberen,harten,350,Trinkwassers.,"reichem,",purem,350,immer,täglichem,salzige,kaltem,Auto,die,deren,um,feinem,derer,hat,noch,ungefähr,Mann,geschleudert.,des,gelegentlichen,elektrische,frischen,Bundespräsident.,Störenfriede,sie,Skandal,geschleudert.,Wäsche.,unzureichenden,mehr,Tiere,Wetters,ziemlich,was,im,von,"nachgewiesen,",wurden,klassischen,auf,roten,leider,hätten,Trinkwasser.,einem,elektrischer,einem,leider,eine,zusätzlichem,Störenfriede,unzureichenden,vor,weichem,eine,Lärm,künftigem,die,monatlichem,"Zeit,",einen,hat,,,,,,,,,,,,,,,,,,,,,,,0,0,0,0,0,5,5,5,,,,,,,,space,0.425518989563,,,,,,2017_Jan_31_1209,60.416025075,spr_backupper,001,Di15,
,verschrottet.,köstlicher,Flut,dichten,dichten,Planet,die,Hauptbahnhof.,die,eine,nan,Müll.,nan,nan,aus,Soldaten,als,aus,seiner,wiedergewählt.,jeden,Herrn,kaltem,täglichen,Soldaten,aus,Gras,defekt,köstlichen,um,die,Wurst,Kraftstoff,Schaumstoff,ml,nan,goldenen,Alkohol,ml,ruhig,grünen,Wurst,Abduschen,mehr,Stimmung,sie,die,Kunsteis,sie,den,eine,drei,mehr,nan,Herrn,Besucher.,Energie.,Grases,nan,jeden.,defekt,wiedergewählt.,nan,nan,Helmen,als,artgerecht,die,"vermiest,",Tupperware,Müll.,den,dass,verschrottet.,Schmuck,jeden,Planeten,nichts,seiner,nan,Esslöffel,Energie.,Esslöffel,nichts,große,schwarzem,jeden.,Helmen,Dezember,Untergrund,große,um,Einkommen,er,Taschengeld,um,Besucher.,den,,,,,,,,,,,,,,,,,,,,,,,0,0,0,0,0,6,6,6,,,,,,,,space,0.448377847672,,,,,,2017_Jan_31_1209,60.416025075,spr_backupper,001,Di15,
,nan,Wein,zurückgekehrt.,Gewebe,Stoff,ganz,Wohnung.,nan,Slums.,Sammlung,nan,nan,nan,nan,dem,des,einmal,Japan.,Frau,nan,Fall,Gantenbein.,Saft,Einsatz,des,dem,zwängen.,war.,Weins,jede,Slums.,mit,fahren.,gefertigt.,warme,nan,Besatz,verdünnt.,warmer,diskutiert.,Tee,mit,gehärtet.,als,ziemlich,überführt,Probleme,eingesprüht.,überführt,Boden,Sammlung,Tage.,als,nan,Gantenbeins.,nan,nan,zwängen.,nan,nan,war.,nan,nan,nan,zur,einmal,gehalten.,Wohnung.,dass,ist.,nan,Problemen,das,nan,umgearbeitet.,Fall,ganz,mitbringen.,Frau,nan,warmem,nan,warmen,mitbringen.,Menge,Kaffee,nan,zur,stattfinden.,liegen.,Menge,jede,haftbar.,trug.,selber,Nadelhölzer,nan,Boden,,,,,,,,,,,,,,,,,,,,,,,0,0,0,0,0,7,7,7,,,,,,,,space,0.653079986572,,,,,,2017_Jan_31_1209,60.416025075,spr_backupper,001,Di15,
,,,,,,,,,,,,,,,,,,,,,,,,,,,,,,,,,,,,,,,,,,,,,,,,,,,,,,,,,,,,,,,,,,,,,,,,,,,,,,,,,,,,,,,,,,,,,,,,,,,,,,,,,,,,,,,,,,,,,,,,,0,0,0,0,,,,,,,,,,,,,,None,n,2.4653339386,,,2017_Jan_31_1209,60.416025075,spr_backupper,001,Di15,
,Die,Bei,Als,Danach,Er,Im,Sie,Die,Am,Sie,Beträchtliche,Viele,Dort,Beträchtliche,Wir,Bei,In,Die,Die,Er,100,Die,Sie,Ihr,Bei,Wir,Wir,Die,Bei,Man,Am,Ich,Wir,Alle,In,Sie,Das,Die,In,Fernab,Ich,Ich,Die,Wir,Dass,Es,In,Die,Es,Nicht,Sie,Der,Wir,Es,Die,Wir,Die,Wir,Walter,Außer,Die,Er,Es,Dort,Die,In,In,Sie,Es,Die,Viele,In,In,Die,Die,100,Im,Außer,Die,Sie,Er,Die,Er,Außer,Mit,Die,Außer,Die,Unter,Jungtiere,Mit,Man,Manche,Die,Jugendliche,Jetzt,Wir,Nicht,,,,,,,,,,,,,,,,,,,,,,,1,0,1,0,0,0,0,0,,,,,,,space,space,0.626697063446,,,,0.41997385025,,2017_Jan_31_1209,60.416025075,spr_backupper,001,Di15,
,Autos,unserer,die,wurde,hat,Fernrohr,verlassen,Linie,äußeren,hatte,Stücke,Tonnen,türmen,Stücke,haben,der,meinem,"Uhr,",Schuhe,wurde,g,Gäste,haben,Blutdruck,der,haben,mussten,Uhr,unserer,machte,äußersten,nehme,konnten,Betten,den,verbrauchen,Tuch,Lösung,den,des,wurde,nehme,Formen,übergaben,es,waren,der,Eislaufbahnen,waren,ein,hatte,Flug,übergaben,wurden,Gäste,hatten,Schule,mussten,Scheel,dem,Uhr,wurde,wurden,türmen,Kinder,meinem,diesem,verlassen,hat,Teilnehmerinnen,Tonnen,der,einer,Autos,Stücke,g,Fernrohr,das,Schuhe,verbrauchen,stellt,Schule,stellt,dem,dieser,müden,den,Kinder,keinen,sollten,dieser,machte,Kreditnehmer,Uhr,können,ist,hatten,ein,,,,,,,,,,,,,,,,,,,,,,,1,0,1,0,0,1,1,1,,,,,,,,space,0.663301944733,,,,,,2017_Jan_31_1209,60.416025075,spr_backupper,001,Di15,
,beider,Ankunft,Sonne,die,ein,sahen,wegen,101,Rand,keine,saftigen,gebrauchter,sich,saftiges,jede,Feier,Studium,die,in,trotz,braunen,suchen,die,kann,Feier,jede,uns,schlug,Ankunft,mal,Rand,eine,dann,wurden,Kakao,60,wurde,wird,Kakao,Rummels,damals,eine,wurden,dem,"regnete,",nur,Tat,wurden,nur,Tropfen,keine,zum,das,Eimer,suchen,in,verbraucht,uns,war,Bürgermeister,schlug,trotz,Eimer,sich,fuhren,Studium,Zirkus,wegen,uns,wussten,gebrauchte,Tat,Studie,beider,wurden,brauner,sahen,Essen,in,60,die,verbraucht,die,Essen,Methode,Teilnehmer,Bürgermeister,fuhren,Umständen,immer,Methode,mal,sind,war,Kleidung,genau,in,Tropfen,,,,,,,,,,,,,,,,,,,,,,,1,0,1,0,0,2,2,2,,,,,,,,space,0.486987113953,,,,,,2017_Jan_31_1209,60.416025075,spr_backupper,001,Di15,
,beteiligter,stand,"unterging,",Leinwand,Hemd,wir,dem,hält,der,Lust,Fleischs,Kleidung,Berge,Fleisch,Menge,gedachte,habe,er,Größe,des,Zuckers,die,Erlebnisse,schon,gedachte,Menge,durch,"sporadisch,",stand,wieder,der,große,mit,mit,gehören,Liter,dann,mit,gehören,wurde,schnell,große,unter,Mann,hat,kleinere,wissen,mit,kleinere,königlichen,Lust,Mond,Auto,roter,die,Dänemark,260.000,durch,der,beschuldigten,"sporadisch,",dem,rote,Berge,mit,las,werden,des,die,überwiegend,Kleidung,wissen,wurde,beteiligten,aus,Zucker,wir,kann,Größe,Liter,Masse,260.000,Masse,kann,kann,wurden,beschuldigten,mit,können,auf,kann,wieder,mit,aus,bei,die,Dänemark,königliches,,,,,,,,,,,,,,,,,,,,,,,1,0,1,0,0,3,3,3,,,,,,,,space,0.534384012222,,,,,,2017_Jan_31_1209,60.416025075,spr_backupper,001,Di15,
,Fahrer,ein,war,aus,aus,den,schönen,nicht,Stadt,auf,wurden,landen,schmutziger,wurden,alten,man,ich,"trug,",36,bekannten,sind,Wohnung,bei,bei,man,alten,Büschel,obwohl,ein,viel,Stadt,Packung,"minimalem,","üblichem,",immer,sprudelnden,mit,"reichlichem,",immer,schon,dank,Packung,"regelmäßigem,",das,uns,"Delikte,",wir,dauerhaftem,"Delikte,",Bluts,auf,dauerte,dem,Farbe,Wohnung,einen,Kilowattstunden,Büschel,vierte,die,obschon,bekannten,Farbe,schmutzige,solch,ich,die,schönen,Stimmung,"nicht,",landen,wir,jetzt,Fahrer,"wertvollem,",sind,den,ich,36,sprudelndes,mit,Kilowattstunden,mit,ich,man,mit,die,solchen,Neuwahlen,warmem,man,viel,"sämtlichem,","Japan,",ausreichendem,richtige,gelegentlich,Blut,,,,,,,,,,,,,,,,,,,,,,,1,0,1,0,0,4,4,4,,,,,,,,space,0.395193099976,,,,,,2017_Jan_31_1209,60.416025075,spr_backupper,001,Di15,
,wurden,Glas,die,seltenem,feinem,roten,Wetter,am,liegen,noch,serviert.,im,Wäsche.,serviert.,Kram,der,mehr,war,würden,Skandals,auf,des,"frischem,",minimalem,den,Krams,frisches,sie,Glas,Lärm,liegen,salziger,sauberen,harten,350,Trinkwassers.,"reichem,",purem,350,immer,täglichem,salzige,kaltem,Auto,die,deren,um,feinem,derer,hat,noch,ungefähr,Mann,geschleudert.,des,gelegentlichen,elektrische,frischen,Bundespräsident.,Störenfriede,sie,Skandal,geschleudert.,Wäsche.,unzureichenden,mehr,Tiere,Wetters,ziemlich,was,im,von,"nachgewiesen,",wurden,klassischen,auf,roten,leider,hätten,Trinkwasser.,einem,elektrischer,einem,leider,eine,zusätzlichem,Störenfriede,unzureichenden,vor,weichem,eine,Lärm,künftigem,die,monatlichem,"Zeit,",einen,hat,,,,,,,,,,,,,,,,,,,,,,,1,0,1,0,0,5,5,5,,,,,,,,space,0.423961162567,,,,,,2017_Jan_31_1209,60.416025075,spr_backupper,001,Di15,
,verschrottet.,köstlicher,Flut,dichten,dichten,Planet,die,Hauptbahnhof.,die,eine,nan,Müll.,nan,nan,aus,Soldaten,als,aus,seiner,wiedergewählt.,jeden,Herrn,kaltem,täglichen,Soldaten,aus,Gras,defekt,köstlichen,um,die,Wurst,Kraftstoff,Schaumstoff,ml,nan,goldenen,Alkohol,ml,ruhig,grünen,Wurst,Abduschen,mehr,Stimmung,sie,die,Kunsteis,sie,den,eine,drei,mehr,nan,Herrn,Besucher.,Energie.,Grases,nan,jeden.,defekt,wiedergewählt.,nan,nan,Helmen,als,artgerecht,die,"vermiest,",Tupperware,Müll.,den,dass,verschrottet.,Schmuck,jeden,Planeten,nichts,seiner,nan,Esslöffel,Energie.,Esslöffel,nichts,große,schwarzem,jeden.,Helmen,Dezember,Untergrund,große,um,Einkommen,er,Taschengeld,um,Besucher.,den,,,,,,,,,,,,,,,,,,,,,,,1,0,1,0,0,6,6,6,,,,,,,,space,0.368903875351,,,,,,2017_Jan_31_1209,60.416025075,spr_backupper,001,Di15,
,nan,Wein,zurückgekehrt.,Gewebe,Stoff,ganz,Wohnung.,nan,Slums.,Sammlung,nan,nan,nan,nan,dem,des,einmal,Japan.,Frau,nan,Fall,Gantenbein.,Saft,Einsatz,des,dem,zwängen.,war.,Weins,jede,Slums.,mit,fahren.,gefertigt.,warme,nan,Besatz,verdünnt.,warmer,diskutiert.,Tee,mit,gehärtet.,als,ziemlich,überführt,Probleme,eingesprüht.,überführt,Boden,Sammlung,Tage.,als,nan,Gantenbeins.,nan,nan,zwängen.,nan,nan,war.,nan,nan,nan,zur,einmal,gehalten.,Wohnung.,dass,ist.,nan,Problemen,das,nan,umgearbeitet.,Fall,ganz,mitbringen.,Frau,nan,warmem,nan,warmen,mitbringen.,Menge,Kaffee,nan,zur,stattfinden.,liegen.,Menge,jede,haftbar.,trug.,selber,Nadelhölzer,nan,Boden,,,,,,,,,,,,,,,,,,,,,,,1,0,1,0,0,7,7,7,,,,,,,,space,0.470293998718,,,,,,2017_Jan_31_1209,60.416025075,spr_backupper,001,Di15,
,nan,schon,nan,wiederhergestellt.,gefertigt.,deutlich.,nan,nan,nan,dummer,nan,nan,nan,nan,Haus,zweiten,Rilke,nan,gepasst,nan,genug.,nan,besprochen.,sinken.,zweiten,Haus,nan,nan,schon,Menge,nan,an,nan,nan,Milch.,nan,rekonstruiert.,nan,Milch.,nan,wieder,an,nan,gerne.,vermiest.,wurden.,im,nan,wurden.,berührt.,dumme,nan,gerne.,nan,nan,nan,nan,nan,nan,nan,nan,nan,nan,nan,Schule.,Rilke.,nan,nan,es,nan,nan,im,Medikament,nan,nan,genug.,deutlich.,nan,gepasst.,nan,Honig,nan,Honigs,nan,dunkle,wiederbelebt.,nan,Schule.,nan,nan,dunkler,Menge,nan,nan,kaufen.,umzusetzen.,nan,berührt.,,,,,,,,,,,,,,,,,,,,,,,1,0,1,0,0,8,8,8,,,,,,,,space,0.571175098419,,,,,,2017_Jan_31_1209,60.416025075,spr_backupper,001,Di15,
,,,,,,,,,,,,,,,,,,,,,,,,,,,,,,,,,,,,,,,,,,,,,,,,,,,,,,,,,,,,,,,,,,,,,,,,,,,,,,,,,,,,,,,,,,,,,,,,,,,,,,,,,,,,,,,,,,,,,,,,,1,0,1,0,,,,,,,,,,,,,,None,n,1.61982584,,,2017_Jan_31_1209,60.416025075,spr_backupper,001,Di15,
,Die,Bei,Als,Danach,Er,Im,Sie,Die,Am,Sie,Beträchtliche,Viele,Dort,Beträchtliche,Wir,Bei,In,Die,Die,Er,100,Die,Sie,Ihr,Bei,Wir,Wir,Die,Bei,Man,Am,Ich,Wir,Alle,In,Sie,Das,Die,In,Fernab,Ich,Ich,Die,Wir,Dass,Es,In,Die,Es,Nicht,Sie,Der,Wir,Es,Die,Wir,Die,Wir,Walter,Außer,Die,Er,Es,Dort,Die,In,In,Sie,Es,Die,Viele,In,In,Die,Die,100,Im,Außer,Die,Sie,Er,Die,Er,Außer,Mit,Die,Außer,Die,Unter,Jungtiere,Mit,Man,Manche,Die,Jugendliche,Jetzt,Wir,Nicht,,,,,,,,,,,,,,,,,,,,,,,2,0,2,0,0,0,0,0,,,,,,,space,space,0.607218980789,,,,0.419562101364,,2017_Jan_31_1209,60.416025075,spr_backupper,001,Di15,
,Autos,unserer,die,wurde,hat,Fernrohr,verlassen,Linie,äußeren,hatte,Stücke,Tonnen,türmen,Stücke,haben,der,meinem,"Uhr,",Schuhe,wurde,g,Gäste,haben,Blutdruck,der,haben,mussten,Uhr,unserer,machte,äußersten,nehme,konnten,Betten,den,verbrauchen,Tuch,Lösung,den,des,wurde,nehme,Formen,übergaben,es,waren,der,Eislaufbahnen,waren,ein,hatte,Flug,übergaben,wurden,Gäste,hatten,Schule,mussten,Scheel,dem,Uhr,wurde,wurden,türmen,Kinder,meinem,diesem,verlassen,hat,Teilnehmerinnen,Tonnen,der,einer,Autos,Stücke,g,Fernrohr,das,Schuhe,verbrauchen,stellt,Schule,stellt,dem,dieser,müden,den,Kinder,keinen,sollten,dieser,machte,Kreditnehmer,Uhr,können,ist,hatten,ein,,,,,,,,,,,,,,,,,,,,,,,2,0,2,0,0,1,1,1,,,,,,,,space,0.436273097992,,,,,,2017_Jan_31_1209,60.416025075,spr_backupper,001,Di15,
,beider,Ankunft,Sonne,die,ein,sahen,wegen,101,Rand,keine,saftigen,gebrauchter,sich,saftiges,jede,Feier,Studium,die,in,trotz,braunen,suchen,die,kann,Feier,jede,uns,schlug,Ankunft,mal,Rand,eine,dann,wurden,Kakao,60,wurde,wird,Kakao,Rummels,damals,eine,wurden,dem,"regnete,",nur,Tat,wurden,nur,Tropfen,keine,zum,das,Eimer,suchen,in,verbraucht,uns,war,Bürgermeister,schlug,trotz,Eimer,sich,fuhren,Studium,Zirkus,wegen,uns,wussten,gebrauchte,Tat,Studie,beider,wurden,brauner,sahen,Essen,in,60,die,verbraucht,die,Essen,Methode,Teilnehmer,Bürgermeister,fuhren,Umständen,immer,Methode,mal,sind,war,Kleidung,genau,in,Tropfen,,,,,,,,,,,,,,,,,,,,,,,2,0,2,0,0,2,2,2,,,,,,,,space,0.352769851685,,,,,,2017_Jan_31_1209,60.416025075,spr_backupper,001,Di15,
,beteiligter,stand,"unterging,",Leinwand,Hemd,wir,dem,hält,der,Lust,Fleischs,Kleidung,Berge,Fleisch,Menge,gedachte,habe,er,Größe,des,Zuckers,die,Erlebnisse,schon,gedachte,Menge,durch,"sporadisch,",stand,wieder,der,große,mit,mit,gehören,Liter,dann,mit,gehören,wurde,schnell,große,unter,Mann,hat,kleinere,wissen,mit,kleinere,königlichen,Lust,Mond,Auto,roter,die,Dänemark,260.000,durch,der,beschuldigten,"sporadisch,",dem,rote,Berge,mit,las,werden,des,die,überwiegend,Kleidung,wissen,wurde,beteiligten,aus,Zucker,wir,kann,Größe,Liter,Masse,260.000,Masse,kann,kann,wurden,beschuldigten,mit,können,auf,kann,wieder,mit,aus,bei,die,Dänemark,königliches,,,,,,,,,,,,,,,,,,,,,,,2,0,2,0,0,3,3,3,,,,,,,,space,0.435851097107,,,,,,2017_Jan_31_1209,60.416025075,spr_backupper,001,Di15,
,Fahrer,ein,war,aus,aus,den,schönen,nicht,Stadt,auf,wurden,landen,schmutziger,wurden,alten,man,ich,"trug,",36,bekannten,sind,Wohnung,bei,bei,man,alten,Büschel,obwohl,ein,viel,Stadt,Packung,"minimalem,","üblichem,",immer,sprudelnden,mit,"reichlichem,",immer,schon,dank,Packung,"regelmäßigem,",das,uns,"Delikte,",wir,dauerhaftem,"Delikte,",Bluts,auf,dauerte,dem,Farbe,Wohnung,einen,Kilowattstunden,Büschel,vierte,die,obschon,bekannten,Farbe,schmutzige,solch,ich,die,schönen,Stimmung,"nicht,",landen,wir,jetzt,Fahrer,"wertvollem,",sind,den,ich,36,sprudelndes,mit,Kilowattstunden,mit,ich,man,mit,die,solchen,Neuwahlen,warmem,man,viel,"sämtlichem,","Japan,",ausreichendem,richtige,gelegentlich,Blut,,,,,,,,,,,,,,,,,,,,,,,2,0,2,0,0,4,4,4,,,,,,,,space,0.395293951035,,,,,,2017_Jan_31_1209,60.416025075,spr_backupper,001,Di15,
,wurden,Glas,die,seltenem,feinem,roten,Wetter,am,liegen,noch,serviert.,im,Wäsche.,serviert.,Kram,der,mehr,war,würden,Skandals,auf,des,"frischem,",minimalem,den,Krams,frisches,sie,Glas,Lärm,liegen,salziger,sauberen,harten,350,Trinkwassers.,"reichem,",purem,350,immer,täglichem,salzige,kaltem,Auto,die,deren,um,feinem,derer,hat,noch,ungefähr,Mann,geschleudert.,des,gelegentlichen,elektrische,frischen,Bundespräsident.,Störenfriede,sie,Skandal,geschleudert.,Wäsche.,unzureichenden,mehr,Tiere,Wetters,ziemlich,was,im,von,"nachgewiesen,",wurden,klassischen,auf,roten,leider,hätten,Trinkwasser.,einem,elektrischer,einem,leider,eine,zusätzlichem,Störenfriede,unzureichenden,vor,weichem,eine,Lärm,künftigem,die,monatlichem,"Zeit,",einen,hat,,,,,,,,,,,,,,,,,,,,,,,2,0,2,0,0,5,5,5,,,,,,,,space,0.493591070175,,,,,,2017_Jan_31_1209,60.416025075,spr_backupper,001,Di15,
,verschrottet.,köstlicher,Flut,dichten,dichten,Planet,die,Hauptbahnhof.,die,eine,nan,Müll.,nan,nan,aus,Soldaten,als,aus,seiner,wiedergewählt.,jeden,Herrn,kaltem,täglichen,Soldaten,aus,Gras,defekt,köstlichen,um,die,Wurst,Kraftstoff,Schaumstoff,ml,nan,goldenen,Alkohol,ml,ruhig,grünen,Wurst,Abduschen,mehr,Stimmung,sie,die,Kunsteis,sie,den,eine,drei,mehr,nan,Herrn,Besucher.,Energie.,Grases,nan,jeden.,defekt,wiedergewählt.,nan,nan,Helmen,als,artgerecht,die,"vermiest,",Tupperware,Müll.,den,dass,verschrottet.,Schmuck,jeden,Planeten,nichts,seiner,nan,Esslöffel,Energie.,Esslöffel,nichts,große,schwarzem,jeden.,Helmen,Dezember,Untergrund,große,um,Einkommen,er,Taschengeld,um,Besucher.,den,,,,,,,,,,,,,,,,,,,,,,,2,0,2,0,0,6,6,6,,,,,,,,space,0.603489875793,,,,,,2017_Jan_31_1209,60.416025075,spr_backupper,001,Di15,
,nan,Wein,zurückgekehrt.,Gewebe,Stoff,ganz,Wohnung.,nan,Slums.,Sammlung,nan,nan,nan,nan,dem,des,einmal,Japan.,Frau,nan,Fall,Gantenbein.,Saft,Einsatz,des,dem,zwängen.,war.,Weins,jede,Slums.,mit,fahren.,gefertigt.,warme,nan,Besatz,verdünnt.,warmer,diskutiert.,Tee,mit,gehärtet.,als,ziemlich,überführt,Probleme,eingesprüht.,überführt,Boden,Sammlung,Tage.,als,nan,Gantenbeins.,nan,nan,zwängen.,nan,nan,war.,nan,nan,nan,zur,einmal,gehalten.,Wohnung.,dass,ist.,nan,Problemen,das,nan,umgearbeitet.,Fall,ganz,mitbringen.,Frau,nan,warmem,nan,warmen,mitbringen.,Menge,Kaffee,nan,zur,stattfinden.,liegen.,Menge,jede,haftbar.,trug.,selber,Nadelhölzer,nan,Boden,,,,,,,,,,,,,,,,,,,,,,,2,0,2,0,0,7,7,7,,,,,,,,space,0.43683719635,,,,,,2017_Jan_31_1209,60.416025075,spr_backupper,001,Di15,
,nan,schon,nan,wiederhergestellt.,gefertigt.,deutlich.,nan,nan,nan,dummer,nan,nan,nan,nan,Haus,zweiten,Rilke,nan,gepasst,nan,genug.,nan,besprochen.,sinken.,zweiten,Haus,nan,nan,schon,Menge,nan,an,nan,nan,Milch.,nan,rekonstruiert.,nan,Milch.,nan,wieder,an,nan,gerne.,vermiest.,wurden.,im,nan,wurden.,berührt.,dumme,nan,gerne.,nan,nan,nan,nan,nan,nan,nan,nan,nan,nan,nan,Schule.,Rilke.,nan,nan,es,nan,nan,im,Medikament,nan,nan,genug.,deutlich.,nan,gepasst.,nan,Honig,nan,Honigs,nan,dunkle,wiederbelebt.,nan,Schule.,nan,nan,dunkler,Menge,nan,nan,kaufen.,umzusetzen.,nan,berührt.,,,,,,,,,,,,,,,,,,,,,,,2,0,2,0,0,8,8,8,,,,,,,,space,0.457778930664,,,,,,2017_Jan_31_1209,60.416025075,spr_backupper,001,Di15,
,,,,,,,,,,,,,,,,,,,,,,,,,,,,,,,,,,,,,,,,,,,,,,,,,,,,,,,,,,,,,,,,,,,,,,,,,,,,,,,,,,,,,,,,,,,,,,,,,,,,,,,,,,,,,,,,,,,,,,,,,2,0,2,0,,,,,,,,,,,,,,None,n,1.83917188644,,,2017_Jan_31_1209,60.416025075,spr_backupper,001,Di15,
,Die,Bei,Als,Danach,Er,Im,Sie,Die,Am,Sie,Beträchtliche,Viele,Dort,Beträchtliche,Wir,Bei,In,Die,Die,Er,100,Die,Sie,Ihr,Bei,Wir,Wir,Die,Bei,Man,Am,Ich,Wir,Alle,In,Sie,Das,Die,In,Fernab,Ich,Ich,Die,Wir,Dass,Es,In,Die,Es,Nicht,Sie,Der,Wir,Es,Die,Wir,Die,Wir,Walter,Außer,Die,Er,Es,Dort,Die,In,In,Sie,Es,Die,Viele,In,In,Die,Die,100,Im,Außer,Die,Sie,Er,Die,Er,Außer,Mit,Die,Außer,Die,Unter,Jungtiere,Mit,Man,Manche,Die,Jugendliche,Jetzt,Wir,Nicht,,,,,,,,,,,,,,,,,,,,,,,3,0,3,0,0,0,0,0,,,,,,,space,space,0.536422967911,,,,0.419586896896,,2017_Jan_31_1209,60.416025075,spr_backupper,001,Di15,
,Autos,unserer,die,wurde,hat,Fernrohr,verlassen,Linie,äußeren,hatte,Stücke,Tonnen,türmen,Stücke,haben,der,meinem,"Uhr,",Schuhe,wurde,g,Gäste,haben,Blutdruck,der,haben,mussten,Uhr,unserer,machte,äußersten,nehme,konnten,Betten,den,verbrauchen,Tuch,Lösung,den,des,wurde,nehme,Formen,übergaben,es,waren,der,Eislaufbahnen,waren,ein,hatte,Flug,übergaben,wurden,Gäste,hatten,Schule,mussten,Scheel,dem,Uhr,wurde,wurden,türmen,Kinder,meinem,diesem,verlassen,hat,Teilnehmerinnen,Tonnen,der,einer,Autos,Stücke,g,Fernrohr,das,Schuhe,verbrauchen,stellt,Schule,stellt,dem,dieser,müden,den,Kinder,keinen,sollten,dieser,machte,Kreditnehmer,Uhr,können,ist,hatten,ein,,,,,,,,,,,,,,,,,,,,,,,3,0,3,0,0,1,1,1,,,,,,,,space,0.508608102798,,,,,,2017_Jan_31_1209,60.416025075,spr_backupper,001,Di15,
,beider,Ankunft,Sonne,die,ein,sahen,wegen,101,Rand,keine,saftigen,gebrauchter,sich,saftiges,jede,Feier,Studium,die,in,trotz,braunen,suchen,die,kann,Feier,jede,uns,schlug,Ankunft,mal,Rand,eine,dann,wurden,Kakao,60,wurde,wird,Kakao,Rummels,damals,eine,wurden,dem,"regnete,",nur,Tat,wurden,nur,Tropfen,keine,zum,das,Eimer,suchen,in,verbraucht,uns,war,Bürgermeister,schlug,trotz,Eimer,sich,fuhren,Studium,Zirkus,wegen,uns,wussten,gebrauchte,Tat,Studie,beider,wurden,brauner,sahen,Essen,in,60,die,verbraucht,die,Essen,Methode,Teilnehmer,Bürgermeister,fuhren,Umständen,immer,Methode,mal,sind,war,Kleidung,genau,in,Tropfen,,,,,,,,,,,,,,,,,,,,,,,3,0,3,0,0,2,2,2,,,,,,,,space,0.749139070511,,,,,,2017_Jan_31_1209,60.416025075,spr_backupper,001,Di15,
,beteiligter,stand,"unterging,",Leinwand,Hemd,wir,dem,hält,der,Lust,Fleischs,Kleidung,Berge,Fleisch,Menge,gedachte,habe,er,Größe,des,Zuckers,die,Erlebnisse,schon,gedachte,Menge,durch,"sporadisch,",stand,wieder,der,große,mit,mit,gehören,Liter,dann,mit,gehören,wurde,schnell,große,unter,Mann,hat,kleinere,wissen,mit,kleinere,königlichen,Lust,Mond,Auto,roter,die,Dänemark,260.000,durch,der,beschuldigten,"sporadisch,",dem,rote,Berge,mit,las,werden,des,die,überwiegend,Kleidung,wissen,wurde,beteiligten,aus,Zucker,wir,kann,Größe,Liter,Masse,260.000,Masse,kann,kann,wurden,beschuldigten,mit,können,auf,kann,wieder,mit,aus,bei,die,Dänemark,königliches,,,,,,,,,,,,,,,,,,,,,,,3,0,3,0,0,3,3,3,,,,,,,,space,0.656768083572,,,,,,2017_Jan_31_1209,60.416025075,spr_backupper,001,Di15,
,Fahrer,ein,war,aus,aus,den,schönen,nicht,Stadt,auf,wurden,landen,schmutziger,wurden,alten,man,ich,"trug,",36,bekannten,sind,Wohnung,bei,bei,man,alten,Büschel,obwohl,ein,viel,Stadt,Packung,"minimalem,","üblichem,",immer,sprudelnden,mit,"reichlichem,",immer,schon,dank,Packung,"regelmäßigem,",das,uns,"Delikte,",wir,dauerhaftem,"Delikte,",Bluts,auf,dauerte,dem,Farbe,Wohnung,einen,Kilowattstunden,Büschel,vierte,die,obschon,bekannten,Farbe,schmutzige,solch,ich,die,schönen,Stimmung,"nicht,",landen,wir,jetzt,Fahrer,"wertvollem,",sind,den,ich,36,sprudelndes,mit,Kilowattstunden,mit,ich,man,mit,die,solchen,Neuwahlen,warmem,man,viel,"sämtlichem,","Japan,",ausreichendem,richtige,gelegentlich,Blut,,,,,,,,,,,,,,,,,,,,,,,3,0,3,0,0,4,4,4,,,,,,,,space,0.604462146759,,,,,,2017_Jan_31_1209,60.416025075,spr_backupper,001,Di15,
,wurden,Glas,die,seltenem,feinem,roten,Wetter,am,liegen,noch,serviert.,im,Wäsche.,serviert.,Kram,der,mehr,war,würden,Skandals,auf,des,"frischem,",minimalem,den,Krams,frisches,sie,Glas,Lärm,liegen,salziger,sauberen,harten,350,Trinkwassers.,"reichem,",purem,350,immer,täglichem,salzige,kaltem,Auto,die,deren,um,feinem,derer,hat,noch,ungefähr,Mann,geschleudert.,des,gelegentlichen,elektrische,frischen,Bundespräsident.,Störenfriede,sie,Skandal,geschleudert.,Wäsche.,unzureichenden,mehr,Tiere,Wetters,ziemlich,was,im,von,"nachgewiesen,",wurden,klassischen,auf,roten,leider,hätten,Trinkwasser.,einem,elektrischer,einem,leider,eine,zusätzlichem,Störenfriede,unzureichenden,vor,weichem,eine,Lärm,künftigem,die,monatlichem,"Zeit,",einen,hat,,,,,,,,,,,,,,,,,,,,,,,3,0,3,0,0,5,5,5,,,,,,,,space,0.73073887825,,,,,,2017_Jan_31_1209,60.416025075,spr_backupper,001,Di15,
,verschrottet.,köstlicher,Flut,dichten,dichten,Planet,die,Hauptbahnhof.,die,eine,nan,Müll.,nan,nan,aus,Soldaten,als,aus,seiner,wiedergewählt.,jeden,Herrn,kaltem,täglichen,Soldaten,aus,Gras,defekt,köstlichen,um,die,Wurst,Kraftstoff,Schaumstoff,ml,nan,goldenen,Alkohol,ml,ruhig,grünen,Wurst,Abduschen,mehr,Stimmung,sie,die,Kunsteis,sie,den,eine,drei,mehr,nan,Herrn,Besucher.,Energie.,Grases,nan,jeden.,defekt,wiedergewählt.,nan,nan,Helmen,als,artgerecht,die,"vermiest,",Tupperware,Müll.,den,dass,verschrottet.,Schmuck,jeden,Planeten,nichts,seiner,nan,Esslöffel,Energie.,Esslöffel,nichts,große,schwarzem,jeden.,Helmen,Dezember,Untergrund,große,um,Einkommen,er,Taschengeld,um,Besucher.,den,,,,,,,,,,,,,,,,,,,,,,,3,0,3,0,0,6,6,6,,,,,,,,space,0.669546842575,,,,,,2017_Jan_31_1209,60.416025075,spr_backupper,001,Di15,
,,,,,,,,,,,,,,,,,,,,,,,,,,,,,,,,,,,,,,,,,,,,,,,,,,,,,,,,,,,,,,,,,,,,,,,,,,,,,,,,,,,,,,,,,,,,,,,,,,,,,,,,,,,,,,,,,,,,,,,,,3,0,3,0,,,,,,,,,,,,,,None,j,5.63534092903,,,2017_Jan_31_1209,60.416025075,spr_backupper,001,Di15,
,Die,Bei,Als,Danach,Er,Im,Sie,Die,Am,Sie,Beträchtliche,Viele,Dort,Beträchtliche,Wir,Bei,In,Die,Die,Er,100,Die,Sie,Ihr,Bei,Wir,Wir,Die,Bei,Man,Am,Ich,Wir,Alle,In,Sie,Das,Die,In,Fernab,Ich,Ich,Die,Wir,Dass,Es,In,Die,Es,Nicht,Sie,Der,Wir,Es,Die,Wir,Die,Wir,Walter,Außer,Die,Er,Es,Dort,Die,In,In,Sie,Es,Die,Viele,In,In,Die,Die,100,Im,Außer,Die,Sie,Er,Die,Er,Außer,Mit,Die,Außer,Die,Unter,Jungtiere,Mit,Man,Manche,Die,Jugendliche,Jetzt,Wir,Nicht,,,,,,,,,,,,,,,,,,,,,,,4,0,4,0,0,0,0,0,,,,,,,None,space,0.939789056778,,,,,,2017_Jan_31_1209,60.416025075,spr_backupper,001,Di15,
,Autos,unserer,die,wurde,hat,Fernrohr,verlassen,Linie,äußeren,hatte,Stücke,Tonnen,türmen,Stücke,haben,der,meinem,"Uhr,",Schuhe,wurde,g,Gäste,haben,Blutdruck,der,haben,mussten,Uhr,unserer,machte,äußersten,nehme,konnten,Betten,den,verbrauchen,Tuch,Lösung,den,des,wurde,nehme,Formen,übergaben,es,waren,der,Eislaufbahnen,waren,ein,hatte,Flug,übergaben,wurden,Gäste,hatten,Schule,mussten,Scheel,dem,Uhr,wurde,wurden,türmen,Kinder,meinem,diesem,verlassen,hat,Teilnehmerinnen,Tonnen,der,einer,Autos,Stücke,g,Fernrohr,das,Schuhe,verbrauchen,stellt,Schule,stellt,dem,dieser,müden,den,Kinder,keinen,sollten,dieser,machte,Kreditnehmer,Uhr,können,ist,hatten,ein,,,,,,,,,,,,,,,,,,,,,,,4,0,4,0,0,1,1,1,,,,,,,,space,0.58393406868,,,,,,2017_Jan_31_1209,60.416025075,spr_backupper,001,Di15,
,beider,Ankunft,Sonne,die,ein,sahen,wegen,101,Rand,keine,saftigen,gebrauchter,sich,saftiges,jede,Feier,Studium,die,in,trotz,braunen,suchen,die,kann,Feier,jede,uns,schlug,Ankunft,mal,Rand,eine,dann,wurden,Kakao,60,wurde,wird,Kakao,Rummels,damals,eine,wurden,dem,"regnete,",nur,Tat,wurden,nur,Tropfen,keine,zum,das,Eimer,suchen,in,verbraucht,uns,war,Bürgermeister,schlug,trotz,Eimer,sich,fuhren,Studium,Zirkus,wegen,uns,wussten,gebrauchte,Tat,Studie,beider,wurden,brauner,sahen,Essen,in,60,die,verbraucht,die,Essen,Methode,Teilnehmer,Bürgermeister,fuhren,Umständen,immer,Methode,mal,sind,war,Kleidung,genau,in,Tropfen,,,,,,,,,,,,,,,,,,,,,,,4,0,4,0,0,2,2,2,,,,,,,,space,0.352689981461,,,,,,2017_Jan_31_1209,60.416025075,spr_backupper,001,Di15,
,beteiligter,stand,"unterging,",Leinwand,Hemd,wir,dem,hält,der,Lust,Fleischs,Kleidung,Berge,Fleisch,Menge,gedachte,habe,er,Größe,des,Zuckers,die,Erlebnisse,schon,gedachte,Menge,durch,"sporadisch,",stand,wieder,der,große,mit,mit,gehören,Liter,dann,mit,gehören,wurde,schnell,große,unter,Mann,hat,kleinere,wissen,mit,kleinere,königlichen,Lust,Mond,Auto,roter,die,Dänemark,260.000,durch,der,beschuldigten,"sporadisch,",dem,rote,Berge,mit,las,werden,des,die,überwiegend,Kleidung,wissen,wurde,beteiligten,aus,Zucker,wir,kann,Größe,Liter,Masse,260.000,Masse,kann,kann,wurden,beschuldigten,mit,können,auf,kann,wieder,mit,aus,bei,die,Dänemark,königliches,,,,,,,,,,,,,,,,,,,,,,,4,0,4,0,0,3,3,3,,,,,,,,space,0.553568124771,,,,,,2017_Jan_31_1209,60.416025075,spr_backupper,001,Di15,
,Fahrer,ein,war,aus,aus,den,schönen,nicht,Stadt,auf,wurden,landen,schmutziger,wurden,alten,man,ich,"trug,",36,bekannten,sind,Wohnung,bei,bei,man,alten,Büschel,obwohl,ein,viel,Stadt,Packung,"minimalem,","üblichem,",immer,sprudelnden,mit,"reichlichem,",immer,schon,dank,Packung,"regelmäßigem,",das,uns,"Delikte,",wir,dauerhaftem,"Delikte,",Bluts,auf,dauerte,dem,Farbe,Wohnung,einen,Kilowattstunden,Büschel,vierte,die,obschon,bekannten,Farbe,schmutzige,solch,ich,die,schönen,Stimmung,"nicht,",landen,wir,jetzt,Fahrer,"wertvollem,",sind,den,ich,36,sprudelndes,mit,Kilowattstunden,mit,ich,man,mit,die,solchen,Neuwahlen,warmem,man,viel,"sämtlichem,","Japan,",ausreichendem,richtige,gelegentlich,Blut,,,,,,,,,,,,,,,,,,,,,,,4,0,4,0,0,4,4,4,,,,,,,,space,0.385512113571,,,,,,2017_Jan_31_1209,60.416025075,spr_backupper,001,Di15,
,wurden,Glas,die,seltenem,feinem,roten,Wetter,am,liegen,noch,serviert.,im,Wäsche.,serviert.,Kram,der,mehr,war,würden,Skandals,auf,des,"frischem,",minimalem,den,Krams,frisches,sie,Glas,Lärm,liegen,salziger,sauberen,harten,350,Trinkwassers.,"reichem,",purem,350,immer,täglichem,salzige,kaltem,Auto,die,deren,um,feinem,derer,hat,noch,ungefähr,Mann,geschleudert.,des,gelegentlichen,elektrische,frischen,Bundespräsident.,Störenfriede,sie,Skandal,geschleudert.,Wäsche.,unzureichenden,mehr,Tiere,Wetters,ziemlich,was,im,von,"nachgewiesen,",wurden,klassischen,auf,roten,leider,hätten,Trinkwasser.,einem,elektrischer,einem,leider,eine,zusätzlichem,Störenfriede,unzureichenden,vor,weichem,eine,Lärm,künftigem,die,monatlichem,"Zeit,",einen,hat,,,,,,,,,,,,,,,,,,,,,,,4,0,4,0,0,5,5,5,,,,,,,,space,0.504405021667,,,,,,2017_Jan_31_1209,60.416025075,spr_backupper,001,Di15,
,,,,,,,,,,,,,,,,,,,,,,,,,,,,,,,,,,,,,,,,,,,,,,,,,,,,,,,,,,,,,,,,,,,,,,,,,,,,,,,,,,,,,,,,,,,,,,,,,,,,,,,,,,,,,,,,,,,,,,,,,4,0,4,0,,,,,,,,,,,,,,None,n,7.67926597595,,,2017_Jan_31_1209,60.416025075,spr_backupper,001,Di15,
,Die,Bei,Als,Danach,Er,Im,Sie,Die,Am,Sie,Beträchtliche,Viele,Dort,Beträchtliche,Wir,Bei,In,Die,Die,Er,100,Die,Sie,Ihr,Bei,Wir,Wir,Die,Bei,Man,Am,Ich,Wir,Alle,In,Sie,Das,Die,In,Fernab,Ich,Ich,Die,Wir,Dass,Es,In,Die,Es,Nicht,Sie,Der,Wir,Es,Die,Wir,Die,Wir,Walter,Außer,Die,Er,Es,Dort,Die,In,In,Sie,Es,Die,Viele,In,In,Die,Die,100,Im,Außer,Die,Sie,Er,Die,Er,Außer,Mit,Die,Außer,Die,Unter,Jungtiere,Mit,Man,Manche,Die,Jugendliche,Jetzt,Wir,Nicht,,,,,,,,,,,,,,,,,,,,,,,5,0,5,0,0,0,0,0,,,,,,,space,space,0.521463871002,,,,1.12453103065,,2017_Jan_31_1209,60.416025075,spr_backupper,001,Di15,
,Autos,unserer,die,wurde,hat,Fernrohr,verlassen,Linie,äußeren,hatte,Stücke,Tonnen,türmen,Stücke,haben,der,meinem,"Uhr,",Schuhe,wurde,g,Gäste,haben,Blutdruck,der,haben,mussten,Uhr,unserer,machte,äußersten,nehme,konnten,Betten,den,verbrauchen,Tuch,Lösung,den,des,wurde,nehme,Formen,übergaben,es,waren,der,Eislaufbahnen,waren,ein,hatte,Flug,übergaben,wurden,Gäste,hatten,Schule,mussten,Scheel,dem,Uhr,wurde,wurden,türmen,Kinder,meinem,diesem,verlassen,hat,Teilnehmerinnen,Tonnen,der,einer,Autos,Stücke,g,Fernrohr,das,Schuhe,verbrauchen,stellt,Schule,stellt,dem,dieser,müden,den,Kinder,keinen,sollten,dieser,machte,Kreditnehmer,Uhr,können,ist,hatten,ein,,,,,,,,,,,,,,,,,,,,,,,5,0,5,0,0,1,1,1,,,,,,,,space,0.417661190033,,,,,,2017_Jan_31_1209,60.416025075,spr_backupper,001,Di15,
,beider,Ankunft,Sonne,die,ein,sahen,wegen,101,Rand,keine,saftigen,gebrauchter,sich,saftiges,jede,Feier,Studium,die,in,trotz,braunen,suchen,die,kann,Feier,jede,uns,schlug,Ankunft,mal,Rand,eine,dann,wurden,Kakao,60,wurde,wird,Kakao,Rummels,damals,eine,wurden,dem,"regnete,",nur,Tat,wurden,nur,Tropfen,keine,zum,das,Eimer,suchen,in,verbraucht,uns,war,Bürgermeister,schlug,trotz,Eimer,sich,fuhren,Studium,Zirkus,wegen,uns,wussten,gebrauchte,Tat,Studie,beider,wurden,brauner,sahen,Essen,in,60,die,verbraucht,die,Essen,Methode,Teilnehmer,Bürgermeister,fuhren,Umständen,immer,Methode,mal,sind,war,Kleidung,genau,in,Tropfen,,,,,,,,,,,,,,,,,,,,,,,5,0,5,0,0,2,2,2,,,,,,,,space,0.504044055939,,,,,,2017_Jan_31_1209,60.416025075,spr_backupper,001,Di15,
,beteiligter,stand,"unterging,",Leinwand,Hemd,wir,dem,hält,der,Lust,Fleischs,Kleidung,Berge,Fleisch,Menge,gedachte,habe,er,Größe,des,Zuckers,die,Erlebnisse,schon,gedachte,Menge,durch,"sporadisch,",stand,wieder,der,große,mit,mit,gehören,Liter,dann,mit,gehören,wurde,schnell,große,unter,Mann,hat,kleinere,wissen,mit,kleinere,königlichen,Lust,Mond,Auto,roter,die,Dänemark,260.000,durch,der,beschuldigten,"sporadisch,",dem,rote,Berge,mit,las,werden,des,die,überwiegend,Kleidung,wissen,wurde,beteiligten,aus,Zucker,wir,kann,Größe,Liter,Masse,260.000,Masse,kann,kann,wurden,beschuldigten,mit,können,auf,kann,wieder,mit,aus,bei,die,Dänemark,königliches,,,,,,,,,,,,,,,,,,,,,,,5,0,5,0,0,3,3,3,,,,,,,,space,0.396009206772,,,,,,2017_Jan_31_1209,60.416025075,spr_backupper,001,Di15,
,Fahrer,ein,war,aus,aus,den,schönen,nicht,Stadt,auf,wurden,landen,schmutziger,wurden,alten,man,ich,"trug,",36,bekannten,sind,Wohnung,bei,bei,man,alten,Büschel,obwohl,ein,viel,Stadt,Packung,"minimalem,","üblichem,",immer,sprudelnden,mit,"reichlichem,",immer,schon,dank,Packung,"regelmäßigem,",das,uns,"Delikte,",wir,dauerhaftem,"Delikte,",Bluts,auf,dauerte,dem,Farbe,Wohnung,einen,Kilowattstunden,Büschel,vierte,die,obschon,bekannten,Farbe,schmutzige,solch,ich,die,schönen,Stimmung,"nicht,",landen,wir,jetzt,Fahrer,"wertvollem,",sind,den,ich,36,sprudelndes,mit,Kilowattstunden,mit,ich,man,mit,die,solchen,Neuwahlen,warmem,man,viel,"sämtlichem,","Japan,",ausreichendem,richtige,gelegentlich,Blut,,,,,,,,,,,,,,,,,,,,,,,5,0,5,0,0,4,4,4,,,,,,,,space,0.301753997803,,,,,,2017_Jan_31_1209,60.416025075,spr_backupper,001,Di15,
,wurden,Glas,die,seltenem,feinem,roten,Wetter,am,liegen,noch,serviert.,im,Wäsche.,serviert.,Kram,der,mehr,war,würden,Skandals,auf,des,"frischem,",minimalem,den,Krams,frisches,sie,Glas,Lärm,liegen,salziger,sauberen,harten,350,Trinkwassers.,"reichem,",purem,350,immer,täglichem,salzige,kaltem,Auto,die,deren,um,feinem,derer,hat,noch,ungefähr,Mann,geschleudert.,des,gelegentlichen,elektrische,frischen,Bundespräsident.,Störenfriede,sie,Skandal,geschleudert.,Wäsche.,unzureichenden,mehr,Tiere,Wetters,ziemlich,was,im,von,"nachgewiesen,",wurden,klassischen,auf,roten,leider,hätten,Trinkwasser.,einem,elektrischer,einem,leider,eine,zusätzlichem,Störenfriede,unzureichenden,vor,weichem,eine,Lärm,künftigem,die,monatlichem,"Zeit,",einen,hat,,,,,,,,,,,,,,,,,,,,,,,5,0,5,0,0,5,5,5,,,,,,,,space,0.38612985611,,,,,,2017_Jan_31_1209,60.416025075,spr_backupper,001,Di15,
,verschrottet.,köstlicher,Flut,dichten,dichten,Planet,die,Hauptbahnhof.,die,eine,nan,Müll.,nan,nan,aus,Soldaten,als,aus,seiner,wiedergewählt.,jeden,Herrn,kaltem,täglichen,Soldaten,aus,Gras,defekt,köstlichen,um,die,Wurst,Kraftstoff,Schaumstoff,ml,nan,goldenen,Alkohol,ml,ruhig,grünen,Wurst,Abduschen,mehr,Stimmung,sie,die,Kunsteis,sie,den,eine,drei,mehr,nan,Herrn,Besucher.,Energie.,Grases,nan,jeden.,defekt,wiedergewählt.,nan,nan,Helmen,als,artgerecht,die,"vermiest,",Tupperware,Müll.,den,dass,verschrottet.,Schmuck,jeden,Planeten,nichts,seiner,nan,Esslöffel,Energie.,Esslöffel,nichts,große,schwarzem,jeden.,Helmen,Dezember,Untergrund,große,um,Einkommen,er,Taschengeld,um,Besucher.,den,,,,,,,,,,,,,,,,,,,,,,,5,0,5,0,0,6,6,6,,,,,,,,space,0.412558794022,,,,,,2017_Jan_31_1209,60.416025075,spr_backupper,001,Di15,
,nan,Wein,zurückgekehrt.,Gewebe,Stoff,ganz,Wohnung.,nan,Slums.,Sammlung,nan,nan,nan,nan,dem,des,einmal,Japan.,Frau,nan,Fall,Gantenbein.,Saft,Einsatz,des,dem,zwängen.,war.,Weins,jede,Slums.,mit,fahren.,gefertigt.,warme,nan,Besatz,verdünnt.,warmer,diskutiert.,Tee,mit,gehärtet.,als,ziemlich,überführt,Probleme,eingesprüht.,überführt,Boden,Sammlung,Tage.,als,nan,Gantenbeins.,nan,nan,zwängen.,nan,nan,war.,nan,nan,nan,zur,einmal,gehalten.,Wohnung.,dass,ist.,nan,Problemen,das,nan,umgearbeitet.,Fall,ganz,mitbringen.,Frau,nan,warmem,nan,warmen,mitbringen.,Menge,Kaffee,nan,zur,stattfinden.,liegen.,Menge,jede,haftbar.,trug.,selber,Nadelhölzer,nan,Boden,,,,,,,,,,,,,,,,,,,,,,,5,0,5,0,0,7,7,7,,,,,,,,space,0.459079027176,,,,,,2017_Jan_31_1209,60.416025075,spr_backupper,001,Di15,
,nan,schon,nan,wiederhergestellt.,gefertigt.,deutlich.,nan,nan,nan,dummer,nan,nan,nan,nan,Haus,zweiten,Rilke,nan,gepasst,nan,genug.,nan,besprochen.,sinken.,zweiten,Haus,nan,nan,schon,Menge,nan,an,nan,nan,Milch.,nan,rekonstruiert.,nan,Milch.,nan,wieder,an,nan,gerne.,vermiest.,wurden.,im,nan,wurden.,berührt.,dumme,nan,gerne.,nan,nan,nan,nan,nan,nan,nan,nan,nan,nan,nan,Schule.,Rilke.,nan,nan,es,nan,nan,im,Medikament,nan,nan,genug.,deutlich.,nan,gepasst.,nan,Honig,nan,Honigs,nan,dunkle,wiederbelebt.,nan,Schule.,nan,nan,dunkler,Menge,nan,nan,kaufen.,umzusetzen.,nan,berührt.,,,,,,,,,,,,,,,,,,,,,,,5,0,5,0,0,8,8,8,,,,,,,,space,0.369064092636,,,,,,2017_Jan_31_1209,60.416025075,spr_backupper,001,Di15,
,nan,auf,nan,nan,nan,nan,nan,nan,nan,Sprüche.,nan,nan,nan,nan,geschafft.,Weltkriegs.,gelesen.,nan,haben.,nan,nan,nan,nan,nan,Weltkriegs.,geschafft.,nan,nan,auf,heißer,nan,den,nan,nan,nan,nan,nan,nan,nan,nan,fit.,den,nan,nan,nan,nan,Landkreis.,nan,nan,nan,Sprüche.,nan,nan,nan,nan,nan,nan,nan,nan,nan,nan,nan,nan,nan,nan,nan,nan,nan,regnete.,nan,nan,Landkreis.,nicht,nan,nan,nan,nan,nan,nan,nan,her.,nan,her.,nan,Materie,nan,nan,nan,nan,nan,Materie,heiße,nan,nan,nan,nan,nan,nan,,,,,,,,,,,,,,,,,,,,,,,5,0,5,0,0,9,9,9,,,,,,,,space,0.38577914238,,,,,,2017_Jan_31_1209,60.416025075,spr_backupper,001,Di15,
,,,,,,,,,,,,,,,,,,,,,,,,,,,,,,,,,,,,,,,,,,,,,,,,,,,,,,,,,,,,,,,,,,,,,,,,,,,,,,,,,,,,,,,,,,,,,,,,,,,,,,,,,,,,,,,,,,,,,,,,,5,0,5,0,,,,,,,,,,,,,,None,n,2.11807799339,,,2017_Jan_31_1209,60.416025075,spr_backupper,001,Di15,
,Die,Bei,Als,Danach,Er,Im,Sie,Die,Am,Sie,Beträchtliche,Viele,Dort,Beträchtliche,Wir,Bei,In,Die,Die,Er,100,Die,Sie,Ihr,Bei,Wir,Wir,Die,Bei,Man,Am,Ich,Wir,Alle,In,Sie,Das,Die,In,Fernab,Ich,Ich,Die,Wir,Dass,Es,In,Die,Es,Nicht,Sie,Der,Wir,Es,Die,Wir,Die,Wir,Walter,Außer,Die,Er,Es,Dort,Die,In,In,Sie,Es,Die,Viele,In,In,Die,Die,100,Im,Außer,Die,Sie,Er,Die,Er,Außer,Mit,Die,Außer,Die,Unter,Jungtiere,Mit,Man,Manche,Die,Jugendliche,Jetzt,Wir,Nicht,,,,,,,,,,,,,,,,,,,,,,,6,0,6,0,0,0,0,0,,,,,,,space,space,0.387408018112,,,,0.571380138397,,2017_Jan_31_1209,60.416025075,spr_backupper,001,Di15,
,Autos,unserer,die,wurde,hat,Fernrohr,verlassen,Linie,äußeren,hatte,Stücke,Tonnen,türmen,Stücke,haben,der,meinem,"Uhr,",Schuhe,wurde,g,Gäste,haben,Blutdruck,der,haben,mussten,Uhr,unserer,machte,äußersten,nehme,konnten,Betten,den,verbrauchen,Tuch,Lösung,den,des,wurde,nehme,Formen,übergaben,es,waren,der,Eislaufbahnen,waren,ein,hatte,Flug,übergaben,wurden,Gäste,hatten,Schule,mussten,Scheel,dem,Uhr,wurde,wurden,türmen,Kinder,meinem,diesem,verlassen,hat,Teilnehmerinnen,Tonnen,der,einer,Autos,Stücke,g,Fernrohr,das,Schuhe,verbrauchen,stellt,Schule,stellt,dem,dieser,müden,den,Kinder,keinen,sollten,dieser,machte,Kreditnehmer,Uhr,können,ist,hatten,ein,,,,,,,,,,,,,,,,,,,,,,,6,0,6,0,0,1,1,1,,,,,,,,space,0.44290304184,,,,,,2017_Jan_31_1209,60.416025075,spr_backupper,001,Di15,
,beider,Ankunft,Sonne,die,ein,sahen,wegen,101,Rand,keine,saftigen,gebrauchter,sich,saftiges,jede,Feier,Studium,die,in,trotz,braunen,suchen,die,kann,Feier,jede,uns,schlug,Ankunft,mal,Rand,eine,dann,wurden,Kakao,60,wurde,wird,Kakao,Rummels,damals,eine,wurden,dem,"regnete,",nur,Tat,wurden,nur,Tropfen,keine,zum,das,Eimer,suchen,in,verbraucht,uns,war,Bürgermeister,schlug,trotz,Eimer,sich,fuhren,Studium,Zirkus,wegen,uns,wussten,gebrauchte,Tat,Studie,beider,wurden,brauner,sahen,Essen,in,60,die,verbraucht,die,Essen,Methode,Teilnehmer,Bürgermeister,fuhren,Umständen,immer,Methode,mal,sind,war,Kleidung,genau,in,Tropfen,,,,,,,,,,,,,,,,,,,,,,,6,0,6,0,0,2,2,2,,,,,,,,space,0.353141784668,,,,,,2017_Jan_31_1209,60.416025075,spr_backupper,001,Di15,
,beteiligter,stand,"unterging,",Leinwand,Hemd,wir,dem,hält,der,Lust,Fleischs,Kleidung,Berge,Fleisch,Menge,gedachte,habe,er,Größe,des,Zuckers,die,Erlebnisse,schon,gedachte,Menge,durch,"sporadisch,",stand,wieder,der,große,mit,mit,gehören,Liter,dann,mit,gehören,wurde,schnell,große,unter,Mann,hat,kleinere,wissen,mit,kleinere,königlichen,Lust,Mond,Auto,roter,die,Dänemark,260.000,durch,der,beschuldigten,"sporadisch,",dem,rote,Berge,mit,las,werden,des,die,überwiegend,Kleidung,wissen,wurde,beteiligten,aus,Zucker,wir,kann,Größe,Liter,Masse,260.000,Masse,kann,kann,wurden,beschuldigten,mit,können,auf,kann,wieder,mit,aus,bei,die,Dänemark,königliches,,,,,,,,,,,,,,,,,,,,,,,6,0,6,0,0,3,3,3,,,,,,,,space,0.509732961655,,,,,,2017_Jan_31_1209,60.416025075,spr_backupper,001,Di15,
,Fahrer,ein,war,aus,aus,den,schönen,nicht,Stadt,auf,wurden,landen,schmutziger,wurden,alten,man,ich,"trug,",36,bekannten,sind,Wohnung,bei,bei,man,alten,Büschel,obwohl,ein,viel,Stadt,Packung,"minimalem,","üblichem,",immer,sprudelnden,mit,"reichlichem,",immer,schon,dank,Packung,"regelmäßigem,",das,uns,"Delikte,",wir,dauerhaftem,"Delikte,",Bluts,auf,dauerte,dem,Farbe,Wohnung,einen,Kilowattstunden,Büschel,vierte,die,obschon,bekannten,Farbe,schmutzige,solch,ich,die,schönen,Stimmung,"nicht,",landen,wir,jetzt,Fahrer,"wertvollem,",sind,den,ich,36,sprudelndes,mit,Kilowattstunden,mit,ich,man,mit,die,solchen,Neuwahlen,warmem,man,viel,"sämtlichem,","Japan,",ausreichendem,richtige,gelegentlich,Blut,,,,,,,,,,,,,,,,,,,,,,,6,0,6,0,0,4,4,4,,,,,,,,space,1.14070510864,,,,,,2017_Jan_31_1209,60.416025075,spr_backupper,001,Di15,
,wurden,Glas,die,seltenem,feinem,roten,Wetter,am,liegen,noch,serviert.,im,Wäsche.,serviert.,Kram,der,mehr,war,würden,Skandals,auf,des,"frischem,",minimalem,den,Krams,frisches,sie,Glas,Lärm,liegen,salziger,sauberen,harten,350,Trinkwassers.,"reichem,",purem,350,immer,täglichem,salzige,kaltem,Auto,die,deren,um,feinem,derer,hat,noch,ungefähr,Mann,geschleudert.,des,gelegentlichen,elektrische,frischen,Bundespräsident.,Störenfriede,sie,Skandal,geschleudert.,Wäsche.,unzureichenden,mehr,Tiere,Wetters,ziemlich,was,im,von,"nachgewiesen,",wurden,klassischen,auf,roten,leider,hätten,Trinkwasser.,einem,elektrischer,einem,leider,eine,zusätzlichem,Störenfriede,unzureichenden,vor,weichem,eine,Lärm,künftigem,die,monatlichem,"Zeit,",einen,hat,,,,,,,,,,,,,,,,,,,,,,,6,0,6,0,0,5,5,5,,,,,,,,space,0.452855110168,,,,,,2017_Jan_31_1209,60.416025075,spr_backupper,001,Di15,
,verschrottet.,köstlicher,Flut,dichten,dichten,Planet,die,Hauptbahnhof.,die,eine,nan,Müll.,nan,nan,aus,Soldaten,als,aus,seiner,wiedergewählt.,jeden,Herrn,kaltem,täglichen,Soldaten,aus,Gras,defekt,köstlichen,um,die,Wurst,Kraftstoff,Schaumstoff,ml,nan,goldenen,Alkohol,ml,ruhig,grünen,Wurst,Abduschen,mehr,Stimmung,sie,die,Kunsteis,sie,den,eine,drei,mehr,nan,Herrn,Besucher.,Energie.,Grases,nan,jeden.,defekt,wiedergewählt.,nan,nan,Helmen,als,artgerecht,die,"vermiest,",Tupperware,Müll.,den,dass,verschrottet.,Schmuck,jeden,Planeten,nichts,seiner,nan,Esslöffel,Energie.,Esslöffel,nichts,große,schwarzem,jeden.,Helmen,Dezember,Untergrund,große,um,Einkommen,er,Taschengeld,um,Besucher.,den,,,,,,,,,,,,,,,,,,,,,,,6,0,6,0,0,6,6,6,,,,,,,,space,0.353734970093,,,,,,2017_Jan_31_1209,60.416025075,spr_backupper,001,Di15,
,nan,Wein,zurückgekehrt.,Gewebe,Stoff,ganz,Wohnung.,nan,Slums.,Sammlung,nan,nan,nan,nan,dem,des,einmal,Japan.,Frau,nan,Fall,Gantenbein.,Saft,Einsatz,des,dem,zwängen.,war.,Weins,jede,Slums.,mit,fahren.,gefertigt.,warme,nan,Besatz,verdünnt.,warmer,diskutiert.,Tee,mit,gehärtet.,als,ziemlich,überführt,Probleme,eingesprüht.,überführt,Boden,Sammlung,Tage.,als,nan,Gantenbeins.,nan,nan,zwängen.,nan,nan,war.,nan,nan,nan,zur,einmal,gehalten.,Wohnung.,dass,ist.,nan,Problemen,das,nan,umgearbeitet.,Fall,ganz,mitbringen.,Frau,nan,warmem,nan,warmen,mitbringen.,Menge,Kaffee,nan,zur,stattfinden.,liegen.,Menge,jede,haftbar.,trug.,selber,Nadelhölzer,nan,Boden,,,,,,,,,,,,,,,,,,,,,,,6,0,6,0,0,7,7,7,,,,,,,,space,0.688602924347,,,,,,2017_Jan_31_1209,60.416025075,spr_backupper,001,Di15,
,,,,,,,,,,,,,,,,,,,,,,,,,,,,,,,,,,,,,,,,,,,,,,,,,,,,,,,,,,,,,,,,,,,,,,,,,,,,,,,,,,,,,,,,,,,,,,,,,,,,,,,,,,,,,,,,,,,,,,,,,6,0,6,0,,,,,,,,,,,,,,None,n,1.98588204384,,,2017_Jan_31_1209,60.416025075,spr_backupper,001,Di15,
,Die,Bei,Als,Danach,Er,Im,Sie,Die,Am,Sie,Beträchtliche,Viele,Dort,Beträchtliche,Wir,Bei,In,Die,Die,Er,100,Die,Sie,Ihr,Bei,Wir,Wir,Die,Bei,Man,Am,Ich,Wir,Alle,In,Sie,Das,Die,In,Fernab,Ich,Ich,Die,Wir,Dass,Es,In,Die,Es,Nicht,Sie,Der,Wir,Es,Die,Wir,Die,Wir,Walter,Außer,Die,Er,Es,Dort,Die,In,In,Sie,Es,Die,Viele,In,In,Die,Die,100,Im,Außer,Die,Sie,Er,Die,Er,Außer,Mit,Die,Außer,Die,Unter,Jungtiere,Mit,Man,Manche,Die,Jugendliche,Jetzt,Wir,Nicht,,,,,,,,,,,,,,,,,,,,,,,7,0,7,0,0,0,0,0,,,,,,,space,space,0.401819944382,,,,1.3245639801,,2017_Jan_31_1209,60.416025075,spr_backupper,001,Di15,
,Autos,unserer,die,wurde,hat,Fernrohr,verlassen,Linie,äußeren,hatte,Stücke,Tonnen,türmen,Stücke,haben,der,meinem,"Uhr,",Schuhe,wurde,g,Gäste,haben,Blutdruck,der,haben,mussten,Uhr,unserer,machte,äußersten,nehme,konnten,Betten,den,verbrauchen,Tuch,Lösung,den,des,wurde,nehme,Formen,übergaben,es,waren,der,Eislaufbahnen,waren,ein,hatte,Flug,übergaben,wurden,Gäste,hatten,Schule,mussten,Scheel,dem,Uhr,wurde,wurden,türmen,Kinder,meinem,diesem,verlassen,hat,Teilnehmerinnen,Tonnen,der,einer,Autos,Stücke,g,Fernrohr,das,Schuhe,verbrauchen,stellt,Schule,stellt,dem,dieser,müden,den,Kinder,keinen,sollten,dieser,machte,Kreditnehmer,Uhr,können,ist,hatten,ein,,,,,,,,,,,,,,,,,,,,,,,7,0,7,0,0,1,1,1,,,,,,,,space,0.354138851166,,,,,,2017_Jan_31_1209,60.416025075,spr_backupper,001,Di15,
,beider,Ankunft,Sonne,die,ein,sahen,wegen,101,Rand,keine,saftigen,gebrauchter,sich,saftiges,jede,Feier,Studium,die,in,trotz,braunen,suchen,die,kann,Feier,jede,uns,schlug,Ankunft,mal,Rand,eine,dann,wurden,Kakao,60,wurde,wird,Kakao,Rummels,damals,eine,wurden,dem,"regnete,",nur,Tat,wurden,nur,Tropfen,keine,zum,das,Eimer,suchen,in,verbraucht,uns,war,Bürgermeister,schlug,trotz,Eimer,sich,fuhren,Studium,Zirkus,wegen,uns,wussten,gebrauchte,Tat,Studie,beider,wurden,brauner,sahen,Essen,in,60,die,verbraucht,die,Essen,Methode,Teilnehmer,Bürgermeister,fuhren,Umständen,immer,Methode,mal,sind,war,Kleidung,genau,in,Tropfen,,,,,,,,,,,,,,,,,,,,,,,7,0,7,0,0,2,2,2,,,,,,,,space,0.392159938812,,,,,,2017_Jan_31_1209,60.416025075,spr_backupper,001,Di15,
,beteiligter,stand,"unterging,",Leinwand,Hemd,wir,dem,hält,der,Lust,Fleischs,Kleidung,Berge,Fleisch,Menge,gedachte,habe,er,Größe,des,Zuckers,die,Erlebnisse,schon,gedachte,Menge,durch,"sporadisch,",stand,wieder,der,große,mit,mit,gehören,Liter,dann,mit,gehören,wurde,schnell,große,unter,Mann,hat,kleinere,wissen,mit,kleinere,königlichen,Lust,Mond,Auto,roter,die,Dänemark,260.000,durch,der,beschuldigten,"sporadisch,",dem,rote,Berge,mit,las,werden,des,die,überwiegend,Kleidung,wissen,wurde,beteiligten,aus,Zucker,wir,kann,Größe,Liter,Masse,260.000,Masse,kann,kann,wurden,beschuldigten,mit,können,auf,kann,wieder,mit,aus,bei,die,Dänemark,königliches,,,,,,,,,,,,,,,,,,,,,,,7,0,7,0,0,3,3,3,,,,,,,,space,0.357363939285,,,,,,2017_Jan_31_1209,60.416025075,spr_backupper,001,Di15,
,Fahrer,ein,war,aus,aus,den,schönen,nicht,Stadt,auf,wurden,landen,schmutziger,wurden,alten,man,ich,"trug,",36,bekannten,sind,Wohnung,bei,bei,man,alten,Büschel,obwohl,ein,viel,Stadt,Packung,"minimalem,","üblichem,",immer,sprudelnden,mit,"reichlichem,",immer,schon,dank,Packung,"regelmäßigem,",das,uns,"Delikte,",wir,dauerhaftem,"Delikte,",Bluts,auf,dauerte,dem,Farbe,Wohnung,einen,Kilowattstunden,Büschel,vierte,die,obschon,bekannten,Farbe,schmutzige,solch,ich,die,schönen,Stimmung,"nicht,",landen,wir,jetzt,Fahrer,"wertvollem,",sind,den,ich,36,sprudelndes,mit,Kilowattstunden,mit,ich,man,mit,die,solchen,Neuwahlen,warmem,man,viel,"sämtlichem,","Japan,",ausreichendem,richtige,gelegentlich,Blut,,,,,,,,,,,,,,,,,,,,,,,7,0,7,0,0,4,4,4,,,,,,,,space,0.396268844604,,,,,,2017_Jan_31_1209,60.416025075,spr_backupper,001,Di15,
,wurden,Glas,die,seltenem,feinem,roten,Wetter,am,liegen,noch,serviert.,im,Wäsche.,serviert.,Kram,der,mehr,war,würden,Skandals,auf,des,"frischem,",minimalem,den,Krams,frisches,sie,Glas,Lärm,liegen,salziger,sauberen,harten,350,Trinkwassers.,"reichem,",purem,350,immer,täglichem,salzige,kaltem,Auto,die,deren,um,feinem,derer,hat,noch,ungefähr,Mann,geschleudert.,des,gelegentlichen,elektrische,frischen,Bundespräsident.,Störenfriede,sie,Skandal,geschleudert.,Wäsche.,unzureichenden,mehr,Tiere,Wetters,ziemlich,was,im,von,"nachgewiesen,",wurden,klassischen,auf,roten,leider,hätten,Trinkwasser.,einem,elektrischer,einem,leider,eine,zusätzlichem,Störenfriede,unzureichenden,vor,weichem,eine,Lärm,künftigem,die,monatlichem,"Zeit,",einen,hat,,,,,,,,,,,,,,,,,,,,,,,7,0,7,0,0,5,5,5,,,,,,,,space,0.460687875748,,,,,,2017_Jan_31_1209,60.416025075,spr_backupper,001,Di15,
,verschrottet.,köstlicher,Flut,dichten,dichten,Planet,die,Hauptbahnhof.,die,eine,nan,Müll.,nan,nan,aus,Soldaten,als,aus,seiner,wiedergewählt.,jeden,Herrn,kaltem,täglichen,Soldaten,aus,Gras,defekt,köstlichen,um,die,Wurst,Kraftstoff,Schaumstoff,ml,nan,goldenen,Alkohol,ml,ruhig,grünen,Wurst,Abduschen,mehr,Stimmung,sie,die,Kunsteis,sie,den,eine,drei,mehr,nan,Herrn,Besucher.,Energie.,Grases,nan,jeden.,defekt,wiedergewählt.,nan,nan,Helmen,als,artgerecht,die,"vermiest,",Tupperware,Müll.,den,dass,verschrottet.,Schmuck,jeden,Planeten,nichts,seiner,nan,Esslöffel,Energie.,Esslöffel,nichts,große,schwarzem,jeden.,Helmen,Dezember,Untergrund,große,um,Einkommen,er,Taschengeld,um,Besucher.,den,,,,,,,,,,,,,,,,,,,,,,,7,0,7,0,0,6,6,6,,,,,,,,space,0.452785015106,,,,,,2017_Jan_31_1209,60.416025075,spr_backupper,001,Di15,
,nan,Wein,zurückgekehrt.,Gewebe,Stoff,ganz,Wohnung.,nan,Slums.,Sammlung,nan,nan,nan,nan,dem,des,einmal,Japan.,Frau,nan,Fall,Gantenbein.,Saft,Einsatz,des,dem,zwängen.,war.,Weins,jede,Slums.,mit,fahren.,gefertigt.,warme,nan,Besatz,verdünnt.,warmer,diskutiert.,Tee,mit,gehärtet.,als,ziemlich,überführt,Probleme,eingesprüht.,überführt,Boden,Sammlung,Tage.,als,nan,Gantenbeins.,nan,nan,zwängen.,nan,nan,war.,nan,nan,nan,zur,einmal,gehalten.,Wohnung.,dass,ist.,nan,Problemen,das,nan,umgearbeitet.,Fall,ganz,mitbringen.,Frau,nan,warmem,nan,warmen,mitbringen.,Menge,Kaffee,nan,zur,stattfinden.,liegen.,Menge,jede,haftbar.,trug.,selber,Nadelhölzer,nan,Boden,,,,,,,,,,,,,,,,,,,,,,,7,0,7,0,0,7,7,7,,,,,,,,space,0.624797821045,,,,,,2017_Jan_31_1209,60.416025075,spr_backupper,001,Di15,
,,,,,,,,,,,,,,,,,,,,,,,,,,,,,,,,,,,,,,,,,,,,,,,,,,,,,,,,,,,,,,,,,,,,,,,,,,,,,,,,,,,,,,,,,,,,,,,,,,,,,,,,,,,,,,,,,,,,,,,,,7,0,7,0,,,,,,,,,,,,,,None,n,8.33425402641,,,2017_Jan_31_1209,60.416025075,spr_backupper,001,Di15,
,Die,Bei,Als,Danach,Er,Im,Sie,Die,Am,Sie,Beträchtliche,Viele,Dort,Beträchtliche,Wir,Bei,In,Die,Die,Er,100,Die,Sie,Ihr,Bei,Wir,Wir,Die,Bei,Man,Am,Ich,Wir,Alle,In,Sie,Das,Die,In,Fernab,Ich,Ich,Die,Wir,Dass,Es,In,Die,Es,Nicht,Sie,Der,Wir,Es,Die,Wir,Die,Wir,Walter,Außer,Die,Er,Es,Dort,Die,In,In,Sie,Es,Die,Viele,In,In,Die,Die,100,Im,Außer,Die,Sie,Er,Die,Er,Außer,Mit,Die,Außer,Die,Unter,Jungtiere,Mit,Man,Manche,Die,Jugendliche,Jetzt,Wir,Nicht,,,,,,,,,,,,,,,,,,,,,,,8,0,8,0,0,0,0,0,,,,,,,space,space,0.519723176956,,,,0.889580011368,,2017_Jan_31_1209,60.416025075,spr_backupper,001,Di15,
,Autos,unserer,die,wurde,hat,Fernrohr,verlassen,Linie,äußeren,hatte,Stücke,Tonnen,türmen,Stücke,haben,der,meinem,"Uhr,",Schuhe,wurde,g,Gäste,haben,Blutdruck,der,haben,mussten,Uhr,unserer,machte,äußersten,nehme,konnten,Betten,den,verbrauchen,Tuch,Lösung,den,des,wurde,nehme,Formen,übergaben,es,waren,der,Eislaufbahnen,waren,ein,hatte,Flug,übergaben,wurden,Gäste,hatten,Schule,mussten,Scheel,dem,Uhr,wurde,wurden,türmen,Kinder,meinem,diesem,verlassen,hat,Teilnehmerinnen,Tonnen,der,einer,Autos,Stücke,g,Fernrohr,das,Schuhe,verbrauchen,stellt,Schule,stellt,dem,dieser,müden,den,Kinder,keinen,sollten,dieser,machte,Kreditnehmer,Uhr,können,ist,hatten,ein,,,,,,,,,,,,,,,,,,,,,,,8,0,8,0,0,1,1,1,,,,,,,,space,0.38627409935,,,,,,2017_Jan_31_1209,60.416025075,spr_backupper,001,Di15,
,beider,Ankunft,Sonne,die,ein,sahen,wegen,101,Rand,keine,saftigen,gebrauchter,sich,saftiges,jede,Feier,Studium,die,in,trotz,braunen,suchen,die,kann,Feier,jede,uns,schlug,Ankunft,mal,Rand,eine,dann,wurden,Kakao,60,wurde,wird,Kakao,Rummels,damals,eine,wurden,dem,"regnete,",nur,Tat,wurden,nur,Tropfen,keine,zum,das,Eimer,suchen,in,verbraucht,uns,war,Bürgermeister,schlug,trotz,Eimer,sich,fuhren,Studium,Zirkus,wegen,uns,wussten,gebrauchte,Tat,Studie,beider,wurden,brauner,sahen,Essen,in,60,die,verbraucht,die,Essen,Methode,Teilnehmer,Bürgermeister,fuhren,Umständen,immer,Methode,mal,sind,war,Kleidung,genau,in,Tropfen,,,,,,,,,,,,,,,,,,,,,,,8,0,8,0,0,2,2,2,,,,,,,,space,0.436770915985,,,,,,2017_Jan_31_1209,60.416025075,spr_backupper,001,Di15,
,beteiligter,stand,"unterging,",Leinwand,Hemd,wir,dem,hält,der,Lust,Fleischs,Kleidung,Berge,Fleisch,Menge,gedachte,habe,er,Größe,des,Zuckers,die,Erlebnisse,schon,gedachte,Menge,durch,"sporadisch,",stand,wieder,der,große,mit,mit,gehören,Liter,dann,mit,gehören,wurde,schnell,große,unter,Mann,hat,kleinere,wissen,mit,kleinere,königlichen,Lust,Mond,Auto,roter,die,Dänemark,260.000,durch,der,beschuldigten,"sporadisch,",dem,rote,Berge,mit,las,werden,des,die,überwiegend,Kleidung,wissen,wurde,beteiligten,aus,Zucker,wir,kann,Größe,Liter,Masse,260.000,Masse,kann,kann,wurden,beschuldigten,mit,können,auf,kann,wieder,mit,aus,bei,die,Dänemark,königliches,,,,,,,,,,,,,,,,,,,,,,,8,0,8,0,0,3,3,3,,,,,,,,space,0.359745025635,,,,,,2017_Jan_31_1209,60.416025075,spr_backupper,001,Di15,
,Fahrer,ein,war,aus,aus,den,schönen,nicht,Stadt,auf,wurden,landen,schmutziger,wurden,alten,man,ich,"trug,",36,bekannten,sind,Wohnung,bei,bei,man,alten,Büschel,obwohl,ein,viel,Stadt,Packung,"minimalem,","üblichem,",immer,sprudelnden,mit,"reichlichem,",immer,schon,dank,Packung,"regelmäßigem,",das,uns,"Delikte,",wir,dauerhaftem,"Delikte,",Bluts,auf,dauerte,dem,Farbe,Wohnung,einen,Kilowattstunden,Büschel,vierte,die,obschon,bekannten,Farbe,schmutzige,solch,ich,die,schönen,Stimmung,"nicht,",landen,wir,jetzt,Fahrer,"wertvollem,",sind,den,ich,36,sprudelndes,mit,Kilowattstunden,mit,ich,man,mit,die,solchen,Neuwahlen,warmem,man,viel,"sämtlichem,","Japan,",ausreichendem,richtige,gelegentlich,Blut,,,,,,,,,,,,,,,,,,,,,,,8,0,8,0,0,4,4,4,,,,,,,,space,0.352511882782,,,,,,2017_Jan_31_1209,60.416025075,spr_backupper,001,Di15,
,wurden,Glas,die,seltenem,feinem,roten,Wetter,am,liegen,noch,serviert.,im,Wäsche.,serviert.,Kram,der,mehr,war,würden,Skandals,auf,des,"frischem,",minimalem,den,Krams,frisches,sie,Glas,Lärm,liegen,salziger,sauberen,harten,350,Trinkwassers.,"reichem,",purem,350,immer,täglichem,salzige,kaltem,Auto,die,deren,um,feinem,derer,hat,noch,ungefähr,Mann,geschleudert.,des,gelegentlichen,elektrische,frischen,Bundespräsident.,Störenfriede,sie,Skandal,geschleudert.,Wäsche.,unzureichenden,mehr,Tiere,Wetters,ziemlich,was,im,von,"nachgewiesen,",wurden,klassischen,auf,roten,leider,hätten,Trinkwasser.,einem,elektrischer,einem,leider,eine,zusätzlichem,Störenfriede,unzureichenden,vor,weichem,eine,Lärm,künftigem,die,monatlichem,"Zeit,",einen,hat,,,,,,,,,,,,,,,,,,,,,,,8,0,8,0,0,5,5,5,,,,,,,,space,0.353113174438,,,,,,2017_Jan_31_1209,60.416025075,spr_backupper,001,Di15,
,verschrottet.,köstlicher,Flut,dichten,dichten,Planet,die,Hauptbahnhof.,die,eine,nan,Müll.,nan,nan,aus,Soldaten,als,aus,seiner,wiedergewählt.,jeden,Herrn,kaltem,täglichen,Soldaten,aus,Gras,defekt,köstlichen,um,die,Wurst,Kraftstoff,Schaumstoff,ml,nan,goldenen,Alkohol,ml,ruhig,grünen,Wurst,Abduschen,mehr,Stimmung,sie,die,Kunsteis,sie,den,eine,drei,mehr,nan,Herrn,Besucher.,Energie.,Grases,nan,jeden.,defekt,wiedergewählt.,nan,nan,Helmen,als,artgerecht,die,"vermiest,",Tupperware,Müll.,den,dass,verschrottet.,Schmuck,jeden,Planeten,nichts,seiner,nan,Esslöffel,Energie.,Esslöffel,nichts,große,schwarzem,jeden.,Helmen,Dezember,Untergrund,große,um,Einkommen,er,Taschengeld,um,Besucher.,den,,,,,,,,,,,,,,,,,,,,,,,8,0,8,0,0,6,6,6,,,,,,,,space,0.401094913483,,,,,,2017_Jan_31_1209,60.416025075,spr_backupper,001,Di15,
,nan,Wein,zurückgekehrt.,Gewebe,Stoff,ganz,Wohnung.,nan,Slums.,Sammlung,nan,nan,nan,nan,dem,des,einmal,Japan.,Frau,nan,Fall,Gantenbein.,Saft,Einsatz,des,dem,zwängen.,war.,Weins,jede,Slums.,mit,fahren.,gefertigt.,warme,nan,Besatz,verdünnt.,warmer,diskutiert.,Tee,mit,gehärtet.,als,ziemlich,überführt,Probleme,eingesprüht.,überführt,Boden,Sammlung,Tage.,als,nan,Gantenbeins.,nan,nan,zwängen.,nan,nan,war.,nan,nan,nan,zur,einmal,gehalten.,Wohnung.,dass,ist.,nan,Problemen,das,nan,umgearbeitet.,Fall,ganz,mitbringen.,Frau,nan,warmem,nan,warmen,mitbringen.,Menge,Kaffee,nan,zur,stattfinden.,liegen.,Menge,jede,haftbar.,trug.,selber,Nadelhölzer,nan,Boden,,,,,,,,,,,,,,,,,,,,,,,8,0,8,0,0,7,7,7,,,,,,,,space,0.368942022324,,,,,,2017_Jan_31_1209,60.416025075,spr_backupper,001,Di15,
,nan,schon,nan,wiederhergestellt.,gefertigt.,deutlich.,nan,nan,nan,dummer,nan,nan,nan,nan,Haus,zweiten,Rilke,nan,gepasst,nan,genug.,nan,besprochen.,sinken.,zweiten,Haus,nan,nan,schon,Menge,nan,an,nan,nan,Milch.,nan,rekonstruiert.,nan,Milch.,nan,wieder,an,nan,gerne.,vermiest.,wurden.,im,nan,wurden.,berührt.,dumme,nan,gerne.,nan,nan,nan,nan,nan,nan,nan,nan,nan,nan,nan,Schule.,Rilke.,nan,nan,es,nan,nan,im,Medikament,nan,nan,genug.,deutlich.,nan,gepasst.,nan,Honig,nan,Honigs,nan,dunkle,wiederbelebt.,nan,Schule.,nan,nan,dunkler,Menge,nan,nan,kaufen.,umzusetzen.,nan,berührt.,,,,,,,,,,,,,,,,,,,,,,,8,0,8,0,0,8,8,8,,,,,,,,space,0.485506057739,,,,,,2017_Jan_31_1209,60.416025075,spr_backupper,001,Di15,
,nan,auf,nan,nan,nan,nan,nan,nan,nan,Sprüche.,nan,nan,nan,nan,geschafft.,Weltkriegs.,gelesen.,nan,haben.,nan,nan,nan,nan,nan,Weltkriegs.,geschafft.,nan,nan,auf,heißer,nan,den,nan,nan,nan,nan,nan,nan,nan,nan,fit.,den,nan,nan,nan,nan,Landkreis.,nan,nan,nan,Sprüche.,nan,nan,nan,nan,nan,nan,nan,nan,nan,nan,nan,nan,nan,nan,nan,nan,nan,regnete.,nan,nan,Landkreis.,nicht,nan,nan,nan,nan,nan,nan,nan,her.,nan,her.,nan,Materie,nan,nan,nan,nan,nan,Materie,heiße,nan,nan,nan,nan,nan,nan,,,,,,,,,,,,,,,,,,,,,,,8,0,8,0,0,9,9,9,,,,,,,,space,0.386393070221,,,,,,2017_Jan_31_1209,60.416025075,spr_backupper,001,Di15,
,nan,dem,nan,nan,nan,nan,nan,nan,nan,nan,nan,nan,nan,nan,nan,nan,nan,nan,nan,nan,nan,nan,nan,nan,nan,nan,nan,nan,dem,Luft.,nan,See.,nan,nan,nan,nan,nan,nan,nan,nan,nan,See.,nan,nan,nan,nan,nan,nan,nan,nan,nan,nan,nan,nan,nan,nan,nan,nan,nan,nan,nan,nan,nan,nan,nan,nan,nan,nan,nan,nan,nan,nan,wirkt.,nan,nan,nan,nan,nan,nan,nan,nan,nan,nan,nan,erzeugen.,nan,nan,nan,nan,nan,erzeugen.,Luft.,nan,nan,nan,nan,nan,nan,,,,,,,,,,,,,,,,,,,,,,,8,0,8,0,0,10,10,10,,,,,,,,space,0.348745107651,,,,,,2017_Jan_31_1209,60.416025075,spr_backupper,001,Di15,
,nan,Tisch.,nan,nan,nan,nan,nan,nan,nan,nan,nan,nan,nan,nan,nan,nan,nan,nan,nan,nan,nan,nan,nan,nan,nan,nan,nan,nan,Tisch.,nan,nan,nan,nan,nan,nan,nan,nan,nan,nan,nan,nan,nan,nan,nan,nan,nan,nan,nan,nan,nan,nan,nan,nan,nan,nan,nan,nan,nan,nan,nan,nan,nan,nan,nan,nan,nan,nan,nan,nan,nan,nan,nan,nan,nan,nan,nan,nan,nan,nan,nan,nan,nan,nan,nan,nan,nan,nan,nan,nan,nan,nan,nan,nan,nan,nan,nan,nan,nan,,,,,,,,,,,,,,,,,,,,,,,8,0,8,0,0,11,11,11,,,,,,,,space,0.335324048996,,,,,,2017_Jan_31_1209,60.416025075,spr_backupper,001,Di15,
,,,,,,,,,,,,,,,,,,,,,,,,,,,,,,,,,,,,,,,,,,,,,,,,,,,,,,,,,,,,,,,,,,,,,,,,,,,,,,,,,,,,,,,,,,,,,,,,,,,,,,,,,,,,,,,,,,,,,,,,,8,0,8,0,,,,,,,,,,,,,,None,j,3.1201570034,,,2017_Jan_31_1209,60.416025075,spr_backupper,001,Di15,
,Die,Bei,Als,Danach,Er,Im,Sie,Die,Am,Sie,Beträchtliche,Viele,Dort,Beträchtliche,Wir,Bei,In,Die,Die,Er,100,Die,Sie,Ihr,Bei,Wir,Wir,Die,Bei,Man,Am,Ich,Wir,Alle,In,Sie,Das,Die,In,Fernab,Ich,Ich,Die,Wir,Dass,Es,In,Die,Es,Nicht,Sie,Der,Wir,Es,Die,Wir,Die,Wir,Walter,Außer,Die,Er,Es,Dort,Die,In,In,Sie,Es,Die,Viele,In,In,Die,Die,100,Im,Außer,Die,Sie,Er,Die,Er,Außer,Mit,Die,Außer,Die,Unter,Jungtiere,Mit,Man,Manche,Die,Jugendliche,Jetzt,Wir,Nicht,,,,,,,,,,,,,,,,,,,,,,,9,0,9,0,0,0,0,0,,,,,,,space,space,0.530268907547,,,,1.17426109314,,2017_Jan_31_1209,60.416025075,spr_backupper,001,Di15,
,Autos,unserer,die,wurde,hat,Fernrohr,verlassen,Linie,äußeren,hatte,Stücke,Tonnen,türmen,Stücke,haben,der,meinem,"Uhr,",Schuhe,wurde,g,Gäste,haben,Blutdruck,der,haben,mussten,Uhr,unserer,machte,äußersten,nehme,konnten,Betten,den,verbrauchen,Tuch,Lösung,den,des,wurde,nehme,Formen,übergaben,es,waren,der,Eislaufbahnen,waren,ein,hatte,Flug,übergaben,wurden,Gäste,hatten,Schule,mussten,Scheel,dem,Uhr,wurde,wurden,türmen,Kinder,meinem,diesem,verlassen,hat,Teilnehmerinnen,Tonnen,der,einer,Autos,Stücke,g,Fernrohr,das,Schuhe,verbrauchen,stellt,Schule,stellt,dem,dieser,müden,den,Kinder,keinen,sollten,dieser,machte,Kreditnehmer,Uhr,können,ist,hatten,ein,,,,,,,,,,,,,,,,,,,,,,,9,0,9,0,0,1,1,1,,,,,,,,space,0.436777830124,,,,,,2017_Jan_31_1209,60.416025075,spr_backupper,001,Di15,
,beider,Ankunft,Sonne,die,ein,sahen,wegen,101,Rand,keine,saftigen,gebrauchter,sich,saftiges,jede,Feier,Studium,die,in,trotz,braunen,suchen,die,kann,Feier,jede,uns,schlug,Ankunft,mal,Rand,eine,dann,wurden,Kakao,60,wurde,wird,Kakao,Rummels,damals,eine,wurden,dem,"regnete,",nur,Tat,wurden,nur,Tropfen,keine,zum,das,Eimer,suchen,in,verbraucht,uns,war,Bürgermeister,schlug,trotz,Eimer,sich,fuhren,Studium,Zirkus,wegen,uns,wussten,gebrauchte,Tat,Studie,beider,wurden,brauner,sahen,Essen,in,60,die,verbraucht,die,Essen,Methode,Teilnehmer,Bürgermeister,fuhren,Umständen,immer,Methode,mal,sind,war,Kleidung,genau,in,Tropfen,,,,,,,,,,,,,,,,,,,,,,,9,0,9,0,0,2,2,2,,,,,,,,space,0.420665025711,,,,,,2017_Jan_31_1209,60.416025075,spr_backupper,001,Di15,
,beteiligter,stand,"unterging,",Leinwand,Hemd,wir,dem,hält,der,Lust,Fleischs,Kleidung,Berge,Fleisch,Menge,gedachte,habe,er,Größe,des,Zuckers,die,Erlebnisse,schon,gedachte,Menge,durch,"sporadisch,",stand,wieder,der,große,mit,mit,gehören,Liter,dann,mit,gehören,wurde,schnell,große,unter,Mann,hat,kleinere,wissen,mit,kleinere,königlichen,Lust,Mond,Auto,roter,die,Dänemark,260.000,durch,der,beschuldigten,"sporadisch,",dem,rote,Berge,mit,las,werden,des,die,überwiegend,Kleidung,wissen,wurde,beteiligten,aus,Zucker,wir,kann,Größe,Liter,Masse,260.000,Masse,kann,kann,wurden,beschuldigten,mit,können,auf,kann,wieder,mit,aus,bei,die,Dänemark,königliches,,,,,,,,,,,,,,,,,,,,,,,9,0,9,0,0,3,3,3,,,,,,,,space,0.306548118591,,,,,,2017_Jan_31_1209,60.416025075,spr_backupper,001,Di15,
,Fahrer,ein,war,aus,aus,den,schönen,nicht,Stadt,auf,wurden,landen,schmutziger,wurden,alten,man,ich,"trug,",36,bekannten,sind,Wohnung,bei,bei,man,alten,Büschel,obwohl,ein,viel,Stadt,Packung,"minimalem,","üblichem,",immer,sprudelnden,mit,"reichlichem,",immer,schon,dank,Packung,"regelmäßigem,",das,uns,"Delikte,",wir,dauerhaftem,"Delikte,",Bluts,auf,dauerte,dem,Farbe,Wohnung,einen,Kilowattstunden,Büschel,vierte,die,obschon,bekannten,Farbe,schmutzige,solch,ich,die,schönen,Stimmung,"nicht,",landen,wir,jetzt,Fahrer,"wertvollem,",sind,den,ich,36,sprudelndes,mit,Kilowattstunden,mit,ich,man,mit,die,solchen,Neuwahlen,warmem,man,viel,"sämtlichem,","Japan,",ausreichendem,richtige,gelegentlich,Blut,,,,,,,,,,,,,,,,,,,,,,,9,0,9,0,0,4,4,4,,,,,,,,space,0.319486141205,,,,,,2017_Jan_31_1209,60.416025075,spr_backupper,001,Di15,
,wurden,Glas,die,seltenem,feinem,roten,Wetter,am,liegen,noch,serviert.,im,Wäsche.,serviert.,Kram,der,mehr,war,würden,Skandals,auf,des,"frischem,",minimalem,den,Krams,frisches,sie,Glas,Lärm,liegen,salziger,sauberen,harten,350,Trinkwassers.,"reichem,",purem,350,immer,täglichem,salzige,kaltem,Auto,die,deren,um,feinem,derer,hat,noch,ungefähr,Mann,geschleudert.,des,gelegentlichen,elektrische,frischen,Bundespräsident.,Störenfriede,sie,Skandal,geschleudert.,Wäsche.,unzureichenden,mehr,Tiere,Wetters,ziemlich,was,im,von,"nachgewiesen,",wurden,klassischen,auf,roten,leider,hätten,Trinkwasser.,einem,elektrischer,einem,leider,eine,zusätzlichem,Störenfriede,unzureichenden,vor,weichem,eine,Lärm,künftigem,die,monatlichem,"Zeit,",einen,hat,,,,,,,,,,,,,,,,,,,,,,,9,0,9,0,0,5,5,5,,,,,,,,space,0.485805034637,,,,,,2017_Jan_31_1209,60.416025075,spr_backupper,001,Di15,
,verschrottet.,köstlicher,Flut,dichten,dichten,Planet,die,Hauptbahnhof.,die,eine,nan,Müll.,nan,nan,aus,Soldaten,als,aus,seiner,wiedergewählt.,jeden,Herrn,kaltem,täglichen,Soldaten,aus,Gras,defekt,köstlichen,um,die,Wurst,Kraftstoff,Schaumstoff,ml,nan,goldenen,Alkohol,ml,ruhig,grünen,Wurst,Abduschen,mehr,Stimmung,sie,die,Kunsteis,sie,den,eine,drei,mehr,nan,Herrn,Besucher.,Energie.,Grases,nan,jeden.,defekt,wiedergewählt.,nan,nan,Helmen,als,artgerecht,die,"vermiest,",Tupperware,Müll.,den,dass,verschrottet.,Schmuck,jeden,Planeten,nichts,seiner,nan,Esslöffel,Energie.,Esslöffel,nichts,große,schwarzem,jeden.,Helmen,Dezember,Untergrund,große,um,Einkommen,er,Taschengeld,um,Besucher.,den,,,,,,,,,,,,,,,,,,,,,,,9,0,9,0,0,6,6,6,,,,,,,,space,0.352247953415,,,,,,2017_Jan_31_1209,60.416025075,spr_backupper,001,Di15,
,nan,Wein,zurückgekehrt.,Gewebe,Stoff,ganz,Wohnung.,nan,Slums.,Sammlung,nan,nan,nan,nan,dem,des,einmal,Japan.,Frau,nan,Fall,Gantenbein.,Saft,Einsatz,des,dem,zwängen.,war.,Weins,jede,Slums.,mit,fahren.,gefertigt.,warme,nan,Besatz,verdünnt.,warmer,diskutiert.,Tee,mit,gehärtet.,als,ziemlich,überführt,Probleme,eingesprüht.,überführt,Boden,Sammlung,Tage.,als,nan,Gantenbeins.,nan,nan,zwängen.,nan,nan,war.,nan,nan,nan,zur,einmal,gehalten.,Wohnung.,dass,ist.,nan,Problemen,das,nan,umgearbeitet.,Fall,ganz,mitbringen.,Frau,nan,warmem,nan,warmen,mitbringen.,Menge,Kaffee,nan,zur,stattfinden.,liegen.,Menge,jede,haftbar.,trug.,selber,Nadelhölzer,nan,Boden,,,,,,,,,,,,,,,,,,,,,,,9,0,9,0,0,7,7,7,,,,,,,,space,0.362333059311,,,,,,2017_Jan_31_1209,60.416025075,spr_backupper,001,Di15,
,nan,schon,nan,wiederhergestellt.,gefertigt.,deutlich.,nan,nan,nan,dummer,nan,nan,nan,nan,Haus,zweiten,Rilke,nan,gepasst,nan,genug.,nan,besprochen.,sinken.,zweiten,Haus,nan,nan,schon,Menge,nan,an,nan,nan,Milch.,nan,rekonstruiert.,nan,Milch.,nan,wieder,an,nan,gerne.,vermiest.,wurden.,im,nan,wurden.,berührt.,dumme,nan,gerne.,nan,nan,nan,nan,nan,nan,nan,nan,nan,nan,nan,Schule.,Rilke.,nan,nan,es,nan,nan,im,Medikament,nan,nan,genug.,deutlich.,nan,gepasst.,nan,Honig,nan,Honigs,nan,dunkle,wiederbelebt.,nan,Schule.,nan,nan,dunkler,Menge,nan,nan,kaufen.,umzusetzen.,nan,berührt.,,,,,,,,,,,,,,,,,,,,,,,9,0,9,0,0,8,8,8,,,,,,,,space,0.436866044998,,,,,,2017_Jan_31_1209,60.416025075,spr_backupper,001,Di15,
,,,,,,,,,,,,,,,,,,,,,,,,,,,,,,,,,,,,,,,,,,,,,,,,,,,,,,,,,,,,,,,,,,,,,,,,,,,,,,,,,,,,,,,,,,,,,,,,,,,,,,,,,,,,,,,,,,,,,,,,,9,0,9,0,,,,,,,,,,,,,,None,j,3.25425100327,,,2017_Jan_31_1209,60.416025075,spr_backupper,001,Di15,
,Die,Bei,Als,Danach,Er,Im,Sie,Die,Am,Sie,Beträchtliche,Viele,Dort,Beträchtliche,Wir,Bei,In,Die,Die,Er,100,Die,Sie,Ihr,Bei,Wir,Wir,Die,Bei,Man,Am,Ich,Wir,Alle,In,Sie,Das,Die,In,Fernab,Ich,Ich,Die,Wir,Dass,Es,In,Die,Es,Nicht,Sie,Der,Wir,Es,Die,Wir,Die,Wir,Walter,Außer,Die,Er,Es,Dort,Die,In,In,Sie,Es,Die,Viele,In,In,Die,Die,100,Im,Außer,Die,Sie,Er,Die,Er,Außer,Mit,Die,Außer,Die,Unter,Jungtiere,Mit,Man,Manche,Die,Jugendliche,Jetzt,Wir,Nicht,,,,,,,,,,,,,,,,,,,,,,,10,0,10,0,0,0,0,0,,,,,,,space,space,0.485236883163,,,,1.39244604111,,2017_Jan_31_1209,60.416025075,spr_backupper,001,Di15,
,Autos,unserer,die,wurde,hat,Fernrohr,verlassen,Linie,äußeren,hatte,Stücke,Tonnen,türmen,Stücke,haben,der,meinem,"Uhr,",Schuhe,wurde,g,Gäste,haben,Blutdruck,der,haben,mussten,Uhr,unserer,machte,äußersten,nehme,konnten,Betten,den,verbrauchen,Tuch,Lösung,den,des,wurde,nehme,Formen,übergaben,es,waren,der,Eislaufbahnen,waren,ein,hatte,Flug,übergaben,wurden,Gäste,hatten,Schule,mussten,Scheel,dem,Uhr,wurde,wurden,türmen,Kinder,meinem,diesem,verlassen,hat,Teilnehmerinnen,Tonnen,der,einer,Autos,Stücke,g,Fernrohr,das,Schuhe,verbrauchen,stellt,Schule,stellt,dem,dieser,müden,den,Kinder,keinen,sollten,dieser,machte,Kreditnehmer,Uhr,können,ist,hatten,ein,,,,,,,,,,,,,,,,,,,,,,,10,0,10,0,0,1,1,1,,,,,,,,space,0.348739862442,,,,,,2017_Jan_31_1209,60.416025075,spr_backupper,001,Di15,
,beider,Ankunft,Sonne,die,ein,sahen,wegen,101,Rand,keine,saftigen,gebrauchter,sich,saftiges,jede,Feier,Studium,die,in,trotz,braunen,suchen,die,kann,Feier,jede,uns,schlug,Ankunft,mal,Rand,eine,dann,wurden,Kakao,60,wurde,wird,Kakao,Rummels,damals,eine,wurden,dem,"regnete,",nur,Tat,wurden,nur,Tropfen,keine,zum,das,Eimer,suchen,in,verbraucht,uns,war,Bürgermeister,schlug,trotz,Eimer,sich,fuhren,Studium,Zirkus,wegen,uns,wussten,gebrauchte,Tat,Studie,beider,wurden,brauner,sahen,Essen,in,60,die,verbraucht,die,Essen,Methode,Teilnehmer,Bürgermeister,fuhren,Umständen,immer,Methode,mal,sind,war,Kleidung,genau,in,Tropfen,,,,,,,,,,,,,,,,,,,,,,,10,0,10,0,0,2,2,2,,,,,,,,space,0.319304943085,,,,,,2017_Jan_31_1209,60.416025075,spr_backupper,001,Di15,
,beteiligter,stand,"unterging,",Leinwand,Hemd,wir,dem,hält,der,Lust,Fleischs,Kleidung,Berge,Fleisch,Menge,gedachte,habe,er,Größe,des,Zuckers,die,Erlebnisse,schon,gedachte,Menge,durch,"sporadisch,",stand,wieder,der,große,mit,mit,gehören,Liter,dann,mit,gehören,wurde,schnell,große,unter,Mann,hat,kleinere,wissen,mit,kleinere,königlichen,Lust,Mond,Auto,roter,die,Dänemark,260.000,durch,der,beschuldigten,"sporadisch,",dem,rote,Berge,mit,las,werden,des,die,überwiegend,Kleidung,wissen,wurde,beteiligten,aus,Zucker,wir,kann,Größe,Liter,Masse,260.000,Masse,kann,kann,wurden,beschuldigten,mit,können,auf,kann,wieder,mit,aus,bei,die,Dänemark,königliches,,,,,,,,,,,,,,,,,,,,,,,10,0,10,0,0,3,3,3,,,,,,,,space,0.363394975662,,,,,,2017_Jan_31_1209,60.416025075,spr_backupper,001,Di15,
,Fahrer,ein,war,aus,aus,den,schönen,nicht,Stadt,auf,wurden,landen,schmutziger,wurden,alten,man,ich,"trug,",36,bekannten,sind,Wohnung,bei,bei,man,alten,Büschel,obwohl,ein,viel,Stadt,Packung,"minimalem,","üblichem,",immer,sprudelnden,mit,"reichlichem,",immer,schon,dank,Packung,"regelmäßigem,",das,uns,"Delikte,",wir,dauerhaftem,"Delikte,",Bluts,auf,dauerte,dem,Farbe,Wohnung,einen,Kilowattstunden,Büschel,vierte,die,obschon,bekannten,Farbe,schmutzige,solch,ich,die,schönen,Stimmung,"nicht,",landen,wir,jetzt,Fahrer,"wertvollem,",sind,den,ich,36,sprudelndes,mit,Kilowattstunden,mit,ich,man,mit,die,solchen,Neuwahlen,warmem,man,viel,"sämtlichem,","Japan,",ausreichendem,richtige,gelegentlich,Blut,,,,,,,,,,,,,,,,,,,,,,,10,0,10,0,0,4,4,4,,,,,,,,space,0.420167207718,,,,,,2017_Jan_31_1209,60.416025075,spr_backupper,001,Di15,
,wurden,Glas,die,seltenem,feinem,roten,Wetter,am,liegen,noch,serviert.,im,Wäsche.,serviert.,Kram,der,mehr,war,würden,Skandals,auf,des,"frischem,",minimalem,den,Krams,frisches,sie,Glas,Lärm,liegen,salziger,sauberen,harten,350,Trinkwassers.,"reichem,",purem,350,immer,täglichem,salzige,kaltem,Auto,die,deren,um,feinem,derer,hat,noch,ungefähr,Mann,geschleudert.,des,gelegentlichen,elektrische,frischen,Bundespräsident.,Störenfriede,sie,Skandal,geschleudert.,Wäsche.,unzureichenden,mehr,Tiere,Wetters,ziemlich,was,im,von,"nachgewiesen,",wurden,klassischen,auf,roten,leider,hätten,Trinkwasser.,einem,elektrischer,einem,leider,eine,zusätzlichem,Störenfriede,unzureichenden,vor,weichem,eine,Lärm,künftigem,die,monatlichem,"Zeit,",einen,hat,,,,,,,,,,,,,,,,,,,,,,,10,0,10,0,0,5,5,5,,,,,,,,space,0.560018062592,,,,,,2017_Jan_31_1209,60.416025075,spr_backupper,001,Di15,
,verschrottet.,köstlicher,Flut,dichten,dichten,Planet,die,Hauptbahnhof.,die,eine,nan,Müll.,nan,nan,aus,Soldaten,als,aus,seiner,wiedergewählt.,jeden,Herrn,kaltem,täglichen,Soldaten,aus,Gras,defekt,köstlichen,um,die,Wurst,Kraftstoff,Schaumstoff,ml,nan,goldenen,Alkohol,ml,ruhig,grünen,Wurst,Abduschen,mehr,Stimmung,sie,die,Kunsteis,sie,den,eine,drei,mehr,nan,Herrn,Besucher.,Energie.,Grases,nan,jeden.,defekt,wiedergewählt.,nan,nan,Helmen,als,artgerecht,die,"vermiest,",Tupperware,Müll.,den,dass,verschrottet.,Schmuck,jeden,Planeten,nichts,seiner,nan,Esslöffel,Energie.,Esslöffel,nichts,große,schwarzem,jeden.,Helmen,Dezember,Untergrund,große,um,Einkommen,er,Taschengeld,um,Besucher.,den,,,,,,,,,,,,,,,,,,,,,,,10,0,10,0,0,6,6,6,,,,,,,,space,0.53586602211,,,,,,2017_Jan_31_1209,60.416025075,spr_backupper,001,Di15,
,nan,Wein,zurückgekehrt.,Gewebe,Stoff,ganz,Wohnung.,nan,Slums.,Sammlung,nan,nan,nan,nan,dem,des,einmal,Japan.,Frau,nan,Fall,Gantenbein.,Saft,Einsatz,des,dem,zwängen.,war.,Weins,jede,Slums.,mit,fahren.,gefertigt.,warme,nan,Besatz,verdünnt.,warmer,diskutiert.,Tee,mit,gehärtet.,als,ziemlich,überführt,Probleme,eingesprüht.,überführt,Boden,Sammlung,Tage.,als,nan,Gantenbeins.,nan,nan,zwängen.,nan,nan,war.,nan,nan,nan,zur,einmal,gehalten.,Wohnung.,dass,ist.,nan,Problemen,das,nan,umgearbeitet.,Fall,ganz,mitbringen.,Frau,nan,warmem,nan,warmen,mitbringen.,Menge,Kaffee,nan,zur,stattfinden.,liegen.,Menge,jede,haftbar.,trug.,selber,Nadelhölzer,nan,Boden,,,,,,,,,,,,,,,,,,,,,,,10,0,10,0,0,7,7,7,,,,,,,,space,0.394405126572,,,,,,2017_Jan_31_1209,60.416025075,spr_backupper,001,Di15,
,nan,schon,nan,wiederhergestellt.,gefertigt.,deutlich.,nan,nan,nan,dummer,nan,nan,nan,nan,Haus,zweiten,Rilke,nan,gepasst,nan,genug.,nan,besprochen.,sinken.,zweiten,Haus,nan,nan,schon,Menge,nan,an,nan,nan,Milch.,nan,rekonstruiert.,nan,Milch.,nan,wieder,an,nan,gerne.,vermiest.,wurden.,im,nan,wurden.,berührt.,dumme,nan,gerne.,nan,nan,nan,nan,nan,nan,nan,nan,nan,nan,nan,Schule.,Rilke.,nan,nan,es,nan,nan,im,Medikament,nan,nan,genug.,deutlich.,nan,gepasst.,nan,Honig,nan,Honigs,nan,dunkle,wiederbelebt.,nan,Schule.,nan,nan,dunkler,Menge,nan,nan,kaufen.,umzusetzen.,nan,berührt.,,,,,,,,,,,,,,,,,,,,,,,10,0,10,0,0,8,8,8,,,,,,,,space,0.474591016769,,,,,,2017_Jan_31_1209,60.416025075,spr_backupper,001,Di15,
,,,,,,,,,,,,,,,,,,,,,,,,,,,,,,,,,,,,,,,,,,,,,,,,,,,,,,,,,,,,,,,,,,,,,,,,,,,,,,,,,,,,,,,,,,,,,,,,,,,,,,,,,,,,,,,,,,,,,,,,,10,0,10,0,,,,,,,,,,,,,,None,n,1.96342897415,,,2017_Jan_31_1209,60.416025075,spr_backupper,001,Di15,
,Die,Bei,Als,Danach,Er,Im,Sie,Die,Am,Sie,Beträchtliche,Viele,Dort,Beträchtliche,Wir,Bei,In,Die,Die,Er,100,Die,Sie,Ihr,Bei,Wir,Wir,Die,Bei,Man,Am,Ich,Wir,Alle,In,Sie,Das,Die,In,Fernab,Ich,Ich,Die,Wir,Dass,Es,In,Die,Es,Nicht,Sie,Der,Wir,Es,Die,Wir,Die,Wir,Walter,Außer,Die,Er,Es,Dort,Die,In,In,Sie,Es,Die,Viele,In,In,Die,Die,100,Im,Außer,Die,Sie,Er,Die,Er,Außer,Mit,Die,Außer,Die,Unter,Jungtiere,Mit,Man,Manche,Die,Jugendliche,Jetzt,Wir,Nicht,,,,,,,,,,,,,,,,,,,,,,,11,0,11,0,0,0,0,0,,,,,,,space,space,0.489098072052,,,,0.58718585968,,2017_Jan_31_1209,60.416025075,spr_backupper,001,Di15,
,Autos,unserer,die,wurde,hat,Fernrohr,verlassen,Linie,äußeren,hatte,Stücke,Tonnen,türmen,Stücke,haben,der,meinem,"Uhr,",Schuhe,wurde,g,Gäste,haben,Blutdruck,der,haben,mussten,Uhr,unserer,machte,äußersten,nehme,konnten,Betten,den,verbrauchen,Tuch,Lösung,den,des,wurde,nehme,Formen,übergaben,es,waren,der,Eislaufbahnen,waren,ein,hatte,Flug,übergaben,wurden,Gäste,hatten,Schule,mussten,Scheel,dem,Uhr,wurde,wurden,türmen,Kinder,meinem,diesem,verlassen,hat,Teilnehmerinnen,Tonnen,der,einer,Autos,Stücke,g,Fernrohr,das,Schuhe,verbrauchen,stellt,Schule,stellt,dem,dieser,müden,den,Kinder,keinen,sollten,dieser,machte,Kreditnehmer,Uhr,können,ist,hatten,ein,,,,,,,,,,,,,,,,,,,,,,,11,0,11,0,0,1,1,1,,,,,,,,space,0.308924913406,,,,,,2017_Jan_31_1209,60.416025075,spr_backupper,001,Di15,
,beider,Ankunft,Sonne,die,ein,sahen,wegen,101,Rand,keine,saftigen,gebrauchter,sich,saftiges,jede,Feier,Studium,die,in,trotz,braunen,suchen,die,kann,Feier,jede,uns,schlug,Ankunft,mal,Rand,eine,dann,wurden,Kakao,60,wurde,wird,Kakao,Rummels,damals,eine,wurden,dem,"regnete,",nur,Tat,wurden,nur,Tropfen,keine,zum,das,Eimer,suchen,in,verbraucht,uns,war,Bürgermeister,schlug,trotz,Eimer,sich,fuhren,Studium,Zirkus,wegen,uns,wussten,gebrauchte,Tat,Studie,beider,wurden,brauner,sahen,Essen,in,60,die,verbraucht,die,Essen,Methode,Teilnehmer,Bürgermeister,fuhren,Umständen,immer,Methode,mal,sind,war,Kleidung,genau,in,Tropfen,,,,,,,,,,,,,,,,,,,,,,,11,0,11,0,0,2,2,2,,,,,,,,space,0.416652917862,,,,,,2017_Jan_31_1209,60.416025075,spr_backupper,001,Di15,
,beteiligter,stand,"unterging,",Leinwand,Hemd,wir,dem,hält,der,Lust,Fleischs,Kleidung,Berge,Fleisch,Menge,gedachte,habe,er,Größe,des,Zuckers,die,Erlebnisse,schon,gedachte,Menge,durch,"sporadisch,",stand,wieder,der,große,mit,mit,gehören,Liter,dann,mit,gehören,wurde,schnell,große,unter,Mann,hat,kleinere,wissen,mit,kleinere,königlichen,Lust,Mond,Auto,roter,die,Dänemark,260.000,durch,der,beschuldigten,"sporadisch,",dem,rote,Berge,mit,las,werden,des,die,überwiegend,Kleidung,wissen,wurde,beteiligten,aus,Zucker,wir,kann,Größe,Liter,Masse,260.000,Masse,kann,kann,wurden,beschuldigten,mit,können,auf,kann,wieder,mit,aus,bei,die,Dänemark,königliches,,,,,,,,,,,,,,,,,,,,,,,11,0,11,0,0,3,3,3,,,,,,,,space,0.319248914719,,,,,,2017_Jan_31_1209,60.416025075,spr_backupper,001,Di15,
,Fahrer,ein,war,aus,aus,den,schönen,nicht,Stadt,auf,wurden,landen,schmutziger,wurden,alten,man,ich,"trug,",36,bekannten,sind,Wohnung,bei,bei,man,alten,Büschel,obwohl,ein,viel,Stadt,Packung,"minimalem,","üblichem,",immer,sprudelnden,mit,"reichlichem,",immer,schon,dank,Packung,"regelmäßigem,",das,uns,"Delikte,",wir,dauerhaftem,"Delikte,",Bluts,auf,dauerte,dem,Farbe,Wohnung,einen,Kilowattstunden,Büschel,vierte,die,obschon,bekannten,Farbe,schmutzige,solch,ich,die,schönen,Stimmung,"nicht,",landen,wir,jetzt,Fahrer,"wertvollem,",sind,den,ich,36,sprudelndes,mit,Kilowattstunden,mit,ich,man,mit,die,solchen,Neuwahlen,warmem,man,viel,"sämtlichem,","Japan,",ausreichendem,richtige,gelegentlich,Blut,,,,,,,,,,,,,,,,,,,,,,,11,0,11,0,0,4,4,4,,,,,,,,space,0.276308059692,,,,,,2017_Jan_31_1209,60.416025075,spr_backupper,001,Di15,
,wurden,Glas,die,seltenem,feinem,roten,Wetter,am,liegen,noch,serviert.,im,Wäsche.,serviert.,Kram,der,mehr,war,würden,Skandals,auf,des,"frischem,",minimalem,den,Krams,frisches,sie,Glas,Lärm,liegen,salziger,sauberen,harten,350,Trinkwassers.,"reichem,",purem,350,immer,täglichem,salzige,kaltem,Auto,die,deren,um,feinem,derer,hat,noch,ungefähr,Mann,geschleudert.,des,gelegentlichen,elektrische,frischen,Bundespräsident.,Störenfriede,sie,Skandal,geschleudert.,Wäsche.,unzureichenden,mehr,Tiere,Wetters,ziemlich,was,im,von,"nachgewiesen,",wurden,klassischen,auf,roten,leider,hätten,Trinkwasser.,einem,elektrischer,einem,leider,eine,zusätzlichem,Störenfriede,unzureichenden,vor,weichem,eine,Lärm,künftigem,die,monatlichem,"Zeit,",einen,hat,,,,,,,,,,,,,,,,,,,,,,,11,0,11,0,0,5,5,5,,,,,,,,space,0.334785938263,,,,,,2017_Jan_31_1209,60.416025075,spr_backupper,001,Di15,
,verschrottet.,köstlicher,Flut,dichten,dichten,Planet,die,Hauptbahnhof.,die,eine,nan,Müll.,nan,nan,aus,Soldaten,als,aus,seiner,wiedergewählt.,jeden,Herrn,kaltem,täglichen,Soldaten,aus,Gras,defekt,köstlichen,um,die,Wurst,Kraftstoff,Schaumstoff,ml,nan,goldenen,Alkohol,ml,ruhig,grünen,Wurst,Abduschen,mehr,Stimmung,sie,die,Kunsteis,sie,den,eine,drei,mehr,nan,Herrn,Besucher.,Energie.,Grases,nan,jeden.,defekt,wiedergewählt.,nan,nan,Helmen,als,artgerecht,die,"vermiest,",Tupperware,Müll.,den,dass,verschrottet.,Schmuck,jeden,Planeten,nichts,seiner,nan,Esslöffel,Energie.,Esslöffel,nichts,große,schwarzem,jeden.,Helmen,Dezember,Untergrund,große,um,Einkommen,er,Taschengeld,um,Besucher.,den,,,,,,,,,,,,,,,,,,,,,,,11,0,11,0,0,6,6,6,,,,,,,,space,0.554214954376,,,,,,2017_Jan_31_1209,60.416025075,spr_backupper,001,Di15,
,nan,Wein,zurückgekehrt.,Gewebe,Stoff,ganz,Wohnung.,nan,Slums.,Sammlung,nan,nan,nan,nan,dem,des,einmal,Japan.,Frau,nan,Fall,Gantenbein.,Saft,Einsatz,des,dem,zwängen.,war.,Weins,jede,Slums.,mit,fahren.,gefertigt.,warme,nan,Besatz,verdünnt.,warmer,diskutiert.,Tee,mit,gehärtet.,als,ziemlich,überführt,Probleme,eingesprüht.,überführt,Boden,Sammlung,Tage.,als,nan,Gantenbeins.,nan,nan,zwängen.,nan,nan,war.,nan,nan,nan,zur,einmal,gehalten.,Wohnung.,dass,ist.,nan,Problemen,das,nan,umgearbeitet.,Fall,ganz,mitbringen.,Frau,nan,warmem,nan,warmen,mitbringen.,Menge,Kaffee,nan,zur,stattfinden.,liegen.,Menge,jede,haftbar.,trug.,selber,Nadelhölzer,nan,Boden,,,,,,,,,,,,,,,,,,,,,,,11,0,11,0,0,7,7,7,,,,,,,,space,2.03787398338,,,,,,2017_Jan_31_1209,60.416025075,spr_backupper,001,Di15,
,,,,,,,,,,,,,,,,,,,,,,,,,,,,,,,,,,,,,,,,,,,,,,,,,,,,,,,,,,,,,,,,,,,,,,,,,,,,,,,,,,,,,,,,,,,,,,,,,,,,,,,,,,,,,,,,,,,,,,,,,11,0,11,0,,,,,,,,,,,,,,None,j,2.31513595581,,,2017_Jan_31_1209,60.416025075,spr_backupper,001,Di15,
,Die,Bei,Als,Danach,Er,Im,Sie,Die,Am,Sie,Beträchtliche,Viele,Dort,Beträchtliche,Wir,Bei,In,Die,Die,Er,100,Die,Sie,Ihr,Bei,Wir,Wir,Die,Bei,Man,Am,Ich,Wir,Alle,In,Sie,Das,Die,In,Fernab,Ich,Ich,Die,Wir,Dass,Es,In,Die,Es,Nicht,Sie,Der,Wir,Es,Die,Wir,Die,Wir,Walter,Außer,Die,Er,Es,Dort,Die,In,In,Sie,Es,Die,Viele,In,In,Die,Die,100,Im,Außer,Die,Sie,Er,Die,Er,Außer,Mit,Die,Außer,Die,Unter,Jungtiere,Mit,Man,Manche,Die,Jugendliche,Jetzt,Wir,Nicht,,,,,,,,,,,,,,,,,,,,,,,12,0,12,0,0,0,0,0,,,,,,,space,space,0.521271944046,,,,1.14030408859,,2017_Jan_31_1209,60.416025075,spr_backupper,001,Di15,
,Autos,unserer,die,wurde,hat,Fernrohr,verlassen,Linie,äußeren,hatte,Stücke,Tonnen,türmen,Stücke,haben,der,meinem,"Uhr,",Schuhe,wurde,g,Gäste,haben,Blutdruck,der,haben,mussten,Uhr,unserer,machte,äußersten,nehme,konnten,Betten,den,verbrauchen,Tuch,Lösung,den,des,wurde,nehme,Formen,übergaben,es,waren,der,Eislaufbahnen,waren,ein,hatte,Flug,übergaben,wurden,Gäste,hatten,Schule,mussten,Scheel,dem,Uhr,wurde,wurden,türmen,Kinder,meinem,diesem,verlassen,hat,Teilnehmerinnen,Tonnen,der,einer,Autos,Stücke,g,Fernrohr,das,Schuhe,verbrauchen,stellt,Schule,stellt,dem,dieser,müden,den,Kinder,keinen,sollten,dieser,machte,Kreditnehmer,Uhr,können,ist,hatten,ein,,,,,,,,,,,,,,,,,,,,,,,12,0,12,0,0,1,1,1,,,,,,,,space,0.66343998909,,,,,,2017_Jan_31_1209,60.416025075,spr_backupper,001,Di15,
,beider,Ankunft,Sonne,die,ein,sahen,wegen,101,Rand,keine,saftigen,gebrauchter,sich,saftiges,jede,Feier,Studium,die,in,trotz,braunen,suchen,die,kann,Feier,jede,uns,schlug,Ankunft,mal,Rand,eine,dann,wurden,Kakao,60,wurde,wird,Kakao,Rummels,damals,eine,wurden,dem,"regnete,",nur,Tat,wurden,nur,Tropfen,keine,zum,das,Eimer,suchen,in,verbraucht,uns,war,Bürgermeister,schlug,trotz,Eimer,sich,fuhren,Studium,Zirkus,wegen,uns,wussten,gebrauchte,Tat,Studie,beider,wurden,brauner,sahen,Essen,in,60,die,verbraucht,die,Essen,Methode,Teilnehmer,Bürgermeister,fuhren,Umständen,immer,Methode,mal,sind,war,Kleidung,genau,in,Tropfen,,,,,,,,,,,,,,,,,,,,,,,12,0,12,0,0,2,2,2,,,,,,,,space,1.54335284233,,,,,,2017_Jan_31_1209,60.416025075,spr_backupper,001,Di15,
,beteiligter,stand,"unterging,",Leinwand,Hemd,wir,dem,hält,der,Lust,Fleischs,Kleidung,Berge,Fleisch,Menge,gedachte,habe,er,Größe,des,Zuckers,die,Erlebnisse,schon,gedachte,Menge,durch,"sporadisch,",stand,wieder,der,große,mit,mit,gehören,Liter,dann,mit,gehören,wurde,schnell,große,unter,Mann,hat,kleinere,wissen,mit,kleinere,königlichen,Lust,Mond,Auto,roter,die,Dänemark,260.000,durch,der,beschuldigten,"sporadisch,",dem,rote,Berge,mit,las,werden,des,die,überwiegend,Kleidung,wissen,wurde,beteiligten,aus,Zucker,wir,kann,Größe,Liter,Masse,260.000,Masse,kann,kann,wurden,beschuldigten,mit,können,auf,kann,wieder,mit,aus,bei,die,Dänemark,königliches,,,,,,,,,,,,,,,,,,,,,,,12,0,12,0,0,3,3,3,,,,,,,,space,0.399627923965,,,,,,2017_Jan_31_1209,60.416025075,spr_backupper,001,Di15,
,Fahrer,ein,war,aus,aus,den,schönen,nicht,Stadt,auf,wurden,landen,schmutziger,wurden,alten,man,ich,"trug,",36,bekannten,sind,Wohnung,bei,bei,man,alten,Büschel,obwohl,ein,viel,Stadt,Packung,"minimalem,","üblichem,",immer,sprudelnden,mit,"reichlichem,",immer,schon,dank,Packung,"regelmäßigem,",das,uns,"Delikte,",wir,dauerhaftem,"Delikte,",Bluts,auf,dauerte,dem,Farbe,Wohnung,einen,Kilowattstunden,Büschel,vierte,die,obschon,bekannten,Farbe,schmutzige,solch,ich,die,schönen,Stimmung,"nicht,",landen,wir,jetzt,Fahrer,"wertvollem,",sind,den,ich,36,sprudelndes,mit,Kilowattstunden,mit,ich,man,mit,die,solchen,Neuwahlen,warmem,man,viel,"sämtlichem,","Japan,",ausreichendem,richtige,gelegentlich,Blut,,,,,,,,,,,,,,,,,,,,,,,12,0,12,0,0,4,4,4,,,,,,,,space,0.342025995255,,,,,,2017_Jan_31_1209,60.416025075,spr_backupper,001,Di15,
,wurden,Glas,die,seltenem,feinem,roten,Wetter,am,liegen,noch,serviert.,im,Wäsche.,serviert.,Kram,der,mehr,war,würden,Skandals,auf,des,"frischem,",minimalem,den,Krams,frisches,sie,Glas,Lärm,liegen,salziger,sauberen,harten,350,Trinkwassers.,"reichem,",purem,350,immer,täglichem,salzige,kaltem,Auto,die,deren,um,feinem,derer,hat,noch,ungefähr,Mann,geschleudert.,des,gelegentlichen,elektrische,frischen,Bundespräsident.,Störenfriede,sie,Skandal,geschleudert.,Wäsche.,unzureichenden,mehr,Tiere,Wetters,ziemlich,was,im,von,"nachgewiesen,",wurden,klassischen,auf,roten,leider,hätten,Trinkwasser.,einem,elektrischer,einem,leider,eine,zusätzlichem,Störenfriede,unzureichenden,vor,weichem,eine,Lärm,künftigem,die,monatlichem,"Zeit,",einen,hat,,,,,,,,,,,,,,,,,,,,,,,12,0,12,0,0,5,5,5,,,,,,,,space,0.353480100632,,,,,,2017_Jan_31_1209,60.416025075,spr_backupper,001,Di15,
,verschrottet.,köstlicher,Flut,dichten,dichten,Planet,die,Hauptbahnhof.,die,eine,nan,Müll.,nan,nan,aus,Soldaten,als,aus,seiner,wiedergewählt.,jeden,Herrn,kaltem,täglichen,Soldaten,aus,Gras,defekt,köstlichen,um,die,Wurst,Kraftstoff,Schaumstoff,ml,nan,goldenen,Alkohol,ml,ruhig,grünen,Wurst,Abduschen,mehr,Stimmung,sie,die,Kunsteis,sie,den,eine,drei,mehr,nan,Herrn,Besucher.,Energie.,Grases,nan,jeden.,defekt,wiedergewählt.,nan,nan,Helmen,als,artgerecht,die,"vermiest,",Tupperware,Müll.,den,dass,verschrottet.,Schmuck,jeden,Planeten,nichts,seiner,nan,Esslöffel,Energie.,Esslöffel,nichts,große,schwarzem,jeden.,Helmen,Dezember,Untergrund,große,um,Einkommen,er,Taschengeld,um,Besucher.,den,,,,,,,,,,,,,,,,,,,,,,,12,0,12,0,0,6,6,6,,,,,,,,space,0.30809378624,,,,,,2017_Jan_31_1209,60.416025075,spr_backupper,001,Di15,
,nan,Wein,zurückgekehrt.,Gewebe,Stoff,ganz,Wohnung.,nan,Slums.,Sammlung,nan,nan,nan,nan,dem,des,einmal,Japan.,Frau,nan,Fall,Gantenbein.,Saft,Einsatz,des,dem,zwängen.,war.,Weins,jede,Slums.,mit,fahren.,gefertigt.,warme,nan,Besatz,verdünnt.,warmer,diskutiert.,Tee,mit,gehärtet.,als,ziemlich,überführt,Probleme,eingesprüht.,überführt,Boden,Sammlung,Tage.,als,nan,Gantenbeins.,nan,nan,zwängen.,nan,nan,war.,nan,nan,nan,zur,einmal,gehalten.,Wohnung.,dass,ist.,nan,Problemen,das,nan,umgearbeitet.,Fall,ganz,mitbringen.,Frau,nan,warmem,nan,warmen,mitbringen.,Menge,Kaffee,nan,zur,stattfinden.,liegen.,Menge,jede,haftbar.,trug.,selber,Nadelhölzer,nan,Boden,,,,,,,,,,,,,,,,,,,,,,,12,0,12,0,0,7,7,7,,,,,,,,space,0.486517190933,,,,,,2017_Jan_31_1209,60.416025075,spr_backupper,001,Di15,
,nan,schon,nan,wiederhergestellt.,gefertigt.,deutlich.,nan,nan,nan,dummer,nan,nan,nan,nan,Haus,zweiten,Rilke,nan,gepasst,nan,genug.,nan,besprochen.,sinken.,zweiten,Haus,nan,nan,schon,Menge,nan,an,nan,nan,Milch.,nan,rekonstruiert.,nan,Milch.,nan,wieder,an,nan,gerne.,vermiest.,wurden.,im,nan,wurden.,berührt.,dumme,nan,gerne.,nan,nan,nan,nan,nan,nan,nan,nan,nan,nan,nan,Schule.,Rilke.,nan,nan,es,nan,nan,im,Medikament,nan,nan,genug.,deutlich.,nan,gepasst.,nan,Honig,nan,Honigs,nan,dunkle,wiederbelebt.,nan,Schule.,nan,nan,dunkler,Menge,nan,nan,kaufen.,umzusetzen.,nan,berührt.,,,,,,,,,,,,,,,,,,,,,,,12,0,12,0,0,8,8,8,,,,,,,,space,0.384092092514,,,,,,2017_Jan_31_1209,60.416025075,spr_backupper,001,Di15,
,,,,,,,,,,,,,,,,,,,,,,,,,,,,,,,,,,,,,,,,,,,,,,,,,,,,,,,,,,,,,,,,,,,,,,,,,,,,,,,,,,,,,,,,,,,,,,,,,,,,,,,,,,,,,,,,,,,,,,,,,12,0,12,0,,,,,,,,,,,,,,None,j,7.44829392433,,,2017_Jan_31_1209,60.416025075,spr_backupper,001,Di15,
,Die,Bei,Als,Danach,Er,Im,Sie,Die,Am,Sie,Beträchtliche,Viele,Dort,Beträchtliche,Wir,Bei,In,Die,Die,Er,100,Die,Sie,Ihr,Bei,Wir,Wir,Die,Bei,Man,Am,Ich,Wir,Alle,In,Sie,Das,Die,In,Fernab,Ich,Ich,Die,Wir,Dass,Es,In,Die,Es,Nicht,Sie,Der,Wir,Es,Die,Wir,Die,Wir,Walter,Außer,Die,Er,Es,Dort,Die,In,In,Sie,Es,Die,Viele,In,In,Die,Die,100,Im,Außer,Die,Sie,Er,Die,Er,Außer,Mit,Die,Außer,Die,Unter,Jungtiere,Mit,Man,Manche,Die,Jugendliche,Jetzt,Wir,Nicht,,,,,,,,,,,,,,,,,,,,,,,13,0,13,0,0,0,0,0,,,,,,,None,space,0.729070901871,,,,,,2017_Jan_31_1209,60.416025075,spr_backupper,001,Di15,
,Autos,unserer,die,wurde,hat,Fernrohr,verlassen,Linie,äußeren,hatte,Stücke,Tonnen,türmen,Stücke,haben,der,meinem,"Uhr,",Schuhe,wurde,g,Gäste,haben,Blutdruck,der,haben,mussten,Uhr,unserer,machte,äußersten,nehme,konnten,Betten,den,verbrauchen,Tuch,Lösung,den,des,wurde,nehme,Formen,übergaben,es,waren,der,Eislaufbahnen,waren,ein,hatte,Flug,übergaben,wurden,Gäste,hatten,Schule,mussten,Scheel,dem,Uhr,wurde,wurden,türmen,Kinder,meinem,diesem,verlassen,hat,Teilnehmerinnen,Tonnen,der,einer,Autos,Stücke,g,Fernrohr,das,Schuhe,verbrauchen,stellt,Schule,stellt,dem,dieser,müden,den,Kinder,keinen,sollten,dieser,machte,Kreditnehmer,Uhr,können,ist,hatten,ein,,,,,,,,,,,,,,,,,,,,,,,13,0,13,0,0,1,1,1,,,,,,,,space,0.373323917389,,,,,,2017_Jan_31_1209,60.416025075,spr_backupper,001,Di15,
,beider,Ankunft,Sonne,die,ein,sahen,wegen,101,Rand,keine,saftigen,gebrauchter,sich,saftiges,jede,Feier,Studium,die,in,trotz,braunen,suchen,die,kann,Feier,jede,uns,schlug,Ankunft,mal,Rand,eine,dann,wurden,Kakao,60,wurde,wird,Kakao,Rummels,damals,eine,wurden,dem,"regnete,",nur,Tat,wurden,nur,Tropfen,keine,zum,das,Eimer,suchen,in,verbraucht,uns,war,Bürgermeister,schlug,trotz,Eimer,sich,fuhren,Studium,Zirkus,wegen,uns,wussten,gebrauchte,Tat,Studie,beider,wurden,brauner,sahen,Essen,in,60,die,verbraucht,die,Essen,Methode,Teilnehmer,Bürgermeister,fuhren,Umständen,immer,Methode,mal,sind,war,Kleidung,genau,in,Tropfen,,,,,,,,,,,,,,,,,,,,,,,13,0,13,0,0,2,2,2,,,,,,,,space,0.49974489212,,,,,,2017_Jan_31_1209,60.416025075,spr_backupper,001,Di15,
,beteiligter,stand,"unterging,",Leinwand,Hemd,wir,dem,hält,der,Lust,Fleischs,Kleidung,Berge,Fleisch,Menge,gedachte,habe,er,Größe,des,Zuckers,die,Erlebnisse,schon,gedachte,Menge,durch,"sporadisch,",stand,wieder,der,große,mit,mit,gehören,Liter,dann,mit,gehören,wurde,schnell,große,unter,Mann,hat,kleinere,wissen,mit,kleinere,königlichen,Lust,Mond,Auto,roter,die,Dänemark,260.000,durch,der,beschuldigten,"sporadisch,",dem,rote,Berge,mit,las,werden,des,die,überwiegend,Kleidung,wissen,wurde,beteiligten,aus,Zucker,wir,kann,Größe,Liter,Masse,260.000,Masse,kann,kann,wurden,beschuldigten,mit,können,auf,kann,wieder,mit,aus,bei,die,Dänemark,königliches,,,,,,,,,,,,,,,,,,,,,,,13,0,13,0,0,3,3,3,,,,,,,,space,0.378201961517,,,,,,2017_Jan_31_1209,60.416025075,spr_backupper,001,Di15,
,Fahrer,ein,war,aus,aus,den,schönen,nicht,Stadt,auf,wurden,landen,schmutziger,wurden,alten,man,ich,"trug,",36,bekannten,sind,Wohnung,bei,bei,man,alten,Büschel,obwohl,ein,viel,Stadt,Packung,"minimalem,","üblichem,",immer,sprudelnden,mit,"reichlichem,",immer,schon,dank,Packung,"regelmäßigem,",das,uns,"Delikte,",wir,dauerhaftem,"Delikte,",Bluts,auf,dauerte,dem,Farbe,Wohnung,einen,Kilowattstunden,Büschel,vierte,die,obschon,bekannten,Farbe,schmutzige,solch,ich,die,schönen,Stimmung,"nicht,",landen,wir,jetzt,Fahrer,"wertvollem,",sind,den,ich,36,sprudelndes,mit,Kilowattstunden,mit,ich,man,mit,die,solchen,Neuwahlen,warmem,man,viel,"sämtlichem,","Japan,",ausreichendem,richtige,gelegentlich,Blut,,,,,,,,,,,,,,,,,,,,,,,13,0,13,0,0,4,4,4,,,,,,,,space,0.309601068497,,,,,,2017_Jan_31_1209,60.416025075,spr_backupper,001,Di15,
,wurden,Glas,die,seltenem,feinem,roten,Wetter,am,liegen,noch,serviert.,im,Wäsche.,serviert.,Kram,der,mehr,war,würden,Skandals,auf,des,"frischem,",minimalem,den,Krams,frisches,sie,Glas,Lärm,liegen,salziger,sauberen,harten,350,Trinkwassers.,"reichem,",purem,350,immer,täglichem,salzige,kaltem,Auto,die,deren,um,feinem,derer,hat,noch,ungefähr,Mann,geschleudert.,des,gelegentlichen,elektrische,frischen,Bundespräsident.,Störenfriede,sie,Skandal,geschleudert.,Wäsche.,unzureichenden,mehr,Tiere,Wetters,ziemlich,was,im,von,"nachgewiesen,",wurden,klassischen,auf,roten,leider,hätten,Trinkwasser.,einem,elektrischer,einem,leider,eine,zusätzlichem,Störenfriede,unzureichenden,vor,weichem,eine,Lärm,künftigem,die,monatlichem,"Zeit,",einen,hat,,,,,,,,,,,,,,,,,,,,,,,13,0,13,0,0,5,5,5,,,,,,,,space,0.302739858627,,,,,,2017_Jan_31_1209,60.416025075,spr_backupper,001,Di15,
,verschrottet.,köstlicher,Flut,dichten,dichten,Planet,die,Hauptbahnhof.,die,eine,nan,Müll.,nan,nan,aus,Soldaten,als,aus,seiner,wiedergewählt.,jeden,Herrn,kaltem,täglichen,Soldaten,aus,Gras,defekt,köstlichen,um,die,Wurst,Kraftstoff,Schaumstoff,ml,nan,goldenen,Alkohol,ml,ruhig,grünen,Wurst,Abduschen,mehr,Stimmung,sie,die,Kunsteis,sie,den,eine,drei,mehr,nan,Herrn,Besucher.,Energie.,Grases,nan,jeden.,defekt,wiedergewählt.,nan,nan,Helmen,als,artgerecht,die,"vermiest,",Tupperware,Müll.,den,dass,verschrottet.,Schmuck,jeden,Planeten,nichts,seiner,nan,Esslöffel,Energie.,Esslöffel,nichts,große,schwarzem,jeden.,Helmen,Dezember,Untergrund,große,um,Einkommen,er,Taschengeld,um,Besucher.,den,,,,,,,,,,,,,,,,,,,,,,,13,0,13,0,0,6,6,6,,,,,,,,space,0.501747846603,,,,,,2017_Jan_31_1209,60.416025075,spr_backupper,001,Di15,
,,,,,,,,,,,,,,,,,,,,,,,,,,,,,,,,,,,,,,,,,,,,,,,,,,,,,,,,,,,,,,,,,,,,,,,,,,,,,,,,,,,,,,,,,,,,,,,,,,,,,,,,,,,,,,,,,,,,,,,,,13,0,13,0,,,,,,,,,,,,,,None,n,2.71372008324,,,2017_Jan_31_1209,60.416025075,spr_backupper,001,Di15,
,Die,Bei,Als,Danach,Er,Im,Sie,Die,Am,Sie,Beträchtliche,Viele,Dort,Beträchtliche,Wir,Bei,In,Die,Die,Er,100,Die,Sie,Ihr,Bei,Wir,Wir,Die,Bei,Man,Am,Ich,Wir,Alle,In,Sie,Das,Die,In,Fernab,Ich,Ich,Die,Wir,Dass,Es,In,Die,Es,Nicht,Sie,Der,Wir,Es,Die,Wir,Die,Wir,Walter,Außer,Die,Er,Es,Dort,Die,In,In,Sie,Es,Die,Viele,In,In,Die,Die,100,Im,Außer,Die,Sie,Er,Die,Er,Außer,Mit,Die,Außer,Die,Unter,Jungtiere,Mit,Man,Manche,Die,Jugendliche,Jetzt,Wir,Nicht,,,,,,,,,,,,,,,,,,,,,,,14,0,14,0,0,0,0,0,,,,,,,None,space,0.754142999649,,,,,,2017_Jan_31_1209,60.416025075,spr_backupper,001,Di15,
