text,sent48,sent9,sent8,sent15,sent3,sent2,sent1,sent14,sent7,sent6,sent5,sent4,sent57,sent56,sent55,sent54,sent53,sent52,sent51,sent50,sent13,sent12,sent11,sent10,sent17,sent16,sent59,sent58,sent93,sent92,sent91,sent90,sent97,sent96,sent95,sent94,sent98,sent22,sent23,sent20,sent21,sent26,sent27,sent24,sent25,sent28,sent29,sent68,sent69,sent66,sent67,sent64,sent65,sent62,sent63,sent60,sent61,sent31,sent30,sent33,sent32,sent35,sent34,sent37,sent36,sent39,sent38,sent79,sent78,sent75,sent74,sent77,sent76,sent71,sent70,sent73,sent72,sent19,sent49,sent18,sent44,sent45,sent84,sent85,sent86,sent87,sent80,sent81,sent82,sent83,sent40,sent41,sent42,sent43,sent88,sent89,sent46,sent47,intros.thisRepN,intros.thisTrialN,intros.thisN,intros.thisIndex,trials.thisRepN,trials.thisTrialN,trials.thisN,trials.thisIndex,testWords.thisRepN,testWords.thisTrialN,testWords.thisN,testWords.thisIndex,test1,test3,test2,test5,test4,test7,test6,test9,test8,test10,realTrials.thisRepN,realTrials.thisTrialN,realTrials.thisN,realTrials.thisIndex,words.thisRepN,words.thisTrialN,words.thisN,words.thisIndex,key_resp_3.keys,key_resp_3.rt,key_resp_8.keys,key_resp_8.rt,key_resp_10.keys,key_resp_10.rt,key_resp_6.keys,wordRead.keys,wordRead.rt,key_resp_5.keys,questAnswer.keys,questAnswer.rt,key_resp_6.rt,key_resp_5.rt,date,frameRate,expName,session,participant,
"Vielen Dank, dass Sie an diesem Experiment teilnehmen. Vor dem eigentlichen Experiment sehen Sie nun zuerst eine kurze Erläuterung, und Sie absolvieren ein kurze Übungsphase.

Das Experiment dauert insgesamt nicht mehr als 45 Minuten.",,,,,,,,,,,,,,,,,,,,,,,,,,,,,,,,,,,,,,,,,,,,,,,,,,,,,,,,,,,,,,,,,,,,,,,,,,,,,,,,,,,,,,,,,,,,,,,,,,,0,0,0,0,,,,,,,,,,,,,,,,,,,,,,,,,,,,,,,,,,,,,,,,,2017_Jan_24_1559,59.8587698016,spr_backupper,001,Di16,
"In diesem Experiment lesen Sie deutsche Sätze, indem Sie sich von Wort zu Wort mit der Leertaste durch den Satz klicken.",,,,,,,,,,,,,,,,,,,,,,,,,,,,,,,,,,,,,,,,,,,,,,,,,,,,,,,,,,,,,,,,,,,,,,,,,,,,,,,,,,,,,,,,,,,,,,,,,,,0,1,1,1,,,,,,,,,,,,,,,,,,,,,,,,,,,,,,,,,,,,,,,,,2017_Jan_24_1559,59.8587698016,spr_backupper,001,Di16,
"Sie sehen dabei immer nur das aktuelle Wort. Die Lesegeschwindigkeit bestimmen Sie vollständig selber. Vor jedem Satz sehen Sie in der Bildschirmmitte für zwei Sekunden ein + an der Stelle, an der dann die Wörter erscheinen.",,,,,,,,,,,,,,,,,,,,,,,,,,,,,,,,,,,,,,,,,,,,,,,,,,,,,,,,,,,,,,,,,,,,,,,,,,,,,,,,,,,,,,,,,,,,,,,,,,,0,2,2,2,,,,,,,,,,,,,,,,,,,,,,,,,,,,,,,,,,,,,,,,,2017_Jan_24_1559,59.8587698016,spr_backupper,001,Di16,
"Nach jedem Satz wird Ihnen eine Ja/Nein-Verständnisfrage zum zuvor gelesenen Satz gestellt, die Sie mit der J-Taste für "Ja" und der N-Taste für "Nein" beantworten. Antworten Sie möglichst spontan und ohne lange Nachzudenken.",,,,,,,,,,,,,,,,,,,,,,,,,,,,,,,,,,,,,,,,,,,,,,,,,,,,,,,,,,,,,,,,,,,,,,,,,,,,,,,,,,,,,,,,,,,,,,,,,,,0,3,3,3,,,,,,,,,,,,,,,,,,,,,,,,,,,,,,,,,,,,,,,,,2017_Jan_24_1559,59.8587698016,spr_backupper,001,Di16,
"Unterbrechen Sie das Experiment bitte auf keinen Fall, stellen Sie den ExperimentatorInnen nach dem Experimentbeginn keine Fragen, und lassen Sie sich nicht durch Umgebungsgeräusche ablenken.",,,,,,,,,,,,,,,,,,,,,,,,,,,,,,,,,,,,,,,,,,,,,,,,,,,,,,,,,,,,,,,,,,,,,,,,,,,,,,,,,,,,,,,,,,,,,,,,,,,0,4,4,4,,,,,,,,,,,,,,,,,,,,,,,,,,,,,,,,,,,,,,,,,2017_Jan_24_1559,59.8587698016,spr_backupper,001,Di16,
"Im nächsten Schritt beantworten Sie bitte eine Frage zu Ihren Deutschkenntnissen. Danach beginnt eine Übungseinheit, mit der Sie sich an die Art der Durchführung dieses Experiments gewöhnen können.",,,,,,,,,,,,,,,,,,,,,,,,,,,,,,,,,,,,,,,,,,,,,,,,,,,,,,,,,,,,,,,,,,,,,,,,,,,,,,,,,,,,,,,,,,,,,,,,,,,0,5,5,5,,,,,,,,,,,,,,,,,,,,,,,,,,,,,,,,,,,,,,,,,2017_Jan_24_1559,59.8587698016,spr_backupper,001,Di16,
,,,,,,,,,,,,,,,,,,,,,,,,,,,,,,,,,,,,,,,,,,,,,,,,,,,,,,,,,,,,,,,,,,,,,,,,,,,,,,,,,,,,,,,,,,,,,,,,,,,,,,,,,,,,,,,,,,,,,,,,,,,,,,,,,j,10.7497589588,,,,,,,,,,,,,2017_Jan_24_1559,59.8587698016,spr_backupper,001,Di16,
,,,,,,,,,,,,,,,,,,,,,,,,,,,,,,,,,,,,,,,,,,,,,,,,,,,,,,,,,,,,,,,,,,,,,,,,,,,,,,,,,,,,,,,,,,,,,,,,,,,,,,,0,0,0,0,,,,,,,,,,,,,,,,,,,,,,,,,None,,,,,,,,,,,,2017_Jan_24_1559,59.8587698016,spr_backupper,001,Di16,
,,,,,,,,,,,,,,,,,,,,,,,,,,,,,,,,,,,,,,,,,,,,,,,,,,,,,,,,,,,,,,,,,,,,,,,,,,,,,,,,,,,,,,,,,,,,,,,,,,,,,,,1,0,1,0,,,,,,,,,,,,,,,,,,,,,,,,,None,,,,,,,,,,,,2017_Jan_24_1559,59.8587698016,spr_backupper,001,Di16,
,,,,,,,,,,,,,,,,,,,,,,,,,,,,,,,,,,,,,,,,,,,,,,,,,,,,,,,,,,,,,,,,,,,,,,,,,,,,,,,,,,,,,,,,,,,,,,,,,,,,,,,2,0,2,0,,,,,,,,,,,,,,,,,,,,,,,,,None,,,,,,,,,,,,2017_Jan_24_1559,59.8587698016,spr_backupper,001,Di16,
,,,,,,,,,,,,,,,,,,,,,,,,,,,,,,,,,,,,,,,,,,,,,,,,,,,,,,,,,,,,,,,,,,,,,,,,,,,,,,,,,,,,,,,,,,,,,,,,,,,,,,,3,0,3,0,,,,,,,,,,,,,,,,,,,,,,,,,None,,,,,,,,,,,,2017_Jan_24_1559,59.8587698016,spr_backupper,001,Di16,
,,,,,,,,,,,,,,,,,,,,,,,,,,,,,,,,,,,,,,,,,,,,,,,,,,,,,,,,,,,,,,,,,,,,,,,,,,,,,,,,,,,,,,,,,,,,,,,,,,,,,,,4,0,4,0,,,,,,,,,,,,,,,,,,,,,,,,,None,,,,,,,,,,,,2017_Jan_24_1559,59.8587698016,spr_backupper,001,Di16,
,,,,,,,,,,,,,,,,,,,,,,,,,,,,,,,,,,,,,,,,,,,,,,,,,,,,,,,,,,,,,,,,,,,,,,,,,,,,,,,,,,,,,,,,,,,,,,,,,,,,,,,5,0,5,0,,,,,,,,,,,,,,,,,,,,,,,,,None,,,,,,,,,,,,2017_Jan_24_1559,59.8587698016,spr_backupper,001,Di16,
,,,,,,,,,,,,,,,,,,,,,,,,,,,,,,,,,,,,,,,,,,,,,,,,,,,,,,,,,,,,,,,,,,,,,,,,,,,,,,,,,,,,,,,,,,,,,,,,,,,,,,,6,0,6,0,,,,,,,,,,,,,,,,,,,,,,,,,None,,,,,,,,,,,,2017_Jan_24_1559,59.8587698016,spr_backupper,001,Di16,
,,,,,,,,,,,,,,,,,,,,,,,,,,,,,,,,,,,,,,,,,,,,,,,,,,,,,,,,,,,,,,,,,,,,,,,,,,,,,,,,,,,,,,,,,,,,,,,,,,,,,,,7,0,7,0,,,,,,,,,,,,,,,,,,,,,,,,,space,1.02311301231,,,,,,,,,,,2017_Jan_24_1559,59.8587698016,spr_backupper,001,Di16,
,,,,,,,,,,,,,,,,,,,,,,,,,,,,,,,,,,,,,,,,,,,,,,,,,,,,,,,,,,,,,,,,,,,,,,,,,,,,,,,,,,,,,,,,,,,,,,,,,,,,,,,8,0,8,0,,,,,,,,,,,,,,,,,,,,,,,,,None,,,,,,,,,,,,2017_Jan_24_1559,59.8587698016,spr_backupper,001,Di16,
,,,,,,,,,,,,,,,,,,,,,,,,,,,,,,,,,,,,,,,,,,,,,,,,,,,,,,,,,,,,,,,,,,,,,,,,,,,,,,,,,,,,,,,,,,,,,,,,,,,,,,,9,0,9,0,,,,,,,,,,,,,,,,,,,,,,,,,None,,,,,,,,,,,,2017_Jan_24_1559,59.8587698016,spr_backupper,001,Di16,
,,,,,,,,,,,,,,,,,,,,,,,,,,,,,,,,,,,,,,,,,,,,,,,,,,,,,,,,,,,,,,,,,,,,,,,,,,,,,,,,,,,,,,,,,,,,,,,,,,,,,,,,,,,,,,,,,,,,,,,,,,,,,,,,,,,,,space,3.80663299561,,,,,,,,,2017_Jan_24_1559,59.8587698016,spr_backupper,001,Di16,
,Wir,In,Die,Am,Die,Sie,Er,Bei,100,Mit,Es,Die,Die,Dass,Es,Wir,Die,Er,Ihr,Er,Die,Sie,Man,Er,In,Jungtiere,Es,Die,Manche,Sie,Die,In,Bei,Er,100,In,Sie,Ich,Bei,Unter,Wir,Es,Dort,Die,In,Wir,Es,In,In,Fernab,Außer,Dort,Sie,Walter,Die,Die,Sie,Jetzt,Jugendliche,Die,Das,Wir,Der,Außer,Im,Außer,Die,Am,Ich,Die,Viele,Wir,Ich,Wir,Die,Beträchtliche,Die,Beträchtliche,Die,Wir,Die,Die,Wir,Man,Im,Mit,Nicht,Als,Bei,Die,Sie,Die,Viele,Alle,Danach,Außer,Nicht,In,,,,,,,,,,,,,,,,,,,,,,,0,0,0,0,0,0,0,0,,,,,,,None,space,0.434863090515,,,,,,2017_Jan_24_1559,59.8587698016,spr_backupper,001,Di16,
,haben,den,Teilnehmerinnen,äußersten,Eislaufbahnen,verbrauchen,stellt,der,g,dieser,hat,Stücke,Schuhe,es,waren,hatten,Lösung,stellt,Blutdruck,wurde,Uhr,hatte,machte,wurde,der,sollten,wurden,Schule,Kreditnehmer,verbrauchen,Kinder,meinem,unserer,hat,g,der,verlassen,nehme,unserer,keinen,hatten,wurden,türmen,Gäste,meinem,konnten,waren,diesem,den,des,dem,türmen,hatte,Scheel,Formen,Uhr,haben,ist,können,müden,Tuch,mussten,Flug,dem,Fernrohr,den,Schule,äußeren,nehme,Uhr,Tonnen,mussten,wurde,haben,Linie,Stücke,Gäste,Stücke,"Uhr,",übergaben,Schuhe,Kinder,übergaben,machte,Fernrohr,dieser,ein,die,der,Autos,verlassen,Autos,Tonnen,Betten,wurde,das,ein,einer,,,,,,,,,,,,,,,,,,,,,,,0,0,0,0,0,1,1,1,,,,,,,,space,0.835470199585,,,,,,2017_Jan_24_1559,59.8587698016,spr_backupper,001,Di16,
,jede,Kakao,wussten,Rand,wurden,60,die,Feier,brauner,Methode,uns,wurden,in,"regnete,",nur,in,wird,die,kann,trotz,schlug,keine,mal,trotz,Tat,immer,Eimer,verbraucht,sind,60,fuhren,Studium,Ankunft,ein,braunen,Tat,wegen,eine,Ankunft,Umständen,in,Eimer,sich,suchen,Studium,dann,nur,Zirkus,Kakao,Rummels,Bürgermeister,sich,keine,war,wurden,war,die,genau,Kleidung,Teilnehmer,wurde,uns,zum,Essen,sahen,Bürgermeister,verbraucht,Rand,eine,schlug,gebrauchter,uns,damals,jede,101,saftigen,suchen,saftiges,die,das,in,fuhren,dem,mal,sahen,Methode,Tropfen,Sonne,Feier,beider,wegen,beider,gebrauchte,wurden,die,Essen,Tropfen,Studie,,,,,,,,,,,,,,,,,,,,,,,0,0,0,0,0,2,2,2,,,,,,,,space,0.453702926636,,,,,,2017_Jan_24_1559,59.8587698016,spr_backupper,001,Di16,
,Menge,gehören,überwiegend,der,mit,Liter,Masse,gedachte,Zucker,kann,die,aus,Größe,hat,kleinere,Dänemark,mit,Masse,schon,dem,"sporadisch,",Lust,wieder,des,wissen,auf,rote,260.000,mit,Liter,mit,las,stand,Hemd,Zuckers,wissen,dem,große,stand,können,Dänemark,roter,Berge,die,habe,mit,kleinere,werden,gehören,wurde,beschuldigten,Berge,Lust,der,unter,aus,Erlebnisse,die,bei,wurden,dann,durch,Mond,kann,wir,beschuldigten,260.000,der,große,"sporadisch,",Kleidung,durch,schnell,Menge,hält,Fleischs,die,Fleisch,er,Auto,Größe,mit,Mann,wieder,wir,kann,königliches,"unterging,",gedachte,beteiligter,des,beteiligten,Kleidung,mit,Leinwand,kann,königlichen,wurde,,,,,,,,,,,,,,,,,,,,,,,0,0,0,0,0,3,3,3,,,,,,,,space,1.3721780777,,,,,,2017_Jan_24_1559,59.8587698016,spr_backupper,001,Di16,
,alten,immer,"nicht,",Stadt,dauerhaftem,sprudelnden,mit,man,sind,man,Stimmung,"wertvollem,",36,uns,"Delikte,",gelegentlich,"reichlichem,",mit,bei,bekannten,obwohl,auf,viel,bekannten,wir,warmem,Farbe,Kilowattstunden,"sämtlichem,",sprudelndes,solch,ich,ein,aus,sind,wir,schönen,Packung,ein,Neuwahlen,einen,Farbe,schmutziger,Wohnung,ich,"minimalem,","Delikte,",die,immer,schon,die,schmutzige,auf,vierte,"regelmäßigem,","Japan,",bei,richtige,ausreichendem,mit,mit,Büschel,dauerte,ich,den,die,Kilowattstunden,Stadt,Packung,obschon,landen,Büschel,dank,alten,nicht,wurden,Wohnung,wurden,"trug,",dem,36,solchen,das,viel,den,man,Blut,war,man,Fahrer,schönen,Fahrer,landen,"üblichem,",aus,ich,Bluts,jetzt,,,,,,,,,,,,,,,,,,,,,,,0,0,0,0,0,4,4,4,,,,,,,,space,0.705256938934,,,,,,2017_Jan_24_1559,59.8587698016,spr_backupper,001,Di16,
,Kram,350,was,liegen,feinem,Trinkwassers.,einem,der,auf,eine,ziemlich,klassischen,hätten,die,deren,einen,purem,einem,minimalem,Skandal,sie,noch,Lärm,Skandals,von,weichem,geschleudert.,elektrischer,künftigem,Trinkwasser.,unzureichenden,mehr,Glas,feinem,auf,um,Wetter,salziger,Glas,vor,gelegentlichen,geschleudert.,Wäsche.,des,mehr,sauberen,derer,Tiere,350,immer,Störenfriede,Wäsche.,noch,Bundespräsident.,kaltem,die,"frischem,","Zeit,",monatlichem,zusätzlichem,"reichem,",frisches,ungefähr,leider,roten,Störenfriede,elektrische,liegen,salzige,sie,im,frischen,täglichem,Krams,am,serviert.,des,serviert.,war,Mann,würden,unzureichenden,Auto,Lärm,roten,eine,hat,die,den,wurden,Wetters,wurden,im,harten,seltenem,leider,hat,"nachgewiesen,",,,,,,,,,,,,,,,,,,,,,,,0,0,0,0,0,5,5,5,,,,,,,,space,1.23271679878,,,,,,2017_Jan_24_1559,59.8587698016,spr_backupper,001,Di16,
,aus,ml,Tupperware,die,Kunsteis,nan,Esslöffel,Soldaten,jeden,große,"vermiest,",Schmuck,seiner,Stimmung,sie,Besucher.,Alkohol,Esslöffel,täglichen,wiedergewählt.,defekt,eine,um,wiedergewählt.,den,Untergrund,nan,Energie.,Einkommen,nan,Helmen,als,köstlicher,dichten,jeden,die,die,Wurst,köstlichen,Dezember,Besucher.,nan,nan,Herrn,als,Kraftstoff,sie,artgerecht,ml,ruhig,jeden.,nan,eine,nan,Abduschen,er,kaltem,um,Taschengeld,schwarzem,goldenen,Gras,drei,nichts,Planeten,jeden.,Energie.,die,Wurst,defekt,Müll.,Grases,grünen,aus,Hauptbahnhof.,nan,Herrn,nan,aus,mehr,seiner,Helmen,mehr,um,Planet,große,den,Flut,Soldaten,verschrottet.,die,verschrottet.,Müll.,Schaumstoff,dichten,nichts,den,dass,,,,,,,,,,,,,,,,,,,,,,,0,0,0,0,0,6,6,6,,,,,,,,space,0.559471130371,,,,,,2017_Jan_24_1559,59.8587698016,spr_backupper,001,Di16,
,dem,warme,ist.,Slums.,eingesprüht.,nan,warmen,des,Fall,Menge,dass,umgearbeitet.,Frau,ziemlich,überführt,nan,verdünnt.,warmem,Einsatz,nan,war.,Sammlung,jede,nan,Problemen,liegen.,nan,nan,haftbar.,nan,zur,einmal,Wein,Stoff,Fall,Probleme,Wohnung.,mit,Weins,stattfinden.,nan,nan,nan,Gantenbeins.,einmal,fahren.,überführt,gehalten.,warmer,diskutiert.,nan,nan,Sammlung,nan,gehärtet.,trug.,Saft,Nadelhölzer,selber,Kaffee,Besatz,zwängen.,Tage.,mitbringen.,ganz,nan,nan,Slums.,mit,war.,nan,zwängen.,Tee,dem,nan,nan,Gantenbein.,nan,Japan.,als,Frau,zur,als,jede,ganz,Menge,Boden,zurückgekehrt.,des,nan,Wohnung.,nan,nan,gefertigt.,Gewebe,mitbringen.,Boden,das,,,,,,,,,,,,,,,,,,,,,,,0,0,0,0,0,7,7,7,,,,,,,,space,1.45337891579,,,,,,2017_Jan_24_1559,59.8587698016,spr_backupper,001,Di16,
,Haus,Milch.,nan,nan,nan,nan,Honigs,zweiten,genug.,dunkle,es,nan,gepasst.,vermiest.,wurden.,nan,nan,Honig,sinken.,nan,nan,dumme,Menge,nan,im,nan,nan,nan,nan,nan,Schule.,Rilke.,schon,gefertigt.,genug.,im,nan,an,schon,nan,nan,nan,nan,nan,Rilke,nan,wurden.,nan,Milch.,nan,nan,nan,dummer,nan,nan,nan,besprochen.,umzusetzen.,kaufen.,wiederbelebt.,rekonstruiert.,nan,nan,nan,deutlich.,nan,nan,nan,an,nan,nan,nan,wieder,Haus,nan,nan,nan,nan,nan,gerne.,gepasst,Schule.,gerne.,Menge,deutlich.,dunkler,berührt.,nan,zweiten,nan,nan,nan,nan,nan,wiederhergestellt.,nan,berührt.,Medikament,,,,,,,,,,,,,,,,,,,,,,,0,0,0,0,0,8,8,8,,,,,,,,space,0.755028009415,,,,,,2017_Jan_24_1559,59.8587698016,spr_backupper,001,Di16,
,geschafft.,nan,nan,nan,nan,nan,her.,Weltkriegs.,nan,Materie,regnete.,nan,nan,nan,nan,nan,nan,her.,nan,nan,nan,Sprüche.,heißer,nan,Landkreis.,nan,nan,nan,nan,nan,nan,nan,auf,nan,nan,Landkreis.,nan,den,auf,nan,nan,nan,nan,nan,gelesen.,nan,nan,nan,nan,nan,nan,nan,Sprüche.,nan,nan,nan,nan,nan,nan,nan,nan,nan,nan,nan,nan,nan,nan,nan,den,nan,nan,nan,fit.,geschafft.,nan,nan,nan,nan,nan,nan,haben.,nan,nan,heiße,nan,Materie,nan,nan,Weltkriegs.,nan,nan,nan,nan,nan,nan,nan,nan,nicht,,,,,,,,,,,,,,,,,,,,,,,0,0,0,0,0,9,9,9,,,,,,,,space,1.64453983307,,,,,,2017_Jan_24_1559,59.8587698016,spr_backupper,001,Di16,
,,,,,,,,,,,,,,,,,,,,,,,,,,,,,,,,,,,,,,,,,,,,,,,,,,,,,,,,,,,,,,,,,,,,,,,,,,,,,,,,,,,,,,,,,,,,,,,,,,,,,,,,,,,,,,,,,,,,,,,,,0,0,0,0,,,,,,,,,,,,,,None,j,10.5319900513,,,2017_Jan_24_1559,59.8587698016,spr_backupper,001,Di16,
,Wir,In,Die,Am,Die,Sie,Er,Bei,100,Mit,Es,Die,Die,Dass,Es,Wir,Die,Er,Ihr,Er,Die,Sie,Man,Er,In,Jungtiere,Es,Die,Manche,Sie,Die,In,Bei,Er,100,In,Sie,Ich,Bei,Unter,Wir,Es,Dort,Die,In,Wir,Es,In,In,Fernab,Außer,Dort,Sie,Walter,Die,Die,Sie,Jetzt,Jugendliche,Die,Das,Wir,Der,Außer,Im,Außer,Die,Am,Ich,Die,Viele,Wir,Ich,Wir,Die,Beträchtliche,Die,Beträchtliche,Die,Wir,Die,Die,Wir,Man,Im,Mit,Nicht,Als,Bei,Die,Sie,Die,Viele,Alle,Danach,Außer,Nicht,In,,,,,,,,,,,,,,,,,,,,,,,1,0,1,0,0,0,0,0,,,,,,,space,space,0.408793926239,,,,0.670460939407,,2017_Jan_24_1559,59.8587698016,spr_backupper,001,Di16,
,haben,den,Teilnehmerinnen,äußersten,Eislaufbahnen,verbrauchen,stellt,der,g,dieser,hat,Stücke,Schuhe,es,waren,hatten,Lösung,stellt,Blutdruck,wurde,Uhr,hatte,machte,wurde,der,sollten,wurden,Schule,Kreditnehmer,verbrauchen,Kinder,meinem,unserer,hat,g,der,verlassen,nehme,unserer,keinen,hatten,wurden,türmen,Gäste,meinem,konnten,waren,diesem,den,des,dem,türmen,hatte,Scheel,Formen,Uhr,haben,ist,können,müden,Tuch,mussten,Flug,dem,Fernrohr,den,Schule,äußeren,nehme,Uhr,Tonnen,mussten,wurde,haben,Linie,Stücke,Gäste,Stücke,"Uhr,",übergaben,Schuhe,Kinder,übergaben,machte,Fernrohr,dieser,ein,die,der,Autos,verlassen,Autos,Tonnen,Betten,wurde,das,ein,einer,,,,,,,,,,,,,,,,,,,,,,,1,0,1,0,0,1,1,1,,,,,,,,space,0.642980098724,,,,,,2017_Jan_24_1559,59.8587698016,spr_backupper,001,Di16,
,jede,Kakao,wussten,Rand,wurden,60,die,Feier,brauner,Methode,uns,wurden,in,"regnete,",nur,in,wird,die,kann,trotz,schlug,keine,mal,trotz,Tat,immer,Eimer,verbraucht,sind,60,fuhren,Studium,Ankunft,ein,braunen,Tat,wegen,eine,Ankunft,Umständen,in,Eimer,sich,suchen,Studium,dann,nur,Zirkus,Kakao,Rummels,Bürgermeister,sich,keine,war,wurden,war,die,genau,Kleidung,Teilnehmer,wurde,uns,zum,Essen,sahen,Bürgermeister,verbraucht,Rand,eine,schlug,gebrauchter,uns,damals,jede,101,saftigen,suchen,saftiges,die,das,in,fuhren,dem,mal,sahen,Methode,Tropfen,Sonne,Feier,beider,wegen,beider,gebrauchte,wurden,die,Essen,Tropfen,Studie,,,,,,,,,,,,,,,,,,,,,,,1,0,1,0,0,2,2,2,,,,,,,,space,0.509238958359,,,,,,2017_Jan_24_1559,59.8587698016,spr_backupper,001,Di16,
,Menge,gehören,überwiegend,der,mit,Liter,Masse,gedachte,Zucker,kann,die,aus,Größe,hat,kleinere,Dänemark,mit,Masse,schon,dem,"sporadisch,",Lust,wieder,des,wissen,auf,rote,260.000,mit,Liter,mit,las,stand,Hemd,Zuckers,wissen,dem,große,stand,können,Dänemark,roter,Berge,die,habe,mit,kleinere,werden,gehören,wurde,beschuldigten,Berge,Lust,der,unter,aus,Erlebnisse,die,bei,wurden,dann,durch,Mond,kann,wir,beschuldigten,260.000,der,große,"sporadisch,",Kleidung,durch,schnell,Menge,hält,Fleischs,die,Fleisch,er,Auto,Größe,mit,Mann,wieder,wir,kann,königliches,"unterging,",gedachte,beteiligter,des,beteiligten,Kleidung,mit,Leinwand,kann,königlichen,wurde,,,,,,,,,,,,,,,,,,,,,,,1,0,1,0,0,3,3,3,,,,,,,,space,0.392161846161,,,,,,2017_Jan_24_1559,59.8587698016,spr_backupper,001,Di16,
,alten,immer,"nicht,",Stadt,dauerhaftem,sprudelnden,mit,man,sind,man,Stimmung,"wertvollem,",36,uns,"Delikte,",gelegentlich,"reichlichem,",mit,bei,bekannten,obwohl,auf,viel,bekannten,wir,warmem,Farbe,Kilowattstunden,"sämtlichem,",sprudelndes,solch,ich,ein,aus,sind,wir,schönen,Packung,ein,Neuwahlen,einen,Farbe,schmutziger,Wohnung,ich,"minimalem,","Delikte,",die,immer,schon,die,schmutzige,auf,vierte,"regelmäßigem,","Japan,",bei,richtige,ausreichendem,mit,mit,Büschel,dauerte,ich,den,die,Kilowattstunden,Stadt,Packung,obschon,landen,Büschel,dank,alten,nicht,wurden,Wohnung,wurden,"trug,",dem,36,solchen,das,viel,den,man,Blut,war,man,Fahrer,schönen,Fahrer,landen,"üblichem,",aus,ich,Bluts,jetzt,,,,,,,,,,,,,,,,,,,,,,,1,0,1,0,0,4,4,4,,,,,,,,space,0.607465982437,,,,,,2017_Jan_24_1559,59.8587698016,spr_backupper,001,Di16,
,Kram,350,was,liegen,feinem,Trinkwassers.,einem,der,auf,eine,ziemlich,klassischen,hätten,die,deren,einen,purem,einem,minimalem,Skandal,sie,noch,Lärm,Skandals,von,weichem,geschleudert.,elektrischer,künftigem,Trinkwasser.,unzureichenden,mehr,Glas,feinem,auf,um,Wetter,salziger,Glas,vor,gelegentlichen,geschleudert.,Wäsche.,des,mehr,sauberen,derer,Tiere,350,immer,Störenfriede,Wäsche.,noch,Bundespräsident.,kaltem,die,"frischem,","Zeit,",monatlichem,zusätzlichem,"reichem,",frisches,ungefähr,leider,roten,Störenfriede,elektrische,liegen,salzige,sie,im,frischen,täglichem,Krams,am,serviert.,des,serviert.,war,Mann,würden,unzureichenden,Auto,Lärm,roten,eine,hat,die,den,wurden,Wetters,wurden,im,harten,seltenem,leider,hat,"nachgewiesen,",,,,,,,,,,,,,,,,,,,,,,,1,0,1,0,0,5,5,5,,,,,,,,space,1.07436299324,,,,,,2017_Jan_24_1559,59.8587698016,spr_backupper,001,Di16,
,,,,,,,,,,,,,,,,,,,,,,,,,,,,,,,,,,,,,,,,,,,,,,,,,,,,,,,,,,,,,,,,,,,,,,,,,,,,,,,,,,,,,,,,,,,,,,,,,,,,,,,,,,,,,,,,,,,,,,,,,1,0,1,0,,,,,,,,,,,,,,None,n,14.2143919468,,,2017_Jan_24_1559,59.8587698016,spr_backupper,001,Di16,
,Wir,In,Die,Am,Die,Sie,Er,Bei,100,Mit,Es,Die,Die,Dass,Es,Wir,Die,Er,Ihr,Er,Die,Sie,Man,Er,In,Jungtiere,Es,Die,Manche,Sie,Die,In,Bei,Er,100,In,Sie,Ich,Bei,Unter,Wir,Es,Dort,Die,In,Wir,Es,In,In,Fernab,Außer,Dort,Sie,Walter,Die,Die,Sie,Jetzt,Jugendliche,Die,Das,Wir,Der,Außer,Im,Außer,Die,Am,Ich,Die,Viele,Wir,Ich,Wir,Die,Beträchtliche,Die,Beträchtliche,Die,Wir,Die,Die,Wir,Man,Im,Mit,Nicht,Als,Bei,Die,Sie,Die,Viele,Alle,Danach,Außer,Nicht,In,,,,,,,,,,,,,,,,,,,,,,,2,0,2,0,0,0,0,0,,,,,,,space,space,0.636987924576,,,,0.822183132172,,2017_Jan_24_1559,59.8587698016,spr_backupper,001,Di16,
,haben,den,Teilnehmerinnen,äußersten,Eislaufbahnen,verbrauchen,stellt,der,g,dieser,hat,Stücke,Schuhe,es,waren,hatten,Lösung,stellt,Blutdruck,wurde,Uhr,hatte,machte,wurde,der,sollten,wurden,Schule,Kreditnehmer,verbrauchen,Kinder,meinem,unserer,hat,g,der,verlassen,nehme,unserer,keinen,hatten,wurden,türmen,Gäste,meinem,konnten,waren,diesem,den,des,dem,türmen,hatte,Scheel,Formen,Uhr,haben,ist,können,müden,Tuch,mussten,Flug,dem,Fernrohr,den,Schule,äußeren,nehme,Uhr,Tonnen,mussten,wurde,haben,Linie,Stücke,Gäste,Stücke,"Uhr,",übergaben,Schuhe,Kinder,übergaben,machte,Fernrohr,dieser,ein,die,der,Autos,verlassen,Autos,Tonnen,Betten,wurde,das,ein,einer,,,,,,,,,,,,,,,,,,,,,,,2,0,2,0,0,1,1,1,,,,,,,,space,1.00387597084,,,,,,2017_Jan_24_1559,59.8587698016,spr_backupper,001,Di16,
,jede,Kakao,wussten,Rand,wurden,60,die,Feier,brauner,Methode,uns,wurden,in,"regnete,",nur,in,wird,die,kann,trotz,schlug,keine,mal,trotz,Tat,immer,Eimer,verbraucht,sind,60,fuhren,Studium,Ankunft,ein,braunen,Tat,wegen,eine,Ankunft,Umständen,in,Eimer,sich,suchen,Studium,dann,nur,Zirkus,Kakao,Rummels,Bürgermeister,sich,keine,war,wurden,war,die,genau,Kleidung,Teilnehmer,wurde,uns,zum,Essen,sahen,Bürgermeister,verbraucht,Rand,eine,schlug,gebrauchter,uns,damals,jede,101,saftigen,suchen,saftiges,die,das,in,fuhren,dem,mal,sahen,Methode,Tropfen,Sonne,Feier,beider,wegen,beider,gebrauchte,wurden,die,Essen,Tropfen,Studie,,,,,,,,,,,,,,,,,,,,,,,2,0,2,0,0,2,2,2,,,,,,,,space,0.613918066025,,,,,,2017_Jan_24_1559,59.8587698016,spr_backupper,001,Di16,
,Menge,gehören,überwiegend,der,mit,Liter,Masse,gedachte,Zucker,kann,die,aus,Größe,hat,kleinere,Dänemark,mit,Masse,schon,dem,"sporadisch,",Lust,wieder,des,wissen,auf,rote,260.000,mit,Liter,mit,las,stand,Hemd,Zuckers,wissen,dem,große,stand,können,Dänemark,roter,Berge,die,habe,mit,kleinere,werden,gehören,wurde,beschuldigten,Berge,Lust,der,unter,aus,Erlebnisse,die,bei,wurden,dann,durch,Mond,kann,wir,beschuldigten,260.000,der,große,"sporadisch,",Kleidung,durch,schnell,Menge,hält,Fleischs,die,Fleisch,er,Auto,Größe,mit,Mann,wieder,wir,kann,königliches,"unterging,",gedachte,beteiligter,des,beteiligten,Kleidung,mit,Leinwand,kann,königlichen,wurde,,,,,,,,,,,,,,,,,,,,,,,2,0,2,0,0,3,3,3,,,,,,,,space,0.613687992096,,,,,,2017_Jan_24_1559,59.8587698016,spr_backupper,001,Di16,
,alten,immer,"nicht,",Stadt,dauerhaftem,sprudelnden,mit,man,sind,man,Stimmung,"wertvollem,",36,uns,"Delikte,",gelegentlich,"reichlichem,",mit,bei,bekannten,obwohl,auf,viel,bekannten,wir,warmem,Farbe,Kilowattstunden,"sämtlichem,",sprudelndes,solch,ich,ein,aus,sind,wir,schönen,Packung,ein,Neuwahlen,einen,Farbe,schmutziger,Wohnung,ich,"minimalem,","Delikte,",die,immer,schon,die,schmutzige,auf,vierte,"regelmäßigem,","Japan,",bei,richtige,ausreichendem,mit,mit,Büschel,dauerte,ich,den,die,Kilowattstunden,Stadt,Packung,obschon,landen,Büschel,dank,alten,nicht,wurden,Wohnung,wurden,"trug,",dem,36,solchen,das,viel,den,man,Blut,war,man,Fahrer,schönen,Fahrer,landen,"üblichem,",aus,ich,Bluts,jetzt,,,,,,,,,,,,,,,,,,,,,,,2,0,2,0,0,4,4,4,,,,,,,,space,1.22522711754,,,,,,2017_Jan_24_1559,59.8587698016,spr_backupper,001,Di16,
,Kram,350,was,liegen,feinem,Trinkwassers.,einem,der,auf,eine,ziemlich,klassischen,hätten,die,deren,einen,purem,einem,minimalem,Skandal,sie,noch,Lärm,Skandals,von,weichem,geschleudert.,elektrischer,künftigem,Trinkwasser.,unzureichenden,mehr,Glas,feinem,auf,um,Wetter,salziger,Glas,vor,gelegentlichen,geschleudert.,Wäsche.,des,mehr,sauberen,derer,Tiere,350,immer,Störenfriede,Wäsche.,noch,Bundespräsident.,kaltem,die,"frischem,","Zeit,",monatlichem,zusätzlichem,"reichem,",frisches,ungefähr,leider,roten,Störenfriede,elektrische,liegen,salzige,sie,im,frischen,täglichem,Krams,am,serviert.,des,serviert.,war,Mann,würden,unzureichenden,Auto,Lärm,roten,eine,hat,die,den,wurden,Wetters,wurden,im,harten,seltenem,leider,hat,"nachgewiesen,",,,,,,,,,,,,,,,,,,,,,,,2,0,2,0,0,5,5,5,,,,,,,,space,1.20418286324,,,,,,2017_Jan_24_1559,59.8587698016,spr_backupper,001,Di16,
,aus,ml,Tupperware,die,Kunsteis,nan,Esslöffel,Soldaten,jeden,große,"vermiest,",Schmuck,seiner,Stimmung,sie,Besucher.,Alkohol,Esslöffel,täglichen,wiedergewählt.,defekt,eine,um,wiedergewählt.,den,Untergrund,nan,Energie.,Einkommen,nan,Helmen,als,köstlicher,dichten,jeden,die,die,Wurst,köstlichen,Dezember,Besucher.,nan,nan,Herrn,als,Kraftstoff,sie,artgerecht,ml,ruhig,jeden.,nan,eine,nan,Abduschen,er,kaltem,um,Taschengeld,schwarzem,goldenen,Gras,drei,nichts,Planeten,jeden.,Energie.,die,Wurst,defekt,Müll.,Grases,grünen,aus,Hauptbahnhof.,nan,Herrn,nan,aus,mehr,seiner,Helmen,mehr,um,Planet,große,den,Flut,Soldaten,verschrottet.,die,verschrottet.,Müll.,Schaumstoff,dichten,nichts,den,dass,,,,,,,,,,,,,,,,,,,,,,,2,0,2,0,0,6,6,6,,,,,,,,space,0.725750923157,,,,,,2017_Jan_24_1559,59.8587698016,spr_backupper,001,Di16,
,dem,warme,ist.,Slums.,eingesprüht.,nan,warmen,des,Fall,Menge,dass,umgearbeitet.,Frau,ziemlich,überführt,nan,verdünnt.,warmem,Einsatz,nan,war.,Sammlung,jede,nan,Problemen,liegen.,nan,nan,haftbar.,nan,zur,einmal,Wein,Stoff,Fall,Probleme,Wohnung.,mit,Weins,stattfinden.,nan,nan,nan,Gantenbeins.,einmal,fahren.,überführt,gehalten.,warmer,diskutiert.,nan,nan,Sammlung,nan,gehärtet.,trug.,Saft,Nadelhölzer,selber,Kaffee,Besatz,zwängen.,Tage.,mitbringen.,ganz,nan,nan,Slums.,mit,war.,nan,zwängen.,Tee,dem,nan,nan,Gantenbein.,nan,Japan.,als,Frau,zur,als,jede,ganz,Menge,Boden,zurückgekehrt.,des,nan,Wohnung.,nan,nan,gefertigt.,Gewebe,mitbringen.,Boden,das,,,,,,,,,,,,,,,,,,,,,,,2,0,2,0,0,7,7,7,,,,,,,,space,1.88344907761,,,,,,2017_Jan_24_1559,59.8587698016,spr_backupper,001,Di16,
,,,,,,,,,,,,,,,,,,,,,,,,,,,,,,,,,,,,,,,,,,,,,,,,,,,,,,,,,,,,,,,,,,,,,,,,,,,,,,,,,,,,,,,,,,,,,,,,,,,,,,,,,,,,,,,,,,,,,,,,,2,0,2,0,,,,,,,,,,,,,,None,j,3.475522995,,,2017_Jan_24_1559,59.8587698016,spr_backupper,001,Di16,
,Wir,In,Die,Am,Die,Sie,Er,Bei,100,Mit,Es,Die,Die,Dass,Es,Wir,Die,Er,Ihr,Er,Die,Sie,Man,Er,In,Jungtiere,Es,Die,Manche,Sie,Die,In,Bei,Er,100,In,Sie,Ich,Bei,Unter,Wir,Es,Dort,Die,In,Wir,Es,In,In,Fernab,Außer,Dort,Sie,Walter,Die,Die,Sie,Jetzt,Jugendliche,Die,Das,Wir,Der,Außer,Im,Außer,Die,Am,Ich,Die,Viele,Wir,Ich,Wir,Die,Beträchtliche,Die,Beträchtliche,Die,Wir,Die,Die,Wir,Man,Im,Mit,Nicht,Als,Bei,Die,Sie,Die,Viele,Alle,Danach,Außer,Nicht,In,,,,,,,,,,,,,,,,,,,,,,,3,0,3,0,0,0,0,0,,,,,,,None,space,0.907092094421,,,,,,2017_Jan_24_1559,59.8587698016,spr_backupper,001,Di16,
,haben,den,Teilnehmerinnen,äußersten,Eislaufbahnen,verbrauchen,stellt,der,g,dieser,hat,Stücke,Schuhe,es,waren,hatten,Lösung,stellt,Blutdruck,wurde,Uhr,hatte,machte,wurde,der,sollten,wurden,Schule,Kreditnehmer,verbrauchen,Kinder,meinem,unserer,hat,g,der,verlassen,nehme,unserer,keinen,hatten,wurden,türmen,Gäste,meinem,konnten,waren,diesem,den,des,dem,türmen,hatte,Scheel,Formen,Uhr,haben,ist,können,müden,Tuch,mussten,Flug,dem,Fernrohr,den,Schule,äußeren,nehme,Uhr,Tonnen,mussten,wurde,haben,Linie,Stücke,Gäste,Stücke,"Uhr,",übergaben,Schuhe,Kinder,übergaben,machte,Fernrohr,dieser,ein,die,der,Autos,verlassen,Autos,Tonnen,Betten,wurde,das,ein,einer,,,,,,,,,,,,,,,,,,,,,,,3,0,3,0,0,1,1,1,,,,,,,,space,0.604616880417,,,,,,2017_Jan_24_1559,59.8587698016,spr_backupper,001,Di16,
,jede,Kakao,wussten,Rand,wurden,60,die,Feier,brauner,Methode,uns,wurden,in,"regnete,",nur,in,wird,die,kann,trotz,schlug,keine,mal,trotz,Tat,immer,Eimer,verbraucht,sind,60,fuhren,Studium,Ankunft,ein,braunen,Tat,wegen,eine,Ankunft,Umständen,in,Eimer,sich,suchen,Studium,dann,nur,Zirkus,Kakao,Rummels,Bürgermeister,sich,keine,war,wurden,war,die,genau,Kleidung,Teilnehmer,wurde,uns,zum,Essen,sahen,Bürgermeister,verbraucht,Rand,eine,schlug,gebrauchter,uns,damals,jede,101,saftigen,suchen,saftiges,die,das,in,fuhren,dem,mal,sahen,Methode,Tropfen,Sonne,Feier,beider,wegen,beider,gebrauchte,wurden,die,Essen,Tropfen,Studie,,,,,,,,,,,,,,,,,,,,,,,3,0,3,0,0,2,2,2,,,,,,,,space,0.46416592598,,,,,,2017_Jan_24_1559,59.8587698016,spr_backupper,001,Di16,
,Menge,gehören,überwiegend,der,mit,Liter,Masse,gedachte,Zucker,kann,die,aus,Größe,hat,kleinere,Dänemark,mit,Masse,schon,dem,"sporadisch,",Lust,wieder,des,wissen,auf,rote,260.000,mit,Liter,mit,las,stand,Hemd,Zuckers,wissen,dem,große,stand,können,Dänemark,roter,Berge,die,habe,mit,kleinere,werden,gehören,wurde,beschuldigten,Berge,Lust,der,unter,aus,Erlebnisse,die,bei,wurden,dann,durch,Mond,kann,wir,beschuldigten,260.000,der,große,"sporadisch,",Kleidung,durch,schnell,Menge,hält,Fleischs,die,Fleisch,er,Auto,Größe,mit,Mann,wieder,wir,kann,königliches,"unterging,",gedachte,beteiligter,des,beteiligten,Kleidung,mit,Leinwand,kann,königlichen,wurde,,,,,,,,,,,,,,,,,,,,,,,3,0,3,0,0,3,3,3,,,,,,,,space,0.519518136978,,,,,,2017_Jan_24_1559,59.8587698016,spr_backupper,001,Di16,
,alten,immer,"nicht,",Stadt,dauerhaftem,sprudelnden,mit,man,sind,man,Stimmung,"wertvollem,",36,uns,"Delikte,",gelegentlich,"reichlichem,",mit,bei,bekannten,obwohl,auf,viel,bekannten,wir,warmem,Farbe,Kilowattstunden,"sämtlichem,",sprudelndes,solch,ich,ein,aus,sind,wir,schönen,Packung,ein,Neuwahlen,einen,Farbe,schmutziger,Wohnung,ich,"minimalem,","Delikte,",die,immer,schon,die,schmutzige,auf,vierte,"regelmäßigem,","Japan,",bei,richtige,ausreichendem,mit,mit,Büschel,dauerte,ich,den,die,Kilowattstunden,Stadt,Packung,obschon,landen,Büschel,dank,alten,nicht,wurden,Wohnung,wurden,"trug,",dem,36,solchen,das,viel,den,man,Blut,war,man,Fahrer,schönen,Fahrer,landen,"üblichem,",aus,ich,Bluts,jetzt,,,,,,,,,,,,,,,,,,,,,,,3,0,3,0,0,4,4,4,,,,,,,,space,0.621526956558,,,,,,2017_Jan_24_1559,59.8587698016,spr_backupper,001,Di16,
,Kram,350,was,liegen,feinem,Trinkwassers.,einem,der,auf,eine,ziemlich,klassischen,hätten,die,deren,einen,purem,einem,minimalem,Skandal,sie,noch,Lärm,Skandals,von,weichem,geschleudert.,elektrischer,künftigem,Trinkwasser.,unzureichenden,mehr,Glas,feinem,auf,um,Wetter,salziger,Glas,vor,gelegentlichen,geschleudert.,Wäsche.,des,mehr,sauberen,derer,Tiere,350,immer,Störenfriede,Wäsche.,noch,Bundespräsident.,kaltem,die,"frischem,","Zeit,",monatlichem,zusätzlichem,"reichem,",frisches,ungefähr,leider,roten,Störenfriede,elektrische,liegen,salzige,sie,im,frischen,täglichem,Krams,am,serviert.,des,serviert.,war,Mann,würden,unzureichenden,Auto,Lärm,roten,eine,hat,die,den,wurden,Wetters,wurden,im,harten,seltenem,leider,hat,"nachgewiesen,",,,,,,,,,,,,,,,,,,,,,,,3,0,3,0,0,5,5,5,,,,,,,,space,0.88304400444,,,,,,2017_Jan_24_1559,59.8587698016,spr_backupper,001,Di16,
,aus,ml,Tupperware,die,Kunsteis,nan,Esslöffel,Soldaten,jeden,große,"vermiest,",Schmuck,seiner,Stimmung,sie,Besucher.,Alkohol,Esslöffel,täglichen,wiedergewählt.,defekt,eine,um,wiedergewählt.,den,Untergrund,nan,Energie.,Einkommen,nan,Helmen,als,köstlicher,dichten,jeden,die,die,Wurst,köstlichen,Dezember,Besucher.,nan,nan,Herrn,als,Kraftstoff,sie,artgerecht,ml,ruhig,jeden.,nan,eine,nan,Abduschen,er,kaltem,um,Taschengeld,schwarzem,goldenen,Gras,drei,nichts,Planeten,jeden.,Energie.,die,Wurst,defekt,Müll.,Grases,grünen,aus,Hauptbahnhof.,nan,Herrn,nan,aus,mehr,seiner,Helmen,mehr,um,Planet,große,den,Flut,Soldaten,verschrottet.,die,verschrottet.,Müll.,Schaumstoff,dichten,nichts,den,dass,,,,,,,,,,,,,,,,,,,,,,,3,0,3,0,0,6,6,6,,,,,,,,space,0.637201070786,,,,,,2017_Jan_24_1559,59.8587698016,spr_backupper,001,Di16,
,dem,warme,ist.,Slums.,eingesprüht.,nan,warmen,des,Fall,Menge,dass,umgearbeitet.,Frau,ziemlich,überführt,nan,verdünnt.,warmem,Einsatz,nan,war.,Sammlung,jede,nan,Problemen,liegen.,nan,nan,haftbar.,nan,zur,einmal,Wein,Stoff,Fall,Probleme,Wohnung.,mit,Weins,stattfinden.,nan,nan,nan,Gantenbeins.,einmal,fahren.,überführt,gehalten.,warmer,diskutiert.,nan,nan,Sammlung,nan,gehärtet.,trug.,Saft,Nadelhölzer,selber,Kaffee,Besatz,zwängen.,Tage.,mitbringen.,ganz,nan,nan,Slums.,mit,war.,nan,zwängen.,Tee,dem,nan,nan,Gantenbein.,nan,Japan.,als,Frau,zur,als,jede,ganz,Menge,Boden,zurückgekehrt.,des,nan,Wohnung.,nan,nan,gefertigt.,Gewebe,mitbringen.,Boden,das,,,,,,,,,,,,,,,,,,,,,,,3,0,3,0,0,7,7,7,,,,,,,,space,1.2442920208,,,,,,2017_Jan_24_1559,59.8587698016,spr_backupper,001,Di16,
,,,,,,,,,,,,,,,,,,,,,,,,,,,,,,,,,,,,,,,,,,,,,,,,,,,,,,,,,,,,,,,,,,,,,,,,,,,,,,,,,,,,,,,,,,,,,,,,,,,,,,,,,,,,,,,,,,,,,,,,,3,0,3,0,,,,,,,,,,,,,,None,j,4.81138396263,,,2017_Jan_24_1559,59.8587698016,spr_backupper,001,Di16,
,Wir,In,Die,Am,Die,Sie,Er,Bei,100,Mit,Es,Die,Die,Dass,Es,Wir,Die,Er,Ihr,Er,Die,Sie,Man,Er,In,Jungtiere,Es,Die,Manche,Sie,Die,In,Bei,Er,100,In,Sie,Ich,Bei,Unter,Wir,Es,Dort,Die,In,Wir,Es,In,In,Fernab,Außer,Dort,Sie,Walter,Die,Die,Sie,Jetzt,Jugendliche,Die,Das,Wir,Der,Außer,Im,Außer,Die,Am,Ich,Die,Viele,Wir,Ich,Wir,Die,Beträchtliche,Die,Beträchtliche,Die,Wir,Die,Die,Wir,Man,Im,Mit,Nicht,Als,Bei,Die,Sie,Die,Viele,Alle,Danach,Außer,Nicht,In,,,,,,,,,,,,,,,,,,,,,,,4,0,4,0,0,0,0,0,,,,,,,space,space,0.784344911575,,,,1.15750217438,,2017_Jan_24_1559,59.8587698016,spr_backupper,001,Di16,
,haben,den,Teilnehmerinnen,äußersten,Eislaufbahnen,verbrauchen,stellt,der,g,dieser,hat,Stücke,Schuhe,es,waren,hatten,Lösung,stellt,Blutdruck,wurde,Uhr,hatte,machte,wurde,der,sollten,wurden,Schule,Kreditnehmer,verbrauchen,Kinder,meinem,unserer,hat,g,der,verlassen,nehme,unserer,keinen,hatten,wurden,türmen,Gäste,meinem,konnten,waren,diesem,den,des,dem,türmen,hatte,Scheel,Formen,Uhr,haben,ist,können,müden,Tuch,mussten,Flug,dem,Fernrohr,den,Schule,äußeren,nehme,Uhr,Tonnen,mussten,wurde,haben,Linie,Stücke,Gäste,Stücke,"Uhr,",übergaben,Schuhe,Kinder,übergaben,machte,Fernrohr,dieser,ein,die,der,Autos,verlassen,Autos,Tonnen,Betten,wurde,das,ein,einer,,,,,,,,,,,,,,,,,,,,,,,4,0,4,0,0,1,1,1,,,,,,,,space,0.648116111755,,,,,,2017_Jan_24_1559,59.8587698016,spr_backupper,001,Di16,
,jede,Kakao,wussten,Rand,wurden,60,die,Feier,brauner,Methode,uns,wurden,in,"regnete,",nur,in,wird,die,kann,trotz,schlug,keine,mal,trotz,Tat,immer,Eimer,verbraucht,sind,60,fuhren,Studium,Ankunft,ein,braunen,Tat,wegen,eine,Ankunft,Umständen,in,Eimer,sich,suchen,Studium,dann,nur,Zirkus,Kakao,Rummels,Bürgermeister,sich,keine,war,wurden,war,die,genau,Kleidung,Teilnehmer,wurde,uns,zum,Essen,sahen,Bürgermeister,verbraucht,Rand,eine,schlug,gebrauchter,uns,damals,jede,101,saftigen,suchen,saftiges,die,das,in,fuhren,dem,mal,sahen,Methode,Tropfen,Sonne,Feier,beider,wegen,beider,gebrauchte,wurden,die,Essen,Tropfen,Studie,,,,,,,,,,,,,,,,,,,,,,,4,0,4,0,0,2,2,2,,,,,,,,space,0.402637004852,,,,,,2017_Jan_24_1559,59.8587698016,spr_backupper,001,Di16,
,Menge,gehören,überwiegend,der,mit,Liter,Masse,gedachte,Zucker,kann,die,aus,Größe,hat,kleinere,Dänemark,mit,Masse,schon,dem,"sporadisch,",Lust,wieder,des,wissen,auf,rote,260.000,mit,Liter,mit,las,stand,Hemd,Zuckers,wissen,dem,große,stand,können,Dänemark,roter,Berge,die,habe,mit,kleinere,werden,gehören,wurde,beschuldigten,Berge,Lust,der,unter,aus,Erlebnisse,die,bei,wurden,dann,durch,Mond,kann,wir,beschuldigten,260.000,der,große,"sporadisch,",Kleidung,durch,schnell,Menge,hält,Fleischs,die,Fleisch,er,Auto,Größe,mit,Mann,wieder,wir,kann,königliches,"unterging,",gedachte,beteiligter,des,beteiligten,Kleidung,mit,Leinwand,kann,königlichen,wurde,,,,,,,,,,,,,,,,,,,,,,,4,0,4,0,0,3,3,3,,,,,,,,space,0.50390291214,,,,,,2017_Jan_24_1559,59.8587698016,spr_backupper,001,Di16,
,alten,immer,"nicht,",Stadt,dauerhaftem,sprudelnden,mit,man,sind,man,Stimmung,"wertvollem,",36,uns,"Delikte,",gelegentlich,"reichlichem,",mit,bei,bekannten,obwohl,auf,viel,bekannten,wir,warmem,Farbe,Kilowattstunden,"sämtlichem,",sprudelndes,solch,ich,ein,aus,sind,wir,schönen,Packung,ein,Neuwahlen,einen,Farbe,schmutziger,Wohnung,ich,"minimalem,","Delikte,",die,immer,schon,die,schmutzige,auf,vierte,"regelmäßigem,","Japan,",bei,richtige,ausreichendem,mit,mit,Büschel,dauerte,ich,den,die,Kilowattstunden,Stadt,Packung,obschon,landen,Büschel,dank,alten,nicht,wurden,Wohnung,wurden,"trug,",dem,36,solchen,das,viel,den,man,Blut,war,man,Fahrer,schönen,Fahrer,landen,"üblichem,",aus,ich,Bluts,jetzt,,,,,,,,,,,,,,,,,,,,,,,4,0,4,0,0,4,4,4,,,,,,,,space,0.805500030518,,,,,,2017_Jan_24_1559,59.8587698016,spr_backupper,001,Di16,
,Kram,350,was,liegen,feinem,Trinkwassers.,einem,der,auf,eine,ziemlich,klassischen,hätten,die,deren,einen,purem,einem,minimalem,Skandal,sie,noch,Lärm,Skandals,von,weichem,geschleudert.,elektrischer,künftigem,Trinkwasser.,unzureichenden,mehr,Glas,feinem,auf,um,Wetter,salziger,Glas,vor,gelegentlichen,geschleudert.,Wäsche.,des,mehr,sauberen,derer,Tiere,350,immer,Störenfriede,Wäsche.,noch,Bundespräsident.,kaltem,die,"frischem,","Zeit,",monatlichem,zusätzlichem,"reichem,",frisches,ungefähr,leider,roten,Störenfriede,elektrische,liegen,salzige,sie,im,frischen,täglichem,Krams,am,serviert.,des,serviert.,war,Mann,würden,unzureichenden,Auto,Lärm,roten,eine,hat,die,den,wurden,Wetters,wurden,im,harten,seltenem,leider,hat,"nachgewiesen,",,,,,,,,,,,,,,,,,,,,,,,4,0,4,0,0,5,5,5,,,,,,,,space,0.507738828659,,,,,,2017_Jan_24_1559,59.8587698016,spr_backupper,001,Di16,
,aus,ml,Tupperware,die,Kunsteis,nan,Esslöffel,Soldaten,jeden,große,"vermiest,",Schmuck,seiner,Stimmung,sie,Besucher.,Alkohol,Esslöffel,täglichen,wiedergewählt.,defekt,eine,um,wiedergewählt.,den,Untergrund,nan,Energie.,Einkommen,nan,Helmen,als,köstlicher,dichten,jeden,die,die,Wurst,köstlichen,Dezember,Besucher.,nan,nan,Herrn,als,Kraftstoff,sie,artgerecht,ml,ruhig,jeden.,nan,eine,nan,Abduschen,er,kaltem,um,Taschengeld,schwarzem,goldenen,Gras,drei,nichts,Planeten,jeden.,Energie.,die,Wurst,defekt,Müll.,Grases,grünen,aus,Hauptbahnhof.,nan,Herrn,nan,aus,mehr,seiner,Helmen,mehr,um,Planet,große,den,Flut,Soldaten,verschrottet.,die,verschrottet.,Müll.,Schaumstoff,dichten,nichts,den,dass,,,,,,,,,,,,,,,,,,,,,,,4,0,4,0,0,6,6,6,,,,,,,,space,0.503820180893,,,,,,2017_Jan_24_1559,59.8587698016,spr_backupper,001,Di16,
,dem,warme,ist.,Slums.,eingesprüht.,nan,warmen,des,Fall,Menge,dass,umgearbeitet.,Frau,ziemlich,überführt,nan,verdünnt.,warmem,Einsatz,nan,war.,Sammlung,jede,nan,Problemen,liegen.,nan,nan,haftbar.,nan,zur,einmal,Wein,Stoff,Fall,Probleme,Wohnung.,mit,Weins,stattfinden.,nan,nan,nan,Gantenbeins.,einmal,fahren.,überführt,gehalten.,warmer,diskutiert.,nan,nan,Sammlung,nan,gehärtet.,trug.,Saft,Nadelhölzer,selber,Kaffee,Besatz,zwängen.,Tage.,mitbringen.,ganz,nan,nan,Slums.,mit,war.,nan,zwängen.,Tee,dem,nan,nan,Gantenbein.,nan,Japan.,als,Frau,zur,als,jede,ganz,Menge,Boden,zurückgekehrt.,des,nan,Wohnung.,nan,nan,gefertigt.,Gewebe,mitbringen.,Boden,das,,,,,,,,,,,,,,,,,,,,,,,4,0,4,0,0,7,7,7,,,,,,,,space,0.554502010345,,,,,,2017_Jan_24_1559,59.8587698016,spr_backupper,001,Di16,
,Haus,Milch.,nan,nan,nan,nan,Honigs,zweiten,genug.,dunkle,es,nan,gepasst.,vermiest.,wurden.,nan,nan,Honig,sinken.,nan,nan,dumme,Menge,nan,im,nan,nan,nan,nan,nan,Schule.,Rilke.,schon,gefertigt.,genug.,im,nan,an,schon,nan,nan,nan,nan,nan,Rilke,nan,wurden.,nan,Milch.,nan,nan,nan,dummer,nan,nan,nan,besprochen.,umzusetzen.,kaufen.,wiederbelebt.,rekonstruiert.,nan,nan,nan,deutlich.,nan,nan,nan,an,nan,nan,nan,wieder,Haus,nan,nan,nan,nan,nan,gerne.,gepasst,Schule.,gerne.,Menge,deutlich.,dunkler,berührt.,nan,zweiten,nan,nan,nan,nan,nan,wiederhergestellt.,nan,berührt.,Medikament,,,,,,,,,,,,,,,,,,,,,,,4,0,4,0,0,8,8,8,,,,,,,,space,0.427800893784,,,,,,2017_Jan_24_1559,59.8587698016,spr_backupper,001,Di16,
,geschafft.,nan,nan,nan,nan,nan,her.,Weltkriegs.,nan,Materie,regnete.,nan,nan,nan,nan,nan,nan,her.,nan,nan,nan,Sprüche.,heißer,nan,Landkreis.,nan,nan,nan,nan,nan,nan,nan,auf,nan,nan,Landkreis.,nan,den,auf,nan,nan,nan,nan,nan,gelesen.,nan,nan,nan,nan,nan,nan,nan,Sprüche.,nan,nan,nan,nan,nan,nan,nan,nan,nan,nan,nan,nan,nan,nan,nan,den,nan,nan,nan,fit.,geschafft.,nan,nan,nan,nan,nan,nan,haben.,nan,nan,heiße,nan,Materie,nan,nan,Weltkriegs.,nan,nan,nan,nan,nan,nan,nan,nan,nicht,,,,,,,,,,,,,,,,,,,,,,,4,0,4,0,0,9,9,9,,,,,,,,space,0.619668960571,,,,,,2017_Jan_24_1559,59.8587698016,spr_backupper,001,Di16,
,,,,,,,,,,,,,,,,,,,,,,,,,,,,,,,,,,,,,,,,,,,,,,,,,,,,,,,,,,,,,,,,,,,,,,,,,,,,,,,,,,,,,,,,,,,,,,,,,,,,,,,,,,,,,,,,,,,,,,,,,4,0,4,0,,,,,,,,,,,,,,None,j,2.41561102867,,,2017_Jan_24_1559,59.8587698016,spr_backupper,001,Di16,
,Wir,In,Die,Am,Die,Sie,Er,Bei,100,Mit,Es,Die,Die,Dass,Es,Wir,Die,Er,Ihr,Er,Die,Sie,Man,Er,In,Jungtiere,Es,Die,Manche,Sie,Die,In,Bei,Er,100,In,Sie,Ich,Bei,Unter,Wir,Es,Dort,Die,In,Wir,Es,In,In,Fernab,Außer,Dort,Sie,Walter,Die,Die,Sie,Jetzt,Jugendliche,Die,Das,Wir,Der,Außer,Im,Außer,Die,Am,Ich,Die,Viele,Wir,Ich,Wir,Die,Beträchtliche,Die,Beträchtliche,Die,Wir,Die,Die,Wir,Man,Im,Mit,Nicht,Als,Bei,Die,Sie,Die,Viele,Alle,Danach,Außer,Nicht,In,,,,,,,,,,,,,,,,,,,,,,,5,0,5,0,0,0,0,0,,,,,,,space,space,0.671708106995,,,,0.95692896843,,2017_Jan_24_1559,59.8587698016,spr_backupper,001,Di16,
,haben,den,Teilnehmerinnen,äußersten,Eislaufbahnen,verbrauchen,stellt,der,g,dieser,hat,Stücke,Schuhe,es,waren,hatten,Lösung,stellt,Blutdruck,wurde,Uhr,hatte,machte,wurde,der,sollten,wurden,Schule,Kreditnehmer,verbrauchen,Kinder,meinem,unserer,hat,g,der,verlassen,nehme,unserer,keinen,hatten,wurden,türmen,Gäste,meinem,konnten,waren,diesem,den,des,dem,türmen,hatte,Scheel,Formen,Uhr,haben,ist,können,müden,Tuch,mussten,Flug,dem,Fernrohr,den,Schule,äußeren,nehme,Uhr,Tonnen,mussten,wurde,haben,Linie,Stücke,Gäste,Stücke,"Uhr,",übergaben,Schuhe,Kinder,übergaben,machte,Fernrohr,dieser,ein,die,der,Autos,verlassen,Autos,Tonnen,Betten,wurde,das,ein,einer,,,,,,,,,,,,,,,,,,,,,,,5,0,5,0,0,1,1,1,,,,,,,,space,0.449656009674,,,,,,2017_Jan_24_1559,59.8587698016,spr_backupper,001,Di16,
,jede,Kakao,wussten,Rand,wurden,60,die,Feier,brauner,Methode,uns,wurden,in,"regnete,",nur,in,wird,die,kann,trotz,schlug,keine,mal,trotz,Tat,immer,Eimer,verbraucht,sind,60,fuhren,Studium,Ankunft,ein,braunen,Tat,wegen,eine,Ankunft,Umständen,in,Eimer,sich,suchen,Studium,dann,nur,Zirkus,Kakao,Rummels,Bürgermeister,sich,keine,war,wurden,war,die,genau,Kleidung,Teilnehmer,wurde,uns,zum,Essen,sahen,Bürgermeister,verbraucht,Rand,eine,schlug,gebrauchter,uns,damals,jede,101,saftigen,suchen,saftiges,die,das,in,fuhren,dem,mal,sahen,Methode,Tropfen,Sonne,Feier,beider,wegen,beider,gebrauchte,wurden,die,Essen,Tropfen,Studie,,,,,,,,,,,,,,,,,,,,,,,5,0,5,0,0,2,2,2,,,,,,,,space,0.653417825699,,,,,,2017_Jan_24_1559,59.8587698016,spr_backupper,001,Di16,
,Menge,gehören,überwiegend,der,mit,Liter,Masse,gedachte,Zucker,kann,die,aus,Größe,hat,kleinere,Dänemark,mit,Masse,schon,dem,"sporadisch,",Lust,wieder,des,wissen,auf,rote,260.000,mit,Liter,mit,las,stand,Hemd,Zuckers,wissen,dem,große,stand,können,Dänemark,roter,Berge,die,habe,mit,kleinere,werden,gehören,wurde,beschuldigten,Berge,Lust,der,unter,aus,Erlebnisse,die,bei,wurden,dann,durch,Mond,kann,wir,beschuldigten,260.000,der,große,"sporadisch,",Kleidung,durch,schnell,Menge,hält,Fleischs,die,Fleisch,er,Auto,Größe,mit,Mann,wieder,wir,kann,königliches,"unterging,",gedachte,beteiligter,des,beteiligten,Kleidung,mit,Leinwand,kann,königlichen,wurde,,,,,,,,,,,,,,,,,,,,,,,5,0,5,0,0,3,3,3,,,,,,,,space,0.760616064072,,,,,,2017_Jan_24_1559,59.8587698016,spr_backupper,001,Di16,
,alten,immer,"nicht,",Stadt,dauerhaftem,sprudelnden,mit,man,sind,man,Stimmung,"wertvollem,",36,uns,"Delikte,",gelegentlich,"reichlichem,",mit,bei,bekannten,obwohl,auf,viel,bekannten,wir,warmem,Farbe,Kilowattstunden,"sämtlichem,",sprudelndes,solch,ich,ein,aus,sind,wir,schönen,Packung,ein,Neuwahlen,einen,Farbe,schmutziger,Wohnung,ich,"minimalem,","Delikte,",die,immer,schon,die,schmutzige,auf,vierte,"regelmäßigem,","Japan,",bei,richtige,ausreichendem,mit,mit,Büschel,dauerte,ich,den,die,Kilowattstunden,Stadt,Packung,obschon,landen,Büschel,dank,alten,nicht,wurden,Wohnung,wurden,"trug,",dem,36,solchen,das,viel,den,man,Blut,war,man,Fahrer,schönen,Fahrer,landen,"üblichem,",aus,ich,Bluts,jetzt,,,,,,,,,,,,,,,,,,,,,,,5,0,5,0,0,4,4,4,,,,,,,,space,0.730804920197,,,,,,2017_Jan_24_1559,59.8587698016,spr_backupper,001,Di16,
,Kram,350,was,liegen,feinem,Trinkwassers.,einem,der,auf,eine,ziemlich,klassischen,hätten,die,deren,einen,purem,einem,minimalem,Skandal,sie,noch,Lärm,Skandals,von,weichem,geschleudert.,elektrischer,künftigem,Trinkwasser.,unzureichenden,mehr,Glas,feinem,auf,um,Wetter,salziger,Glas,vor,gelegentlichen,geschleudert.,Wäsche.,des,mehr,sauberen,derer,Tiere,350,immer,Störenfriede,Wäsche.,noch,Bundespräsident.,kaltem,die,"frischem,","Zeit,",monatlichem,zusätzlichem,"reichem,",frisches,ungefähr,leider,roten,Störenfriede,elektrische,liegen,salzige,sie,im,frischen,täglichem,Krams,am,serviert.,des,serviert.,war,Mann,würden,unzureichenden,Auto,Lärm,roten,eine,hat,die,den,wurden,Wetters,wurden,im,harten,seltenem,leider,hat,"nachgewiesen,",,,,,,,,,,,,,,,,,,,,,,,5,0,5,0,0,5,5,5,,,,,,,,space,0.854956150055,,,,,,2017_Jan_24_1559,59.8587698016,spr_backupper,001,Di16,
,aus,ml,Tupperware,die,Kunsteis,nan,Esslöffel,Soldaten,jeden,große,"vermiest,",Schmuck,seiner,Stimmung,sie,Besucher.,Alkohol,Esslöffel,täglichen,wiedergewählt.,defekt,eine,um,wiedergewählt.,den,Untergrund,nan,Energie.,Einkommen,nan,Helmen,als,köstlicher,dichten,jeden,die,die,Wurst,köstlichen,Dezember,Besucher.,nan,nan,Herrn,als,Kraftstoff,sie,artgerecht,ml,ruhig,jeden.,nan,eine,nan,Abduschen,er,kaltem,um,Taschengeld,schwarzem,goldenen,Gras,drei,nichts,Planeten,jeden.,Energie.,die,Wurst,defekt,Müll.,Grases,grünen,aus,Hauptbahnhof.,nan,Herrn,nan,aus,mehr,seiner,Helmen,mehr,um,Planet,große,den,Flut,Soldaten,verschrottet.,die,verschrottet.,Müll.,Schaumstoff,dichten,nichts,den,dass,,,,,,,,,,,,,,,,,,,,,,,5,0,5,0,0,6,6,6,,,,,,,,space,1.76965808868,,,,,,2017_Jan_24_1559,59.8587698016,spr_backupper,001,Di16,
,dem,warme,ist.,Slums.,eingesprüht.,nan,warmen,des,Fall,Menge,dass,umgearbeitet.,Frau,ziemlich,überführt,nan,verdünnt.,warmem,Einsatz,nan,war.,Sammlung,jede,nan,Problemen,liegen.,nan,nan,haftbar.,nan,zur,einmal,Wein,Stoff,Fall,Probleme,Wohnung.,mit,Weins,stattfinden.,nan,nan,nan,Gantenbeins.,einmal,fahren.,überführt,gehalten.,warmer,diskutiert.,nan,nan,Sammlung,nan,gehärtet.,trug.,Saft,Nadelhölzer,selber,Kaffee,Besatz,zwängen.,Tage.,mitbringen.,ganz,nan,nan,Slums.,mit,war.,nan,zwängen.,Tee,dem,nan,nan,Gantenbein.,nan,Japan.,als,Frau,zur,als,jede,ganz,Menge,Boden,zurückgekehrt.,des,nan,Wohnung.,nan,nan,gefertigt.,Gewebe,mitbringen.,Boden,das,,,,,,,,,,,,,,,,,,,,,,,5,0,5,0,0,7,7,7,,,,,,,,space,0.82768201828,,,,,,2017_Jan_24_1559,59.8587698016,spr_backupper,001,Di16,
,Haus,Milch.,nan,nan,nan,nan,Honigs,zweiten,genug.,dunkle,es,nan,gepasst.,vermiest.,wurden.,nan,nan,Honig,sinken.,nan,nan,dumme,Menge,nan,im,nan,nan,nan,nan,nan,Schule.,Rilke.,schon,gefertigt.,genug.,im,nan,an,schon,nan,nan,nan,nan,nan,Rilke,nan,wurden.,nan,Milch.,nan,nan,nan,dummer,nan,nan,nan,besprochen.,umzusetzen.,kaufen.,wiederbelebt.,rekonstruiert.,nan,nan,nan,deutlich.,nan,nan,nan,an,nan,nan,nan,wieder,Haus,nan,nan,nan,nan,nan,gerne.,gepasst,Schule.,gerne.,Menge,deutlich.,dunkler,berührt.,nan,zweiten,nan,nan,nan,nan,nan,wiederhergestellt.,nan,berührt.,Medikament,,,,,,,,,,,,,,,,,,,,,,,5,0,5,0,0,8,8,8,,,,,,,,space,0.722096920013,,,,,,2017_Jan_24_1559,59.8587698016,spr_backupper,001,Di16,
,geschafft.,nan,nan,nan,nan,nan,her.,Weltkriegs.,nan,Materie,regnete.,nan,nan,nan,nan,nan,nan,her.,nan,nan,nan,Sprüche.,heißer,nan,Landkreis.,nan,nan,nan,nan,nan,nan,nan,auf,nan,nan,Landkreis.,nan,den,auf,nan,nan,nan,nan,nan,gelesen.,nan,nan,nan,nan,nan,nan,nan,Sprüche.,nan,nan,nan,nan,nan,nan,nan,nan,nan,nan,nan,nan,nan,nan,nan,den,nan,nan,nan,fit.,geschafft.,nan,nan,nan,nan,nan,nan,haben.,nan,nan,heiße,nan,Materie,nan,nan,Weltkriegs.,nan,nan,nan,nan,nan,nan,nan,nan,nicht,,,,,,,,,,,,,,,,,,,,,,,5,0,5,0,0,9,9,9,,,,,,,,space,0.885432958603,,,,,,2017_Jan_24_1559,59.8587698016,spr_backupper,001,Di16,
,nan,nan,nan,nan,nan,nan,nan,nan,nan,erzeugen.,nan,nan,nan,nan,nan,nan,nan,nan,nan,nan,nan,nan,Luft.,nan,nan,nan,nan,nan,nan,nan,nan,nan,dem,nan,nan,nan,nan,See.,dem,nan,nan,nan,nan,nan,nan,nan,nan,nan,nan,nan,nan,nan,nan,nan,nan,nan,nan,nan,nan,nan,nan,nan,nan,nan,nan,nan,nan,nan,See.,nan,nan,nan,nan,nan,nan,nan,nan,nan,nan,nan,nan,nan,nan,Luft.,nan,erzeugen.,nan,nan,nan,nan,nan,nan,nan,nan,nan,nan,nan,wirkt.,,,,,,,,,,,,,,,,,,,,,,,5,0,5,0,0,10,10,10,,,,,,,,space,0.788182020187,,,,,,2017_Jan_24_1559,59.8587698016,spr_backupper,001,Di16,
,,,,,,,,,,,,,,,,,,,,,,,,,,,,,,,,,,,,,,,,,,,,,,,,,,,,,,,,,,,,,,,,,,,,,,,,,,,,,,,,,,,,,,,,,,,,,,,,,,,,,,,,,,,,,,,,,,,,,,,,,5,0,5,0,,,,,,,,,,,,,,None,n,3.48116493225,,,2017_Jan_24_1559,59.8587698016,spr_backupper,001,Di16,
,Wir,In,Die,Am,Die,Sie,Er,Bei,100,Mit,Es,Die,Die,Dass,Es,Wir,Die,Er,Ihr,Er,Die,Sie,Man,Er,In,Jungtiere,Es,Die,Manche,Sie,Die,In,Bei,Er,100,In,Sie,Ich,Bei,Unter,Wir,Es,Dort,Die,In,Wir,Es,In,In,Fernab,Außer,Dort,Sie,Walter,Die,Die,Sie,Jetzt,Jugendliche,Die,Das,Wir,Der,Außer,Im,Außer,Die,Am,Ich,Die,Viele,Wir,Ich,Wir,Die,Beträchtliche,Die,Beträchtliche,Die,Wir,Die,Die,Wir,Man,Im,Mit,Nicht,Als,Bei,Die,Sie,Die,Viele,Alle,Danach,Außer,Nicht,In,,,,,,,,,,,,,,,,,,,,,,,6,0,6,0,0,0,0,0,,,,,,,space,space,1.02479982376,,,,0.906273841858,,2017_Jan_24_1559,59.8587698016,spr_backupper,001,Di16,
,haben,den,Teilnehmerinnen,äußersten,Eislaufbahnen,verbrauchen,stellt,der,g,dieser,hat,Stücke,Schuhe,es,waren,hatten,Lösung,stellt,Blutdruck,wurde,Uhr,hatte,machte,wurde,der,sollten,wurden,Schule,Kreditnehmer,verbrauchen,Kinder,meinem,unserer,hat,g,der,verlassen,nehme,unserer,keinen,hatten,wurden,türmen,Gäste,meinem,konnten,waren,diesem,den,des,dem,türmen,hatte,Scheel,Formen,Uhr,haben,ist,können,müden,Tuch,mussten,Flug,dem,Fernrohr,den,Schule,äußeren,nehme,Uhr,Tonnen,mussten,wurde,haben,Linie,Stücke,Gäste,Stücke,"Uhr,",übergaben,Schuhe,Kinder,übergaben,machte,Fernrohr,dieser,ein,die,der,Autos,verlassen,Autos,Tonnen,Betten,wurde,das,ein,einer,,,,,,,,,,,,,,,,,,,,,,,6,0,6,0,0,1,1,1,,,,,,,,space,0.711550951004,,,,,,2017_Jan_24_1559,59.8587698016,spr_backupper,001,Di16,
,jede,Kakao,wussten,Rand,wurden,60,die,Feier,brauner,Methode,uns,wurden,in,"regnete,",nur,in,wird,die,kann,trotz,schlug,keine,mal,trotz,Tat,immer,Eimer,verbraucht,sind,60,fuhren,Studium,Ankunft,ein,braunen,Tat,wegen,eine,Ankunft,Umständen,in,Eimer,sich,suchen,Studium,dann,nur,Zirkus,Kakao,Rummels,Bürgermeister,sich,keine,war,wurden,war,die,genau,Kleidung,Teilnehmer,wurde,uns,zum,Essen,sahen,Bürgermeister,verbraucht,Rand,eine,schlug,gebrauchter,uns,damals,jede,101,saftigen,suchen,saftiges,die,das,in,fuhren,dem,mal,sahen,Methode,Tropfen,Sonne,Feier,beider,wegen,beider,gebrauchte,wurden,die,Essen,Tropfen,Studie,,,,,,,,,,,,,,,,,,,,,,,6,0,6,0,0,2,2,2,,,,,,,,space,0.560326099396,,,,,,2017_Jan_24_1559,59.8587698016,spr_backupper,001,Di16,
,Menge,gehören,überwiegend,der,mit,Liter,Masse,gedachte,Zucker,kann,die,aus,Größe,hat,kleinere,Dänemark,mit,Masse,schon,dem,"sporadisch,",Lust,wieder,des,wissen,auf,rote,260.000,mit,Liter,mit,las,stand,Hemd,Zuckers,wissen,dem,große,stand,können,Dänemark,roter,Berge,die,habe,mit,kleinere,werden,gehören,wurde,beschuldigten,Berge,Lust,der,unter,aus,Erlebnisse,die,bei,wurden,dann,durch,Mond,kann,wir,beschuldigten,260.000,der,große,"sporadisch,",Kleidung,durch,schnell,Menge,hält,Fleischs,die,Fleisch,er,Auto,Größe,mit,Mann,wieder,wir,kann,königliches,"unterging,",gedachte,beteiligter,des,beteiligten,Kleidung,mit,Leinwand,kann,königlichen,wurde,,,,,,,,,,,,,,,,,,,,,,,6,0,6,0,0,3,3,3,,,,,,,,space,0.503290176392,,,,,,2017_Jan_24_1559,59.8587698016,spr_backupper,001,Di16,
,alten,immer,"nicht,",Stadt,dauerhaftem,sprudelnden,mit,man,sind,man,Stimmung,"wertvollem,",36,uns,"Delikte,",gelegentlich,"reichlichem,",mit,bei,bekannten,obwohl,auf,viel,bekannten,wir,warmem,Farbe,Kilowattstunden,"sämtlichem,",sprudelndes,solch,ich,ein,aus,sind,wir,schönen,Packung,ein,Neuwahlen,einen,Farbe,schmutziger,Wohnung,ich,"minimalem,","Delikte,",die,immer,schon,die,schmutzige,auf,vierte,"regelmäßigem,","Japan,",bei,richtige,ausreichendem,mit,mit,Büschel,dauerte,ich,den,die,Kilowattstunden,Stadt,Packung,obschon,landen,Büschel,dank,alten,nicht,wurden,Wohnung,wurden,"trug,",dem,36,solchen,das,viel,den,man,Blut,war,man,Fahrer,schönen,Fahrer,landen,"üblichem,",aus,ich,Bluts,jetzt,,,,,,,,,,,,,,,,,,,,,,,6,0,6,0,0,4,4,4,,,,,,,,space,0.41797709465,,,,,,2017_Jan_24_1559,59.8587698016,spr_backupper,001,Di16,
,Kram,350,was,liegen,feinem,Trinkwassers.,einem,der,auf,eine,ziemlich,klassischen,hätten,die,deren,einen,purem,einem,minimalem,Skandal,sie,noch,Lärm,Skandals,von,weichem,geschleudert.,elektrischer,künftigem,Trinkwasser.,unzureichenden,mehr,Glas,feinem,auf,um,Wetter,salziger,Glas,vor,gelegentlichen,geschleudert.,Wäsche.,des,mehr,sauberen,derer,Tiere,350,immer,Störenfriede,Wäsche.,noch,Bundespräsident.,kaltem,die,"frischem,","Zeit,",monatlichem,zusätzlichem,"reichem,",frisches,ungefähr,leider,roten,Störenfriede,elektrische,liegen,salzige,sie,im,frischen,täglichem,Krams,am,serviert.,des,serviert.,war,Mann,würden,unzureichenden,Auto,Lärm,roten,eine,hat,die,den,wurden,Wetters,wurden,im,harten,seltenem,leider,hat,"nachgewiesen,",,,,,,,,,,,,,,,,,,,,,,,6,0,6,0,0,5,5,5,,,,,,,,space,0.453358888626,,,,,,2017_Jan_24_1559,59.8587698016,spr_backupper,001,Di16,
,aus,ml,Tupperware,die,Kunsteis,nan,Esslöffel,Soldaten,jeden,große,"vermiest,",Schmuck,seiner,Stimmung,sie,Besucher.,Alkohol,Esslöffel,täglichen,wiedergewählt.,defekt,eine,um,wiedergewählt.,den,Untergrund,nan,Energie.,Einkommen,nan,Helmen,als,köstlicher,dichten,jeden,die,die,Wurst,köstlichen,Dezember,Besucher.,nan,nan,Herrn,als,Kraftstoff,sie,artgerecht,ml,ruhig,jeden.,nan,eine,nan,Abduschen,er,kaltem,um,Taschengeld,schwarzem,goldenen,Gras,drei,nichts,Planeten,jeden.,Energie.,die,Wurst,defekt,Müll.,Grases,grünen,aus,Hauptbahnhof.,nan,Herrn,nan,aus,mehr,seiner,Helmen,mehr,um,Planet,große,den,Flut,Soldaten,verschrottet.,die,verschrottet.,Müll.,Schaumstoff,dichten,nichts,den,dass,,,,,,,,,,,,,,,,,,,,,,,6,0,6,0,0,6,6,6,,,,,,,,space,0.411789894104,,,,,,2017_Jan_24_1559,59.8587698016,spr_backupper,001,Di16,
,dem,warme,ist.,Slums.,eingesprüht.,nan,warmen,des,Fall,Menge,dass,umgearbeitet.,Frau,ziemlich,überführt,nan,verdünnt.,warmem,Einsatz,nan,war.,Sammlung,jede,nan,Problemen,liegen.,nan,nan,haftbar.,nan,zur,einmal,Wein,Stoff,Fall,Probleme,Wohnung.,mit,Weins,stattfinden.,nan,nan,nan,Gantenbeins.,einmal,fahren.,überführt,gehalten.,warmer,diskutiert.,nan,nan,Sammlung,nan,gehärtet.,trug.,Saft,Nadelhölzer,selber,Kaffee,Besatz,zwängen.,Tage.,mitbringen.,ganz,nan,nan,Slums.,mit,war.,nan,zwängen.,Tee,dem,nan,nan,Gantenbein.,nan,Japan.,als,Frau,zur,als,jede,ganz,Menge,Boden,zurückgekehrt.,des,nan,Wohnung.,nan,nan,gefertigt.,Gewebe,mitbringen.,Boden,das,,,,,,,,,,,,,,,,,,,,,,,6,0,6,0,0,7,7,7,,,,,,,,space,0.393976926804,,,,,,2017_Jan_24_1559,59.8587698016,spr_backupper,001,Di16,
,Haus,Milch.,nan,nan,nan,nan,Honigs,zweiten,genug.,dunkle,es,nan,gepasst.,vermiest.,wurden.,nan,nan,Honig,sinken.,nan,nan,dumme,Menge,nan,im,nan,nan,nan,nan,nan,Schule.,Rilke.,schon,gefertigt.,genug.,im,nan,an,schon,nan,nan,nan,nan,nan,Rilke,nan,wurden.,nan,Milch.,nan,nan,nan,dummer,nan,nan,nan,besprochen.,umzusetzen.,kaufen.,wiederbelebt.,rekonstruiert.,nan,nan,nan,deutlich.,nan,nan,nan,an,nan,nan,nan,wieder,Haus,nan,nan,nan,nan,nan,gerne.,gepasst,Schule.,gerne.,Menge,deutlich.,dunkler,berührt.,nan,zweiten,nan,nan,nan,nan,nan,wiederhergestellt.,nan,berührt.,Medikament,,,,,,,,,,,,,,,,,,,,,,,6,0,6,0,0,8,8,8,,,,,,,,space,0.392820119858,,,,,,2017_Jan_24_1559,59.8587698016,spr_backupper,001,Di16,
,,,,,,,,,,,,,,,,,,,,,,,,,,,,,,,,,,,,,,,,,,,,,,,,,,,,,,,,,,,,,,,,,,,,,,,,,,,,,,,,,,,,,,,,,,,,,,,,,,,,,,,,,,,,,,,,,,,,,,,,,6,0,6,0,,,,,,,,,,,,,,None,j,25.2230269909,,,2017_Jan_24_1559,59.8587698016,spr_backupper,001,Di16,
,Wir,In,Die,Am,Die,Sie,Er,Bei,100,Mit,Es,Die,Die,Dass,Es,Wir,Die,Er,Ihr,Er,Die,Sie,Man,Er,In,Jungtiere,Es,Die,Manche,Sie,Die,In,Bei,Er,100,In,Sie,Ich,Bei,Unter,Wir,Es,Dort,Die,In,Wir,Es,In,In,Fernab,Außer,Dort,Sie,Walter,Die,Die,Sie,Jetzt,Jugendliche,Die,Das,Wir,Der,Außer,Im,Außer,Die,Am,Ich,Die,Viele,Wir,Ich,Wir,Die,Beträchtliche,Die,Beträchtliche,Die,Wir,Die,Die,Wir,Man,Im,Mit,Nicht,Als,Bei,Die,Sie,Die,Viele,Alle,Danach,Außer,Nicht,In,,,,,,,,,,,,,,,,,,,,,,,7,0,7,0,0,0,0,0,,,,,,,space,space,0.412920951843,,,,1.04019808769,,2017_Jan_24_1559,59.8587698016,spr_backupper,001,Di16,
,haben,den,Teilnehmerinnen,äußersten,Eislaufbahnen,verbrauchen,stellt,der,g,dieser,hat,Stücke,Schuhe,es,waren,hatten,Lösung,stellt,Blutdruck,wurde,Uhr,hatte,machte,wurde,der,sollten,wurden,Schule,Kreditnehmer,verbrauchen,Kinder,meinem,unserer,hat,g,der,verlassen,nehme,unserer,keinen,hatten,wurden,türmen,Gäste,meinem,konnten,waren,diesem,den,des,dem,türmen,hatte,Scheel,Formen,Uhr,haben,ist,können,müden,Tuch,mussten,Flug,dem,Fernrohr,den,Schule,äußeren,nehme,Uhr,Tonnen,mussten,wurde,haben,Linie,Stücke,Gäste,Stücke,"Uhr,",übergaben,Schuhe,Kinder,übergaben,machte,Fernrohr,dieser,ein,die,der,Autos,verlassen,Autos,Tonnen,Betten,wurde,das,ein,einer,,,,,,,,,,,,,,,,,,,,,,,7,0,7,0,0,1,1,1,,,,,,,,space,0.624361991882,,,,,,2017_Jan_24_1559,59.8587698016,spr_backupper,001,Di16,
,jede,Kakao,wussten,Rand,wurden,60,die,Feier,brauner,Methode,uns,wurden,in,"regnete,",nur,in,wird,die,kann,trotz,schlug,keine,mal,trotz,Tat,immer,Eimer,verbraucht,sind,60,fuhren,Studium,Ankunft,ein,braunen,Tat,wegen,eine,Ankunft,Umständen,in,Eimer,sich,suchen,Studium,dann,nur,Zirkus,Kakao,Rummels,Bürgermeister,sich,keine,war,wurden,war,die,genau,Kleidung,Teilnehmer,wurde,uns,zum,Essen,sahen,Bürgermeister,verbraucht,Rand,eine,schlug,gebrauchter,uns,damals,jede,101,saftigen,suchen,saftiges,die,das,in,fuhren,dem,mal,sahen,Methode,Tropfen,Sonne,Feier,beider,wegen,beider,gebrauchte,wurden,die,Essen,Tropfen,Studie,,,,,,,,,,,,,,,,,,,,,,,7,0,7,0,0,2,2,2,,,,,,,,space,0.45330619812,,,,,,2017_Jan_24_1559,59.8587698016,spr_backupper,001,Di16,
,Menge,gehören,überwiegend,der,mit,Liter,Masse,gedachte,Zucker,kann,die,aus,Größe,hat,kleinere,Dänemark,mit,Masse,schon,dem,"sporadisch,",Lust,wieder,des,wissen,auf,rote,260.000,mit,Liter,mit,las,stand,Hemd,Zuckers,wissen,dem,große,stand,können,Dänemark,roter,Berge,die,habe,mit,kleinere,werden,gehören,wurde,beschuldigten,Berge,Lust,der,unter,aus,Erlebnisse,die,bei,wurden,dann,durch,Mond,kann,wir,beschuldigten,260.000,der,große,"sporadisch,",Kleidung,durch,schnell,Menge,hält,Fleischs,die,Fleisch,er,Auto,Größe,mit,Mann,wieder,wir,kann,königliches,"unterging,",gedachte,beteiligter,des,beteiligten,Kleidung,mit,Leinwand,kann,königlichen,wurde,,,,,,,,,,,,,,,,,,,,,,,7,0,7,0,0,3,3,3,,,,,,,,space,0.491014957428,,,,,,2017_Jan_24_1559,59.8587698016,spr_backupper,001,Di16,
,alten,immer,"nicht,",Stadt,dauerhaftem,sprudelnden,mit,man,sind,man,Stimmung,"wertvollem,",36,uns,"Delikte,",gelegentlich,"reichlichem,",mit,bei,bekannten,obwohl,auf,viel,bekannten,wir,warmem,Farbe,Kilowattstunden,"sämtlichem,",sprudelndes,solch,ich,ein,aus,sind,wir,schönen,Packung,ein,Neuwahlen,einen,Farbe,schmutziger,Wohnung,ich,"minimalem,","Delikte,",die,immer,schon,die,schmutzige,auf,vierte,"regelmäßigem,","Japan,",bei,richtige,ausreichendem,mit,mit,Büschel,dauerte,ich,den,die,Kilowattstunden,Stadt,Packung,obschon,landen,Büschel,dank,alten,nicht,wurden,Wohnung,wurden,"trug,",dem,36,solchen,das,viel,den,man,Blut,war,man,Fahrer,schönen,Fahrer,landen,"üblichem,",aus,ich,Bluts,jetzt,,,,,,,,,,,,,,,,,,,,,,,7,0,7,0,0,4,4,4,,,,,,,,space,0.459745883942,,,,,,2017_Jan_24_1559,59.8587698016,spr_backupper,001,Di16,
,Kram,350,was,liegen,feinem,Trinkwassers.,einem,der,auf,eine,ziemlich,klassischen,hätten,die,deren,einen,purem,einem,minimalem,Skandal,sie,noch,Lärm,Skandals,von,weichem,geschleudert.,elektrischer,künftigem,Trinkwasser.,unzureichenden,mehr,Glas,feinem,auf,um,Wetter,salziger,Glas,vor,gelegentlichen,geschleudert.,Wäsche.,des,mehr,sauberen,derer,Tiere,350,immer,Störenfriede,Wäsche.,noch,Bundespräsident.,kaltem,die,"frischem,","Zeit,",monatlichem,zusätzlichem,"reichem,",frisches,ungefähr,leider,roten,Störenfriede,elektrische,liegen,salzige,sie,im,frischen,täglichem,Krams,am,serviert.,des,serviert.,war,Mann,würden,unzureichenden,Auto,Lärm,roten,eine,hat,die,den,wurden,Wetters,wurden,im,harten,seltenem,leider,hat,"nachgewiesen,",,,,,,,,,,,,,,,,,,,,,,,7,0,7,0,0,5,5,5,,,,,,,,space,0.352516889572,,,,,,2017_Jan_24_1559,59.8587698016,spr_backupper,001,Di16,
,aus,ml,Tupperware,die,Kunsteis,nan,Esslöffel,Soldaten,jeden,große,"vermiest,",Schmuck,seiner,Stimmung,sie,Besucher.,Alkohol,Esslöffel,täglichen,wiedergewählt.,defekt,eine,um,wiedergewählt.,den,Untergrund,nan,Energie.,Einkommen,nan,Helmen,als,köstlicher,dichten,jeden,die,die,Wurst,köstlichen,Dezember,Besucher.,nan,nan,Herrn,als,Kraftstoff,sie,artgerecht,ml,ruhig,jeden.,nan,eine,nan,Abduschen,er,kaltem,um,Taschengeld,schwarzem,goldenen,Gras,drei,nichts,Planeten,jeden.,Energie.,die,Wurst,defekt,Müll.,Grases,grünen,aus,Hauptbahnhof.,nan,Herrn,nan,aus,mehr,seiner,Helmen,mehr,um,Planet,große,den,Flut,Soldaten,verschrottet.,die,verschrottet.,Müll.,Schaumstoff,dichten,nichts,den,dass,,,,,,,,,,,,,,,,,,,,,,,7,0,7,0,0,6,6,6,,,,,,,,space,0.554786920547,,,,,,2017_Jan_24_1559,59.8587698016,spr_backupper,001,Di16,
,dem,warme,ist.,Slums.,eingesprüht.,nan,warmen,des,Fall,Menge,dass,umgearbeitet.,Frau,ziemlich,überführt,nan,verdünnt.,warmem,Einsatz,nan,war.,Sammlung,jede,nan,Problemen,liegen.,nan,nan,haftbar.,nan,zur,einmal,Wein,Stoff,Fall,Probleme,Wohnung.,mit,Weins,stattfinden.,nan,nan,nan,Gantenbeins.,einmal,fahren.,überführt,gehalten.,warmer,diskutiert.,nan,nan,Sammlung,nan,gehärtet.,trug.,Saft,Nadelhölzer,selber,Kaffee,Besatz,zwängen.,Tage.,mitbringen.,ganz,nan,nan,Slums.,mit,war.,nan,zwängen.,Tee,dem,nan,nan,Gantenbein.,nan,Japan.,als,Frau,zur,als,jede,ganz,Menge,Boden,zurückgekehrt.,des,nan,Wohnung.,nan,nan,gefertigt.,Gewebe,mitbringen.,Boden,das,,,,,,,,,,,,,,,,,,,,,,,7,0,7,0,0,7,7,7,,,,,,,,space,0.364346981049,,,,,,2017_Jan_24_1559,59.8587698016,spr_backupper,001,Di16,
,,,,,,,,,,,,,,,,,,,,,,,,,,,,,,,,,,,,,,,,,,,,,,,,,,,,,,,,,,,,,,,,,,,,,,,,,,,,,,,,,,,,,,,,,,,,,,,,,,,,,,,,,,,,,,,,,,,,,,,,,7,0,7,0,,,,,,,,,,,,,,None,n,3.05371689796,,,2017_Jan_24_1559,59.8587698016,spr_backupper,001,Di16,
,Wir,In,Die,Am,Die,Sie,Er,Bei,100,Mit,Es,Die,Die,Dass,Es,Wir,Die,Er,Ihr,Er,Die,Sie,Man,Er,In,Jungtiere,Es,Die,Manche,Sie,Die,In,Bei,Er,100,In,Sie,Ich,Bei,Unter,Wir,Es,Dort,Die,In,Wir,Es,In,In,Fernab,Außer,Dort,Sie,Walter,Die,Die,Sie,Jetzt,Jugendliche,Die,Das,Wir,Der,Außer,Im,Außer,Die,Am,Ich,Die,Viele,Wir,Ich,Wir,Die,Beträchtliche,Die,Beträchtliche,Die,Wir,Die,Die,Wir,Man,Im,Mit,Nicht,Als,Bei,Die,Sie,Die,Viele,Alle,Danach,Außer,Nicht,In,,,,,,,,,,,,,,,,,,,,,,,8,0,8,0,0,0,0,0,,,,,,,None,space,0.777648925781,,,,,,2017_Jan_24_1559,59.8587698016,spr_backupper,001,Di16,
,haben,den,Teilnehmerinnen,äußersten,Eislaufbahnen,verbrauchen,stellt,der,g,dieser,hat,Stücke,Schuhe,es,waren,hatten,Lösung,stellt,Blutdruck,wurde,Uhr,hatte,machte,wurde,der,sollten,wurden,Schule,Kreditnehmer,verbrauchen,Kinder,meinem,unserer,hat,g,der,verlassen,nehme,unserer,keinen,hatten,wurden,türmen,Gäste,meinem,konnten,waren,diesem,den,des,dem,türmen,hatte,Scheel,Formen,Uhr,haben,ist,können,müden,Tuch,mussten,Flug,dem,Fernrohr,den,Schule,äußeren,nehme,Uhr,Tonnen,mussten,wurde,haben,Linie,Stücke,Gäste,Stücke,"Uhr,",übergaben,Schuhe,Kinder,übergaben,machte,Fernrohr,dieser,ein,die,der,Autos,verlassen,Autos,Tonnen,Betten,wurde,das,ein,einer,,,,,,,,,,,,,,,,,,,,,,,8,0,8,0,0,1,1,1,,,,,,,,space,0.360462903976,,,,,,2017_Jan_24_1559,59.8587698016,spr_backupper,001,Di16,
,jede,Kakao,wussten,Rand,wurden,60,die,Feier,brauner,Methode,uns,wurden,in,"regnete,",nur,in,wird,die,kann,trotz,schlug,keine,mal,trotz,Tat,immer,Eimer,verbraucht,sind,60,fuhren,Studium,Ankunft,ein,braunen,Tat,wegen,eine,Ankunft,Umständen,in,Eimer,sich,suchen,Studium,dann,nur,Zirkus,Kakao,Rummels,Bürgermeister,sich,keine,war,wurden,war,die,genau,Kleidung,Teilnehmer,wurde,uns,zum,Essen,sahen,Bürgermeister,verbraucht,Rand,eine,schlug,gebrauchter,uns,damals,jede,101,saftigen,suchen,saftiges,die,das,in,fuhren,dem,mal,sahen,Methode,Tropfen,Sonne,Feier,beider,wegen,beider,gebrauchte,wurden,die,Essen,Tropfen,Studie,,,,,,,,,,,,,,,,,,,,,,,8,0,8,0,0,2,2,2,,,,,,,,space,0.334964990616,,,,,,2017_Jan_24_1559,59.8587698016,spr_backupper,001,Di16,
,Menge,gehören,überwiegend,der,mit,Liter,Masse,gedachte,Zucker,kann,die,aus,Größe,hat,kleinere,Dänemark,mit,Masse,schon,dem,"sporadisch,",Lust,wieder,des,wissen,auf,rote,260.000,mit,Liter,mit,las,stand,Hemd,Zuckers,wissen,dem,große,stand,können,Dänemark,roter,Berge,die,habe,mit,kleinere,werden,gehören,wurde,beschuldigten,Berge,Lust,der,unter,aus,Erlebnisse,die,bei,wurden,dann,durch,Mond,kann,wir,beschuldigten,260.000,der,große,"sporadisch,",Kleidung,durch,schnell,Menge,hält,Fleischs,die,Fleisch,er,Auto,Größe,mit,Mann,wieder,wir,kann,königliches,"unterging,",gedachte,beteiligter,des,beteiligten,Kleidung,mit,Leinwand,kann,königlichen,wurde,,,,,,,,,,,,,,,,,,,,,,,8,0,8,0,0,3,3,3,,,,,,,,space,0.450613021851,,,,,,2017_Jan_24_1559,59.8587698016,spr_backupper,001,Di16,
,alten,immer,"nicht,",Stadt,dauerhaftem,sprudelnden,mit,man,sind,man,Stimmung,"wertvollem,",36,uns,"Delikte,",gelegentlich,"reichlichem,",mit,bei,bekannten,obwohl,auf,viel,bekannten,wir,warmem,Farbe,Kilowattstunden,"sämtlichem,",sprudelndes,solch,ich,ein,aus,sind,wir,schönen,Packung,ein,Neuwahlen,einen,Farbe,schmutziger,Wohnung,ich,"minimalem,","Delikte,",die,immer,schon,die,schmutzige,auf,vierte,"regelmäßigem,","Japan,",bei,richtige,ausreichendem,mit,mit,Büschel,dauerte,ich,den,die,Kilowattstunden,Stadt,Packung,obschon,landen,Büschel,dank,alten,nicht,wurden,Wohnung,wurden,"trug,",dem,36,solchen,das,viel,den,man,Blut,war,man,Fahrer,schönen,Fahrer,landen,"üblichem,",aus,ich,Bluts,jetzt,,,,,,,,,,,,,,,,,,,,,,,8,0,8,0,0,4,4,4,,,,,,,,space,0.325778961182,,,,,,2017_Jan_24_1559,59.8587698016,spr_backupper,001,Di16,
,Kram,350,was,liegen,feinem,Trinkwassers.,einem,der,auf,eine,ziemlich,klassischen,hätten,die,deren,einen,purem,einem,minimalem,Skandal,sie,noch,Lärm,Skandals,von,weichem,geschleudert.,elektrischer,künftigem,Trinkwasser.,unzureichenden,mehr,Glas,feinem,auf,um,Wetter,salziger,Glas,vor,gelegentlichen,geschleudert.,Wäsche.,des,mehr,sauberen,derer,Tiere,350,immer,Störenfriede,Wäsche.,noch,Bundespräsident.,kaltem,die,"frischem,","Zeit,",monatlichem,zusätzlichem,"reichem,",frisches,ungefähr,leider,roten,Störenfriede,elektrische,liegen,salzige,sie,im,frischen,täglichem,Krams,am,serviert.,des,serviert.,war,Mann,würden,unzureichenden,Auto,Lärm,roten,eine,hat,die,den,wurden,Wetters,wurden,im,harten,seltenem,leider,hat,"nachgewiesen,",,,,,,,,,,,,,,,,,,,,,,,8,0,8,0,0,5,5,5,,,,,,,,space,0.335969924927,,,,,,2017_Jan_24_1559,59.8587698016,spr_backupper,001,Di16,
,aus,ml,Tupperware,die,Kunsteis,nan,Esslöffel,Soldaten,jeden,große,"vermiest,",Schmuck,seiner,Stimmung,sie,Besucher.,Alkohol,Esslöffel,täglichen,wiedergewählt.,defekt,eine,um,wiedergewählt.,den,Untergrund,nan,Energie.,Einkommen,nan,Helmen,als,köstlicher,dichten,jeden,die,die,Wurst,köstlichen,Dezember,Besucher.,nan,nan,Herrn,als,Kraftstoff,sie,artgerecht,ml,ruhig,jeden.,nan,eine,nan,Abduschen,er,kaltem,um,Taschengeld,schwarzem,goldenen,Gras,drei,nichts,Planeten,jeden.,Energie.,die,Wurst,defekt,Müll.,Grases,grünen,aus,Hauptbahnhof.,nan,Herrn,nan,aus,mehr,seiner,Helmen,mehr,um,Planet,große,den,Flut,Soldaten,verschrottet.,die,verschrottet.,Müll.,Schaumstoff,dichten,nichts,den,dass,,,,,,,,,,,,,,,,,,,,,,,8,0,8,0,0,6,6,6,,,,,,,,space,0.329399824142,,,,,,2017_Jan_24_1559,59.8587698016,spr_backupper,001,Di16,
,dem,warme,ist.,Slums.,eingesprüht.,nan,warmen,des,Fall,Menge,dass,umgearbeitet.,Frau,ziemlich,überführt,nan,verdünnt.,warmem,Einsatz,nan,war.,Sammlung,jede,nan,Problemen,liegen.,nan,nan,haftbar.,nan,zur,einmal,Wein,Stoff,Fall,Probleme,Wohnung.,mit,Weins,stattfinden.,nan,nan,nan,Gantenbeins.,einmal,fahren.,überführt,gehalten.,warmer,diskutiert.,nan,nan,Sammlung,nan,gehärtet.,trug.,Saft,Nadelhölzer,selber,Kaffee,Besatz,zwängen.,Tage.,mitbringen.,ganz,nan,nan,Slums.,mit,war.,nan,zwängen.,Tee,dem,nan,nan,Gantenbein.,nan,Japan.,als,Frau,zur,als,jede,ganz,Menge,Boden,zurückgekehrt.,des,nan,Wohnung.,nan,nan,gefertigt.,Gewebe,mitbringen.,Boden,das,,,,,,,,,,,,,,,,,,,,,,,8,0,8,0,0,7,7,7,,,,,,,,space,0.326277971268,,,,,,2017_Jan_24_1559,59.8587698016,spr_backupper,001,Di16,
,Haus,Milch.,nan,nan,nan,nan,Honigs,zweiten,genug.,dunkle,es,nan,gepasst.,vermiest.,wurden.,nan,nan,Honig,sinken.,nan,nan,dumme,Menge,nan,im,nan,nan,nan,nan,nan,Schule.,Rilke.,schon,gefertigt.,genug.,im,nan,an,schon,nan,nan,nan,nan,nan,Rilke,nan,wurden.,nan,Milch.,nan,nan,nan,dummer,nan,nan,nan,besprochen.,umzusetzen.,kaufen.,wiederbelebt.,rekonstruiert.,nan,nan,nan,deutlich.,nan,nan,nan,an,nan,nan,nan,wieder,Haus,nan,nan,nan,nan,nan,gerne.,gepasst,Schule.,gerne.,Menge,deutlich.,dunkler,berührt.,nan,zweiten,nan,nan,nan,nan,nan,wiederhergestellt.,nan,berührt.,Medikament,,,,,,,,,,,,,,,,,,,,,,,8,0,8,0,0,8,8,8,,,,,,,,space,0.310801029205,,,,,,2017_Jan_24_1559,59.8587698016,spr_backupper,001,Di16,
,,,,,,,,,,,,,,,,,,,,,,,,,,,,,,,,,,,,,,,,,,,,,,,,,,,,,,,,,,,,,,,,,,,,,,,,,,,,,,,,,,,,,,,,,,,,,,,,,,,,,,,,,,,,,,,,,,,,,,,,,8,0,8,0,,,,,,,,,,,,,,None,j,5.92780590057,,,2017_Jan_24_1559,59.8587698016,spr_backupper,001,Di16,
,Wir,In,Die,Am,Die,Sie,Er,Bei,100,Mit,Es,Die,Die,Dass,Es,Wir,Die,Er,Ihr,Er,Die,Sie,Man,Er,In,Jungtiere,Es,Die,Manche,Sie,Die,In,Bei,Er,100,In,Sie,Ich,Bei,Unter,Wir,Es,Dort,Die,In,Wir,Es,In,In,Fernab,Außer,Dort,Sie,Walter,Die,Die,Sie,Jetzt,Jugendliche,Die,Das,Wir,Der,Außer,Im,Außer,Die,Am,Ich,Die,Viele,Wir,Ich,Wir,Die,Beträchtliche,Die,Beträchtliche,Die,Wir,Die,Die,Wir,Man,Im,Mit,Nicht,Als,Bei,Die,Sie,Die,Viele,Alle,Danach,Außer,Nicht,In,,,,,,,,,,,,,,,,,,,,,,,9,0,9,0,0,0,0,0,,,,,,,None,space,0.724407911301,,,,,,2017_Jan_24_1559,59.8587698016,spr_backupper,001,Di16,
,haben,den,Teilnehmerinnen,äußersten,Eislaufbahnen,verbrauchen,stellt,der,g,dieser,hat,Stücke,Schuhe,es,waren,hatten,Lösung,stellt,Blutdruck,wurde,Uhr,hatte,machte,wurde,der,sollten,wurden,Schule,Kreditnehmer,verbrauchen,Kinder,meinem,unserer,hat,g,der,verlassen,nehme,unserer,keinen,hatten,wurden,türmen,Gäste,meinem,konnten,waren,diesem,den,des,dem,türmen,hatte,Scheel,Formen,Uhr,haben,ist,können,müden,Tuch,mussten,Flug,dem,Fernrohr,den,Schule,äußeren,nehme,Uhr,Tonnen,mussten,wurde,haben,Linie,Stücke,Gäste,Stücke,"Uhr,",übergaben,Schuhe,Kinder,übergaben,machte,Fernrohr,dieser,ein,die,der,Autos,verlassen,Autos,Tonnen,Betten,wurde,das,ein,einer,,,,,,,,,,,,,,,,,,,,,,,9,0,9,0,0,1,1,1,,,,,,,,space,0.382475137711,,,,,,2017_Jan_24_1559,59.8587698016,spr_backupper,001,Di16,
,jede,Kakao,wussten,Rand,wurden,60,die,Feier,brauner,Methode,uns,wurden,in,"regnete,",nur,in,wird,die,kann,trotz,schlug,keine,mal,trotz,Tat,immer,Eimer,verbraucht,sind,60,fuhren,Studium,Ankunft,ein,braunen,Tat,wegen,eine,Ankunft,Umständen,in,Eimer,sich,suchen,Studium,dann,nur,Zirkus,Kakao,Rummels,Bürgermeister,sich,keine,war,wurden,war,die,genau,Kleidung,Teilnehmer,wurde,uns,zum,Essen,sahen,Bürgermeister,verbraucht,Rand,eine,schlug,gebrauchter,uns,damals,jede,101,saftigen,suchen,saftiges,die,das,in,fuhren,dem,mal,sahen,Methode,Tropfen,Sonne,Feier,beider,wegen,beider,gebrauchte,wurden,die,Essen,Tropfen,Studie,,,,,,,,,,,,,,,,,,,,,,,9,0,9,0,0,2,2,2,,,,,,,,space,0.358088970184,,,,,,2017_Jan_24_1559,59.8587698016,spr_backupper,001,Di16,
,Menge,gehören,überwiegend,der,mit,Liter,Masse,gedachte,Zucker,kann,die,aus,Größe,hat,kleinere,Dänemark,mit,Masse,schon,dem,"sporadisch,",Lust,wieder,des,wissen,auf,rote,260.000,mit,Liter,mit,las,stand,Hemd,Zuckers,wissen,dem,große,stand,können,Dänemark,roter,Berge,die,habe,mit,kleinere,werden,gehören,wurde,beschuldigten,Berge,Lust,der,unter,aus,Erlebnisse,die,bei,wurden,dann,durch,Mond,kann,wir,beschuldigten,260.000,der,große,"sporadisch,",Kleidung,durch,schnell,Menge,hält,Fleischs,die,Fleisch,er,Auto,Größe,mit,Mann,wieder,wir,kann,königliches,"unterging,",gedachte,beteiligter,des,beteiligten,Kleidung,mit,Leinwand,kann,königlichen,wurde,,,,,,,,,,,,,,,,,,,,,,,9,0,9,0,0,3,3,3,,,,,,,,space,0.31973695755,,,,,,2017_Jan_24_1559,59.8587698016,spr_backupper,001,Di16,
,alten,immer,"nicht,",Stadt,dauerhaftem,sprudelnden,mit,man,sind,man,Stimmung,"wertvollem,",36,uns,"Delikte,",gelegentlich,"reichlichem,",mit,bei,bekannten,obwohl,auf,viel,bekannten,wir,warmem,Farbe,Kilowattstunden,"sämtlichem,",sprudelndes,solch,ich,ein,aus,sind,wir,schönen,Packung,ein,Neuwahlen,einen,Farbe,schmutziger,Wohnung,ich,"minimalem,","Delikte,",die,immer,schon,die,schmutzige,auf,vierte,"regelmäßigem,","Japan,",bei,richtige,ausreichendem,mit,mit,Büschel,dauerte,ich,den,die,Kilowattstunden,Stadt,Packung,obschon,landen,Büschel,dank,alten,nicht,wurden,Wohnung,wurden,"trug,",dem,36,solchen,das,viel,den,man,Blut,war,man,Fahrer,schönen,Fahrer,landen,"üblichem,",aus,ich,Bluts,jetzt,,,,,,,,,,,,,,,,,,,,,,,9,0,9,0,0,4,4,4,,,,,,,,space,0.356758832932,,,,,,2017_Jan_24_1559,59.8587698016,spr_backupper,001,Di16,
,Kram,350,was,liegen,feinem,Trinkwassers.,einem,der,auf,eine,ziemlich,klassischen,hätten,die,deren,einen,purem,einem,minimalem,Skandal,sie,noch,Lärm,Skandals,von,weichem,geschleudert.,elektrischer,künftigem,Trinkwasser.,unzureichenden,mehr,Glas,feinem,auf,um,Wetter,salziger,Glas,vor,gelegentlichen,geschleudert.,Wäsche.,des,mehr,sauberen,derer,Tiere,350,immer,Störenfriede,Wäsche.,noch,Bundespräsident.,kaltem,die,"frischem,","Zeit,",monatlichem,zusätzlichem,"reichem,",frisches,ungefähr,leider,roten,Störenfriede,elektrische,liegen,salzige,sie,im,frischen,täglichem,Krams,am,serviert.,des,serviert.,war,Mann,würden,unzureichenden,Auto,Lärm,roten,eine,hat,die,den,wurden,Wetters,wurden,im,harten,seltenem,leider,hat,"nachgewiesen,",,,,,,,,,,,,,,,,,,,,,,,9,0,9,0,0,5,5,5,,,,,,,,space,0.382377147675,,,,,,2017_Jan_24_1559,59.8587698016,spr_backupper,001,Di16,
,aus,ml,Tupperware,die,Kunsteis,nan,Esslöffel,Soldaten,jeden,große,"vermiest,",Schmuck,seiner,Stimmung,sie,Besucher.,Alkohol,Esslöffel,täglichen,wiedergewählt.,defekt,eine,um,wiedergewählt.,den,Untergrund,nan,Energie.,Einkommen,nan,Helmen,als,köstlicher,dichten,jeden,die,die,Wurst,köstlichen,Dezember,Besucher.,nan,nan,Herrn,als,Kraftstoff,sie,artgerecht,ml,ruhig,jeden.,nan,eine,nan,Abduschen,er,kaltem,um,Taschengeld,schwarzem,goldenen,Gras,drei,nichts,Planeten,jeden.,Energie.,die,Wurst,defekt,Müll.,Grases,grünen,aus,Hauptbahnhof.,nan,Herrn,nan,aus,mehr,seiner,Helmen,mehr,um,Planet,große,den,Flut,Soldaten,verschrottet.,die,verschrottet.,Müll.,Schaumstoff,dichten,nichts,den,dass,,,,,,,,,,,,,,,,,,,,,,,9,0,9,0,0,6,6,6,,,,,,,,space,0.402688980103,,,,,,2017_Jan_24_1559,59.8587698016,spr_backupper,001,Di16,
,,,,,,,,,,,,,,,,,,,,,,,,,,,,,,,,,,,,,,,,,,,,,,,,,,,,,,,,,,,,,,,,,,,,,,,,,,,,,,,,,,,,,,,,,,,,,,,,,,,,,,,,,,,,,,,,,,,,,,,,,9,0,9,0,,,,,,,,,,,,,,None,j,2.91901707649,,,2017_Jan_24_1559,59.8587698016,spr_backupper,001,Di16,
,Wir,In,Die,Am,Die,Sie,Er,Bei,100,Mit,Es,Die,Die,Dass,Es,Wir,Die,Er,Ihr,Er,Die,Sie,Man,Er,In,Jungtiere,Es,Die,Manche,Sie,Die,In,Bei,Er,100,In,Sie,Ich,Bei,Unter,Wir,Es,Dort,Die,In,Wir,Es,In,In,Fernab,Außer,Dort,Sie,Walter,Die,Die,Sie,Jetzt,Jugendliche,Die,Das,Wir,Der,Außer,Im,Außer,Die,Am,Ich,Die,Viele,Wir,Ich,Wir,Die,Beträchtliche,Die,Beträchtliche,Die,Wir,Die,Die,Wir,Man,Im,Mit,Nicht,Als,Bei,Die,Sie,Die,Viele,Alle,Danach,Außer,Nicht,In,,,,,,,,,,,,,,,,,,,,,,,10,0,10,0,0,0,0,0,,,,,,,None,space,0.959095001221,,,,,,2017_Jan_24_1559,59.8587698016,spr_backupper,001,Di16,
,haben,den,Teilnehmerinnen,äußersten,Eislaufbahnen,verbrauchen,stellt,der,g,dieser,hat,Stücke,Schuhe,es,waren,hatten,Lösung,stellt,Blutdruck,wurde,Uhr,hatte,machte,wurde,der,sollten,wurden,Schule,Kreditnehmer,verbrauchen,Kinder,meinem,unserer,hat,g,der,verlassen,nehme,unserer,keinen,hatten,wurden,türmen,Gäste,meinem,konnten,waren,diesem,den,des,dem,türmen,hatte,Scheel,Formen,Uhr,haben,ist,können,müden,Tuch,mussten,Flug,dem,Fernrohr,den,Schule,äußeren,nehme,Uhr,Tonnen,mussten,wurde,haben,Linie,Stücke,Gäste,Stücke,"Uhr,",übergaben,Schuhe,Kinder,übergaben,machte,Fernrohr,dieser,ein,die,der,Autos,verlassen,Autos,Tonnen,Betten,wurde,das,ein,einer,,,,,,,,,,,,,,,,,,,,,,,10,0,10,0,0,1,1,1,,,,,,,,space,0.436079025269,,,,,,2017_Jan_24_1559,59.8587698016,spr_backupper,001,Di16,
,jede,Kakao,wussten,Rand,wurden,60,die,Feier,brauner,Methode,uns,wurden,in,"regnete,",nur,in,wird,die,kann,trotz,schlug,keine,mal,trotz,Tat,immer,Eimer,verbraucht,sind,60,fuhren,Studium,Ankunft,ein,braunen,Tat,wegen,eine,Ankunft,Umständen,in,Eimer,sich,suchen,Studium,dann,nur,Zirkus,Kakao,Rummels,Bürgermeister,sich,keine,war,wurden,war,die,genau,Kleidung,Teilnehmer,wurde,uns,zum,Essen,sahen,Bürgermeister,verbraucht,Rand,eine,schlug,gebrauchter,uns,damals,jede,101,saftigen,suchen,saftiges,die,das,in,fuhren,dem,mal,sahen,Methode,Tropfen,Sonne,Feier,beider,wegen,beider,gebrauchte,wurden,die,Essen,Tropfen,Studie,,,,,,,,,,,,,,,,,,,,,,,10,0,10,0,0,2,2,2,,,,,,,,space,0.504040956497,,,,,,2017_Jan_24_1559,59.8587698016,spr_backupper,001,Di16,
,Menge,gehören,überwiegend,der,mit,Liter,Masse,gedachte,Zucker,kann,die,aus,Größe,hat,kleinere,Dänemark,mit,Masse,schon,dem,"sporadisch,",Lust,wieder,des,wissen,auf,rote,260.000,mit,Liter,mit,las,stand,Hemd,Zuckers,wissen,dem,große,stand,können,Dänemark,roter,Berge,die,habe,mit,kleinere,werden,gehören,wurde,beschuldigten,Berge,Lust,der,unter,aus,Erlebnisse,die,bei,wurden,dann,durch,Mond,kann,wir,beschuldigten,260.000,der,große,"sporadisch,",Kleidung,durch,schnell,Menge,hält,Fleischs,die,Fleisch,er,Auto,Größe,mit,Mann,wieder,wir,kann,königliches,"unterging,",gedachte,beteiligter,des,beteiligten,Kleidung,mit,Leinwand,kann,königlichen,wurde,,,,,,,,,,,,,,,,,,,,,,,10,0,10,0,0,3,3,3,,,,,,,,space,0.392115831375,,,,,,2017_Jan_24_1559,59.8587698016,spr_backupper,001,Di16,
,alten,immer,"nicht,",Stadt,dauerhaftem,sprudelnden,mit,man,sind,man,Stimmung,"wertvollem,",36,uns,"Delikte,",gelegentlich,"reichlichem,",mit,bei,bekannten,obwohl,auf,viel,bekannten,wir,warmem,Farbe,Kilowattstunden,"sämtlichem,",sprudelndes,solch,ich,ein,aus,sind,wir,schönen,Packung,ein,Neuwahlen,einen,Farbe,schmutziger,Wohnung,ich,"minimalem,","Delikte,",die,immer,schon,die,schmutzige,auf,vierte,"regelmäßigem,","Japan,",bei,richtige,ausreichendem,mit,mit,Büschel,dauerte,ich,den,die,Kilowattstunden,Stadt,Packung,obschon,landen,Büschel,dank,alten,nicht,wurden,Wohnung,wurden,"trug,",dem,36,solchen,das,viel,den,man,Blut,war,man,Fahrer,schönen,Fahrer,landen,"üblichem,",aus,ich,Bluts,jetzt,,,,,,,,,,,,,,,,,,,,,,,10,0,10,0,0,4,4,4,,,,,,,,space,0.335949897766,,,,,,2017_Jan_24_1559,59.8587698016,spr_backupper,001,Di16,
,Kram,350,was,liegen,feinem,Trinkwassers.,einem,der,auf,eine,ziemlich,klassischen,hätten,die,deren,einen,purem,einem,minimalem,Skandal,sie,noch,Lärm,Skandals,von,weichem,geschleudert.,elektrischer,künftigem,Trinkwasser.,unzureichenden,mehr,Glas,feinem,auf,um,Wetter,salziger,Glas,vor,gelegentlichen,geschleudert.,Wäsche.,des,mehr,sauberen,derer,Tiere,350,immer,Störenfriede,Wäsche.,noch,Bundespräsident.,kaltem,die,"frischem,","Zeit,",monatlichem,zusätzlichem,"reichem,",frisches,ungefähr,leider,roten,Störenfriede,elektrische,liegen,salzige,sie,im,frischen,täglichem,Krams,am,serviert.,des,serviert.,war,Mann,würden,unzureichenden,Auto,Lärm,roten,eine,hat,die,den,wurden,Wetters,wurden,im,harten,seltenem,leider,hat,"nachgewiesen,",,,,,,,,,,,,,,,,,,,,,,,10,0,10,0,0,5,5,5,,,,,,,,space,0.362146139145,,,,,,2017_Jan_24_1559,59.8587698016,spr_backupper,001,Di16,
,aus,ml,Tupperware,die,Kunsteis,nan,Esslöffel,Soldaten,jeden,große,"vermiest,",Schmuck,seiner,Stimmung,sie,Besucher.,Alkohol,Esslöffel,täglichen,wiedergewählt.,defekt,eine,um,wiedergewählt.,den,Untergrund,nan,Energie.,Einkommen,nan,Helmen,als,köstlicher,dichten,jeden,die,die,Wurst,köstlichen,Dezember,Besucher.,nan,nan,Herrn,als,Kraftstoff,sie,artgerecht,ml,ruhig,jeden.,nan,eine,nan,Abduschen,er,kaltem,um,Taschengeld,schwarzem,goldenen,Gras,drei,nichts,Planeten,jeden.,Energie.,die,Wurst,defekt,Müll.,Grases,grünen,aus,Hauptbahnhof.,nan,Herrn,nan,aus,mehr,seiner,Helmen,mehr,um,Planet,große,den,Flut,Soldaten,verschrottet.,die,verschrottet.,Müll.,Schaumstoff,dichten,nichts,den,dass,,,,,,,,,,,,,,,,,,,,,,,10,0,10,0,0,6,6,6,,,,,,,,space,0.430823802948,,,,,,2017_Jan_24_1559,59.8587698016,spr_backupper,001,Di16,
,dem,warme,ist.,Slums.,eingesprüht.,nan,warmen,des,Fall,Menge,dass,umgearbeitet.,Frau,ziemlich,überführt,nan,verdünnt.,warmem,Einsatz,nan,war.,Sammlung,jede,nan,Problemen,liegen.,nan,nan,haftbar.,nan,zur,einmal,Wein,Stoff,Fall,Probleme,Wohnung.,mit,Weins,stattfinden.,nan,nan,nan,Gantenbeins.,einmal,fahren.,überführt,gehalten.,warmer,diskutiert.,nan,nan,Sammlung,nan,gehärtet.,trug.,Saft,Nadelhölzer,selber,Kaffee,Besatz,zwängen.,Tage.,mitbringen.,ganz,nan,nan,Slums.,mit,war.,nan,zwängen.,Tee,dem,nan,nan,Gantenbein.,nan,Japan.,als,Frau,zur,als,jede,ganz,Menge,Boden,zurückgekehrt.,des,nan,Wohnung.,nan,nan,gefertigt.,Gewebe,mitbringen.,Boden,das,,,,,,,,,,,,,,,,,,,,,,,10,0,10,0,0,7,7,7,,,,,,,,space,0.419574022293,,,,,,2017_Jan_24_1559,59.8587698016,spr_backupper,001,Di16,
,Haus,Milch.,nan,nan,nan,nan,Honigs,zweiten,genug.,dunkle,es,nan,gepasst.,vermiest.,wurden.,nan,nan,Honig,sinken.,nan,nan,dumme,Menge,nan,im,nan,nan,nan,nan,nan,Schule.,Rilke.,schon,gefertigt.,genug.,im,nan,an,schon,nan,nan,nan,nan,nan,Rilke,nan,wurden.,nan,Milch.,nan,nan,nan,dummer,nan,nan,nan,besprochen.,umzusetzen.,kaufen.,wiederbelebt.,rekonstruiert.,nan,nan,nan,deutlich.,nan,nan,nan,an,nan,nan,nan,wieder,Haus,nan,nan,nan,nan,nan,gerne.,gepasst,Schule.,gerne.,Menge,deutlich.,dunkler,berührt.,nan,zweiten,nan,nan,nan,nan,nan,wiederhergestellt.,nan,berührt.,Medikament,,,,,,,,,,,,,,,,,,,,,,,10,0,10,0,0,8,8,8,,,,,,,,space,0.369126081467,,,,,,2017_Jan_24_1559,59.8587698016,spr_backupper,001,Di16,
,geschafft.,nan,nan,nan,nan,nan,her.,Weltkriegs.,nan,Materie,regnete.,nan,nan,nan,nan,nan,nan,her.,nan,nan,nan,Sprüche.,heißer,nan,Landkreis.,nan,nan,nan,nan,nan,nan,nan,auf,nan,nan,Landkreis.,nan,den,auf,nan,nan,nan,nan,nan,gelesen.,nan,nan,nan,nan,nan,nan,nan,Sprüche.,nan,nan,nan,nan,nan,nan,nan,nan,nan,nan,nan,nan,nan,nan,nan,den,nan,nan,nan,fit.,geschafft.,nan,nan,nan,nan,nan,nan,haben.,nan,nan,heiße,nan,Materie,nan,nan,Weltkriegs.,nan,nan,nan,nan,nan,nan,nan,nan,nicht,,,,,,,,,,,,,,,,,,,,,,,10,0,10,0,0,9,9,9,,,,,,,,space,0.381506919861,,,,,,2017_Jan_24_1559,59.8587698016,spr_backupper,001,Di16,
,nan,nan,nan,nan,nan,nan,nan,nan,nan,erzeugen.,nan,nan,nan,nan,nan,nan,nan,nan,nan,nan,nan,nan,Luft.,nan,nan,nan,nan,nan,nan,nan,nan,nan,dem,nan,nan,nan,nan,See.,dem,nan,nan,nan,nan,nan,nan,nan,nan,nan,nan,nan,nan,nan,nan,nan,nan,nan,nan,nan,nan,nan,nan,nan,nan,nan,nan,nan,nan,nan,See.,nan,nan,nan,nan,nan,nan,nan,nan,nan,nan,nan,nan,nan,nan,Luft.,nan,erzeugen.,nan,nan,nan,nan,nan,nan,nan,nan,nan,nan,nan,wirkt.,,,,,,,,,,,,,,,,,,,,,,,10,0,10,0,0,10,10,10,,,,,,,,space,0.392678022385,,,,,,2017_Jan_24_1559,59.8587698016,spr_backupper,001,Di16,
,,,,,,,,,,,,,,,,,,,,,,,,,,,,,,,,,,,,,,,,,,,,,,,,,,,,,,,,,,,,,,,,,,,,,,,,,,,,,,,,,,,,,,,,,,,,,,,,,,,,,,,,,,,,,,,,,,,,,,,,,10,0,10,0,,,,,,,,,,,,,,None,n,6.32035589218,,,2017_Jan_24_1559,59.8587698016,spr_backupper,001,Di16,
,Wir,In,Die,Am,Die,Sie,Er,Bei,100,Mit,Es,Die,Die,Dass,Es,Wir,Die,Er,Ihr,Er,Die,Sie,Man,Er,In,Jungtiere,Es,Die,Manche,Sie,Die,In,Bei,Er,100,In,Sie,Ich,Bei,Unter,Wir,Es,Dort,Die,In,Wir,Es,In,In,Fernab,Außer,Dort,Sie,Walter,Die,Die,Sie,Jetzt,Jugendliche,Die,Das,Wir,Der,Außer,Im,Außer,Die,Am,Ich,Die,Viele,Wir,Ich,Wir,Die,Beträchtliche,Die,Beträchtliche,Die,Wir,Die,Die,Wir,Man,Im,Mit,Nicht,Als,Bei,Die,Sie,Die,Viele,Alle,Danach,Außer,Nicht,In,,,,,,,,,,,,,,,,,,,,,,,11,0,11,0,0,0,0,0,,,,,,,None,space,0.638653993607,,,,,,2017_Jan_24_1559,59.8587698016,spr_backupper,001,Di16,
,haben,den,Teilnehmerinnen,äußersten,Eislaufbahnen,verbrauchen,stellt,der,g,dieser,hat,Stücke,Schuhe,es,waren,hatten,Lösung,stellt,Blutdruck,wurde,Uhr,hatte,machte,wurde,der,sollten,wurden,Schule,Kreditnehmer,verbrauchen,Kinder,meinem,unserer,hat,g,der,verlassen,nehme,unserer,keinen,hatten,wurden,türmen,Gäste,meinem,konnten,waren,diesem,den,des,dem,türmen,hatte,Scheel,Formen,Uhr,haben,ist,können,müden,Tuch,mussten,Flug,dem,Fernrohr,den,Schule,äußeren,nehme,Uhr,Tonnen,mussten,wurde,haben,Linie,Stücke,Gäste,Stücke,"Uhr,",übergaben,Schuhe,Kinder,übergaben,machte,Fernrohr,dieser,ein,die,der,Autos,verlassen,Autos,Tonnen,Betten,wurde,das,ein,einer,,,,,,,,,,,,,,,,,,,,,,,11,0,11,0,0,1,1,1,,,,,,,,space,0.35645198822,,,,,,2017_Jan_24_1559,59.8587698016,spr_backupper,001,Di16,
,jede,Kakao,wussten,Rand,wurden,60,die,Feier,brauner,Methode,uns,wurden,in,"regnete,",nur,in,wird,die,kann,trotz,schlug,keine,mal,trotz,Tat,immer,Eimer,verbraucht,sind,60,fuhren,Studium,Ankunft,ein,braunen,Tat,wegen,eine,Ankunft,Umständen,in,Eimer,sich,suchen,Studium,dann,nur,Zirkus,Kakao,Rummels,Bürgermeister,sich,keine,war,wurden,war,die,genau,Kleidung,Teilnehmer,wurde,uns,zum,Essen,sahen,Bürgermeister,verbraucht,Rand,eine,schlug,gebrauchter,uns,damals,jede,101,saftigen,suchen,saftiges,die,das,in,fuhren,dem,mal,sahen,Methode,Tropfen,Sonne,Feier,beider,wegen,beider,gebrauchte,wurden,die,Essen,Tropfen,Studie,,,,,,,,,,,,,,,,,,,,,,,11,0,11,0,0,2,2,2,,,,,,,,space,0.353971004486,,,,,,2017_Jan_24_1559,59.8587698016,spr_backupper,001,Di16,
,Menge,gehören,überwiegend,der,mit,Liter,Masse,gedachte,Zucker,kann,die,aus,Größe,hat,kleinere,Dänemark,mit,Masse,schon,dem,"sporadisch,",Lust,wieder,des,wissen,auf,rote,260.000,mit,Liter,mit,las,stand,Hemd,Zuckers,wissen,dem,große,stand,können,Dänemark,roter,Berge,die,habe,mit,kleinere,werden,gehören,wurde,beschuldigten,Berge,Lust,der,unter,aus,Erlebnisse,die,bei,wurden,dann,durch,Mond,kann,wir,beschuldigten,260.000,der,große,"sporadisch,",Kleidung,durch,schnell,Menge,hält,Fleischs,die,Fleisch,er,Auto,Größe,mit,Mann,wieder,wir,kann,königliches,"unterging,",gedachte,beteiligter,des,beteiligten,Kleidung,mit,Leinwand,kann,königlichen,wurde,,,,,,,,,,,,,,,,,,,,,,,11,0,11,0,0,3,3,3,,,,,,,,space,0.342722892761,,,,,,2017_Jan_24_1559,59.8587698016,spr_backupper,001,Di16,
,alten,immer,"nicht,",Stadt,dauerhaftem,sprudelnden,mit,man,sind,man,Stimmung,"wertvollem,",36,uns,"Delikte,",gelegentlich,"reichlichem,",mit,bei,bekannten,obwohl,auf,viel,bekannten,wir,warmem,Farbe,Kilowattstunden,"sämtlichem,",sprudelndes,solch,ich,ein,aus,sind,wir,schönen,Packung,ein,Neuwahlen,einen,Farbe,schmutziger,Wohnung,ich,"minimalem,","Delikte,",die,immer,schon,die,schmutzige,auf,vierte,"regelmäßigem,","Japan,",bei,richtige,ausreichendem,mit,mit,Büschel,dauerte,ich,den,die,Kilowattstunden,Stadt,Packung,obschon,landen,Büschel,dank,alten,nicht,wurden,Wohnung,wurden,"trug,",dem,36,solchen,das,viel,den,man,Blut,war,man,Fahrer,schönen,Fahrer,landen,"üblichem,",aus,ich,Bluts,jetzt,,,,,,,,,,,,,,,,,,,,,,,11,0,11,0,0,4,4,4,,,,,,,,space,0.349812984467,,,,,,2017_Jan_24_1559,59.8587698016,spr_backupper,001,Di16,
,Kram,350,was,liegen,feinem,Trinkwassers.,einem,der,auf,eine,ziemlich,klassischen,hätten,die,deren,einen,purem,einem,minimalem,Skandal,sie,noch,Lärm,Skandals,von,weichem,geschleudert.,elektrischer,künftigem,Trinkwasser.,unzureichenden,mehr,Glas,feinem,auf,um,Wetter,salziger,Glas,vor,gelegentlichen,geschleudert.,Wäsche.,des,mehr,sauberen,derer,Tiere,350,immer,Störenfriede,Wäsche.,noch,Bundespräsident.,kaltem,die,"frischem,","Zeit,",monatlichem,zusätzlichem,"reichem,",frisches,ungefähr,leider,roten,Störenfriede,elektrische,liegen,salzige,sie,im,frischen,täglichem,Krams,am,serviert.,des,serviert.,war,Mann,würden,unzureichenden,Auto,Lärm,roten,eine,hat,die,den,wurden,Wetters,wurden,im,harten,seltenem,leider,hat,"nachgewiesen,",,,,,,,,,,,,,,,,,,,,,,,11,0,11,0,0,5,5,5,,,,,,,,space,0.353286027908,,,,,,2017_Jan_24_1559,59.8587698016,spr_backupper,001,Di16,
,aus,ml,Tupperware,die,Kunsteis,nan,Esslöffel,Soldaten,jeden,große,"vermiest,",Schmuck,seiner,Stimmung,sie,Besucher.,Alkohol,Esslöffel,täglichen,wiedergewählt.,defekt,eine,um,wiedergewählt.,den,Untergrund,nan,Energie.,Einkommen,nan,Helmen,als,köstlicher,dichten,jeden,die,die,Wurst,köstlichen,Dezember,Besucher.,nan,nan,Herrn,als,Kraftstoff,sie,artgerecht,ml,ruhig,jeden.,nan,eine,nan,Abduschen,er,kaltem,um,Taschengeld,schwarzem,goldenen,Gras,drei,nichts,Planeten,jeden.,Energie.,die,Wurst,defekt,Müll.,Grases,grünen,aus,Hauptbahnhof.,nan,Herrn,nan,aus,mehr,seiner,Helmen,mehr,um,Planet,große,den,Flut,Soldaten,verschrottet.,die,verschrottet.,Müll.,Schaumstoff,dichten,nichts,den,dass,,,,,,,,,,,,,,,,,,,,,,,11,0,11,0,0,6,6,6,,,,,,,,space,0.323813199997,,,,,,2017_Jan_24_1559,59.8587698016,spr_backupper,001,Di16,
,dem,warme,ist.,Slums.,eingesprüht.,nan,warmen,des,Fall,Menge,dass,umgearbeitet.,Frau,ziemlich,überführt,nan,verdünnt.,warmem,Einsatz,nan,war.,Sammlung,jede,nan,Problemen,liegen.,nan,nan,haftbar.,nan,zur,einmal,Wein,Stoff,Fall,Probleme,Wohnung.,mit,Weins,stattfinden.,nan,nan,nan,Gantenbeins.,einmal,fahren.,überführt,gehalten.,warmer,diskutiert.,nan,nan,Sammlung,nan,gehärtet.,trug.,Saft,Nadelhölzer,selber,Kaffee,Besatz,zwängen.,Tage.,mitbringen.,ganz,nan,nan,Slums.,mit,war.,nan,zwängen.,Tee,dem,nan,nan,Gantenbein.,nan,Japan.,als,Frau,zur,als,jede,ganz,Menge,Boden,zurückgekehrt.,des,nan,Wohnung.,nan,nan,gefertigt.,Gewebe,mitbringen.,Boden,das,,,,,,,,,,,,,,,,,,,,,,,11,0,11,0,0,7,7,7,,,,,,,,space,0.385876178741,,,,,,2017_Jan_24_1559,59.8587698016,spr_backupper,001,Di16,
,Haus,Milch.,nan,nan,nan,nan,Honigs,zweiten,genug.,dunkle,es,nan,gepasst.,vermiest.,wurden.,nan,nan,Honig,sinken.,nan,nan,dumme,Menge,nan,im,nan,nan,nan,nan,nan,Schule.,Rilke.,schon,gefertigt.,genug.,im,nan,an,schon,nan,nan,nan,nan,nan,Rilke,nan,wurden.,nan,Milch.,nan,nan,nan,dummer,nan,nan,nan,besprochen.,umzusetzen.,kaufen.,wiederbelebt.,rekonstruiert.,nan,nan,nan,deutlich.,nan,nan,nan,an,nan,nan,nan,wieder,Haus,nan,nan,nan,nan,nan,gerne.,gepasst,Schule.,gerne.,Menge,deutlich.,dunkler,berührt.,nan,zweiten,nan,nan,nan,nan,nan,wiederhergestellt.,nan,berührt.,Medikament,,,,,,,,,,,,,,,,,,,,,,,11,0,11,0,0,8,8,8,,,,,,,,space,0.33678984642,,,,,,2017_Jan_24_1559,59.8587698016,spr_backupper,001,Di16,
,geschafft.,nan,nan,nan,nan,nan,her.,Weltkriegs.,nan,Materie,regnete.,nan,nan,nan,nan,nan,nan,her.,nan,nan,nan,Sprüche.,heißer,nan,Landkreis.,nan,nan,nan,nan,nan,nan,nan,auf,nan,nan,Landkreis.,nan,den,auf,nan,nan,nan,nan,nan,gelesen.,nan,nan,nan,nan,nan,nan,nan,Sprüche.,nan,nan,nan,nan,nan,nan,nan,nan,nan,nan,nan,nan,nan,nan,nan,den,nan,nan,nan,fit.,geschafft.,nan,nan,nan,nan,nan,nan,haben.,nan,nan,heiße,nan,Materie,nan,nan,Weltkriegs.,nan,nan,nan,nan,nan,nan,nan,nan,nicht,,,,,,,,,,,,,,,,,,,,,,,11,0,11,0,0,9,9,9,,,,,,,,space,0.680413961411,,,,,,2017_Jan_24_1559,59.8587698016,spr_backupper,001,Di16,
,,,,,,,,,,,,,,,,,,,,,,,,,,,,,,,,,,,,,,,,,,,,,,,,,,,,,,,,,,,,,,,,,,,,,,,,,,,,,,,,,,,,,,,,,,,,,,,,,,,,,,,,,,,,,,,,,,,,,,,,,11,0,11,0,,,,,,,,,,,,,,None,n,2.83493900299,,,2017_Jan_24_1559,59.8587698016,spr_backupper,001,Di16,
,Wir,In,Die,Am,Die,Sie,Er,Bei,100,Mit,Es,Die,Die,Dass,Es,Wir,Die,Er,Ihr,Er,Die,Sie,Man,Er,In,Jungtiere,Es,Die,Manche,Sie,Die,In,Bei,Er,100,In,Sie,Ich,Bei,Unter,Wir,Es,Dort,Die,In,Wir,Es,In,In,Fernab,Außer,Dort,Sie,Walter,Die,Die,Sie,Jetzt,Jugendliche,Die,Das,Wir,Der,Außer,Im,Außer,Die,Am,Ich,Die,Viele,Wir,Ich,Wir,Die,Beträchtliche,Die,Beträchtliche,Die,Wir,Die,Die,Wir,Man,Im,Mit,Nicht,Als,Bei,Die,Sie,Die,Viele,Alle,Danach,Außer,Nicht,In,,,,,,,,,,,,,,,,,,,,,,,12,0,12,0,0,0,0,0,,,,,,,None,space,0.672567129135,,,,,,2017_Jan_24_1559,59.8587698016,spr_backupper,001,Di16,
,haben,den,Teilnehmerinnen,äußersten,Eislaufbahnen,verbrauchen,stellt,der,g,dieser,hat,Stücke,Schuhe,es,waren,hatten,Lösung,stellt,Blutdruck,wurde,Uhr,hatte,machte,wurde,der,sollten,wurden,Schule,Kreditnehmer,verbrauchen,Kinder,meinem,unserer,hat,g,der,verlassen,nehme,unserer,keinen,hatten,wurden,türmen,Gäste,meinem,konnten,waren,diesem,den,des,dem,türmen,hatte,Scheel,Formen,Uhr,haben,ist,können,müden,Tuch,mussten,Flug,dem,Fernrohr,den,Schule,äußeren,nehme,Uhr,Tonnen,mussten,wurde,haben,Linie,Stücke,Gäste,Stücke,"Uhr,",übergaben,Schuhe,Kinder,übergaben,machte,Fernrohr,dieser,ein,die,der,Autos,verlassen,Autos,Tonnen,Betten,wurde,das,ein,einer,,,,,,,,,,,,,,,,,,,,,,,12,0,12,0,0,1,1,1,,,,,,,,space,0.335380792618,,,,,,2017_Jan_24_1559,59.8587698016,spr_backupper,001,Di16,
,jede,Kakao,wussten,Rand,wurden,60,die,Feier,brauner,Methode,uns,wurden,in,"regnete,",nur,in,wird,die,kann,trotz,schlug,keine,mal,trotz,Tat,immer,Eimer,verbraucht,sind,60,fuhren,Studium,Ankunft,ein,braunen,Tat,wegen,eine,Ankunft,Umständen,in,Eimer,sich,suchen,Studium,dann,nur,Zirkus,Kakao,Rummels,Bürgermeister,sich,keine,war,wurden,war,die,genau,Kleidung,Teilnehmer,wurde,uns,zum,Essen,sahen,Bürgermeister,verbraucht,Rand,eine,schlug,gebrauchter,uns,damals,jede,101,saftigen,suchen,saftiges,die,das,in,fuhren,dem,mal,sahen,Methode,Tropfen,Sonne,Feier,beider,wegen,beider,gebrauchte,wurden,die,Essen,Tropfen,Studie,,,,,,,,,,,,,,,,,,,,,,,12,0,12,0,0,2,2,2,,,,,,,,space,0.346611022949,,,,,,2017_Jan_24_1559,59.8587698016,spr_backupper,001,Di16,
,Menge,gehören,überwiegend,der,mit,Liter,Masse,gedachte,Zucker,kann,die,aus,Größe,hat,kleinere,Dänemark,mit,Masse,schon,dem,"sporadisch,",Lust,wieder,des,wissen,auf,rote,260.000,mit,Liter,mit,las,stand,Hemd,Zuckers,wissen,dem,große,stand,können,Dänemark,roter,Berge,die,habe,mit,kleinere,werden,gehören,wurde,beschuldigten,Berge,Lust,der,unter,aus,Erlebnisse,die,bei,wurden,dann,durch,Mond,kann,wir,beschuldigten,260.000,der,große,"sporadisch,",Kleidung,durch,schnell,Menge,hält,Fleischs,die,Fleisch,er,Auto,Größe,mit,Mann,wieder,wir,kann,königliches,"unterging,",gedachte,beteiligter,des,beteiligten,Kleidung,mit,Leinwand,kann,königlichen,wurde,,,,,,,,,,,,,,,,,,,,,,,12,0,12,0,0,3,3,3,,,,,,,,space,0.693354845047,,,,,,2017_Jan_24_1559,59.8587698016,spr_backupper,001,Di16,
,alten,immer,"nicht,",Stadt,dauerhaftem,sprudelnden,mit,man,sind,man,Stimmung,"wertvollem,",36,uns,"Delikte,",gelegentlich,"reichlichem,",mit,bei,bekannten,obwohl,auf,viel,bekannten,wir,warmem,Farbe,Kilowattstunden,"sämtlichem,",sprudelndes,solch,ich,ein,aus,sind,wir,schönen,Packung,ein,Neuwahlen,einen,Farbe,schmutziger,Wohnung,ich,"minimalem,","Delikte,",die,immer,schon,die,schmutzige,auf,vierte,"regelmäßigem,","Japan,",bei,richtige,ausreichendem,mit,mit,Büschel,dauerte,ich,den,die,Kilowattstunden,Stadt,Packung,obschon,landen,Büschel,dank,alten,nicht,wurden,Wohnung,wurden,"trug,",dem,36,solchen,das,viel,den,man,Blut,war,man,Fahrer,schönen,Fahrer,landen,"üblichem,",aus,ich,Bluts,jetzt,,,,,,,,,,,,,,,,,,,,,,,12,0,12,0,0,4,4,4,,,,,,,,space,0.402907848358,,,,,,2017_Jan_24_1559,59.8587698016,spr_backupper,001,Di16,
,Kram,350,was,liegen,feinem,Trinkwassers.,einem,der,auf,eine,ziemlich,klassischen,hätten,die,deren,einen,purem,einem,minimalem,Skandal,sie,noch,Lärm,Skandals,von,weichem,geschleudert.,elektrischer,künftigem,Trinkwasser.,unzureichenden,mehr,Glas,feinem,auf,um,Wetter,salziger,Glas,vor,gelegentlichen,geschleudert.,Wäsche.,des,mehr,sauberen,derer,Tiere,350,immer,Störenfriede,Wäsche.,noch,Bundespräsident.,kaltem,die,"frischem,","Zeit,",monatlichem,zusätzlichem,"reichem,",frisches,ungefähr,leider,roten,Störenfriede,elektrische,liegen,salzige,sie,im,frischen,täglichem,Krams,am,serviert.,des,serviert.,war,Mann,würden,unzureichenden,Auto,Lärm,roten,eine,hat,die,den,wurden,Wetters,wurden,im,harten,seltenem,leider,hat,"nachgewiesen,",,,,,,,,,,,,,,,,,,,,,,,12,0,12,0,0,5,5,5,,,,,,,,space,0.402772903442,,,,,,2017_Jan_24_1559,59.8587698016,spr_backupper,001,Di16,
,aus,ml,Tupperware,die,Kunsteis,nan,Esslöffel,Soldaten,jeden,große,"vermiest,",Schmuck,seiner,Stimmung,sie,Besucher.,Alkohol,Esslöffel,täglichen,wiedergewählt.,defekt,eine,um,wiedergewählt.,den,Untergrund,nan,Energie.,Einkommen,nan,Helmen,als,köstlicher,dichten,jeden,die,die,Wurst,köstlichen,Dezember,Besucher.,nan,nan,Herrn,als,Kraftstoff,sie,artgerecht,ml,ruhig,jeden.,nan,eine,nan,Abduschen,er,kaltem,um,Taschengeld,schwarzem,goldenen,Gras,drei,nichts,Planeten,jeden.,Energie.,die,Wurst,defekt,Müll.,Grases,grünen,aus,Hauptbahnhof.,nan,Herrn,nan,aus,mehr,seiner,Helmen,mehr,um,Planet,große,den,Flut,Soldaten,verschrottet.,die,verschrottet.,Müll.,Schaumstoff,dichten,nichts,den,dass,,,,,,,,,,,,,,,,,,,,,,,12,0,12,0,0,6,6,6,,,,,,,,space,0.419267892838,,,,,,2017_Jan_24_1559,59.8587698016,spr_backupper,001,Di16,
,dem,warme,ist.,Slums.,eingesprüht.,nan,warmen,des,Fall,Menge,dass,umgearbeitet.,Frau,ziemlich,überführt,nan,verdünnt.,warmem,Einsatz,nan,war.,Sammlung,jede,nan,Problemen,liegen.,nan,nan,haftbar.,nan,zur,einmal,Wein,Stoff,Fall,Probleme,Wohnung.,mit,Weins,stattfinden.,nan,nan,nan,Gantenbeins.,einmal,fahren.,überführt,gehalten.,warmer,diskutiert.,nan,nan,Sammlung,nan,gehärtet.,trug.,Saft,Nadelhölzer,selber,Kaffee,Besatz,zwängen.,Tage.,mitbringen.,ganz,nan,nan,Slums.,mit,war.,nan,zwängen.,Tee,dem,nan,nan,Gantenbein.,nan,Japan.,als,Frau,zur,als,jede,ganz,Menge,Boden,zurückgekehrt.,des,nan,Wohnung.,nan,nan,gefertigt.,Gewebe,mitbringen.,Boden,das,,,,,,,,,,,,,,,,,,,,,,,12,0,12,0,0,7,7,7,,,,,,,,space,0.386615037918,,,,,,2017_Jan_24_1559,59.8587698016,spr_backupper,001,Di16,
,,,,,,,,,,,,,,,,,,,,,,,,,,,,,,,,,,,,,,,,,,,,,,,,,,,,,,,,,,,,,,,,,,,,,,,,,,,,,,,,,,,,,,,,,,,,,,,,,,,,,,,,,,,,,,,,,,,,,,,,,12,0,12,0,,,,,,,,,,,,,,None,n,1.81538105011,,,2017_Jan_24_1559,59.8587698016,spr_backupper,001,Di16,
,Wir,In,Die,Am,Die,Sie,Er,Bei,100,Mit,Es,Die,Die,Dass,Es,Wir,Die,Er,Ihr,Er,Die,Sie,Man,Er,In,Jungtiere,Es,Die,Manche,Sie,Die,In,Bei,Er,100,In,Sie,Ich,Bei,Unter,Wir,Es,Dort,Die,In,Wir,Es,In,In,Fernab,Außer,Dort,Sie,Walter,Die,Die,Sie,Jetzt,Jugendliche,Die,Das,Wir,Der,Außer,Im,Außer,Die,Am,Ich,Die,Viele,Wir,Ich,Wir,Die,Beträchtliche,Die,Beträchtliche,Die,Wir,Die,Die,Wir,Man,Im,Mit,Nicht,Als,Bei,Die,Sie,Die,Viele,Alle,Danach,Außer,Nicht,In,,,,,,,,,,,,,,,,,,,,,,,13,0,13,0,0,0,0,0,,,,,,,None,space,0.860783815384,,,,,,2017_Jan_24_1559,59.8587698016,spr_backupper,001,Di16,
,haben,den,Teilnehmerinnen,äußersten,Eislaufbahnen,verbrauchen,stellt,der,g,dieser,hat,Stücke,Schuhe,es,waren,hatten,Lösung,stellt,Blutdruck,wurde,Uhr,hatte,machte,wurde,der,sollten,wurden,Schule,Kreditnehmer,verbrauchen,Kinder,meinem,unserer,hat,g,der,verlassen,nehme,unserer,keinen,hatten,wurden,türmen,Gäste,meinem,konnten,waren,diesem,den,des,dem,türmen,hatte,Scheel,Formen,Uhr,haben,ist,können,müden,Tuch,mussten,Flug,dem,Fernrohr,den,Schule,äußeren,nehme,Uhr,Tonnen,mussten,wurde,haben,Linie,Stücke,Gäste,Stücke,"Uhr,",übergaben,Schuhe,Kinder,übergaben,machte,Fernrohr,dieser,ein,die,der,Autos,verlassen,Autos,Tonnen,Betten,wurde,das,ein,einer,,,,,,,,,,,,,,,,,,,,,,,13,0,13,0,0,1,1,1,,,,,,,,space,0.370151042938,,,,,,2017_Jan_24_1559,59.8587698016,spr_backupper,001,Di16,
,jede,Kakao,wussten,Rand,wurden,60,die,Feier,brauner,Methode,uns,wurden,in,"regnete,",nur,in,wird,die,kann,trotz,schlug,keine,mal,trotz,Tat,immer,Eimer,verbraucht,sind,60,fuhren,Studium,Ankunft,ein,braunen,Tat,wegen,eine,Ankunft,Umständen,in,Eimer,sich,suchen,Studium,dann,nur,Zirkus,Kakao,Rummels,Bürgermeister,sich,keine,war,wurden,war,die,genau,Kleidung,Teilnehmer,wurde,uns,zum,Essen,sahen,Bürgermeister,verbraucht,Rand,eine,schlug,gebrauchter,uns,damals,jede,101,saftigen,suchen,saftiges,die,das,in,fuhren,dem,mal,sahen,Methode,Tropfen,Sonne,Feier,beider,wegen,beider,gebrauchte,wurden,die,Essen,Tropfen,Studie,,,,,,,,,,,,,,,,,,,,,,,13,0,13,0,0,2,2,2,,,,,,,,space,0.38334608078,,,,,,2017_Jan_24_1559,59.8587698016,spr_backupper,001,Di16,
,Menge,gehören,überwiegend,der,mit,Liter,Masse,gedachte,Zucker,kann,die,aus,Größe,hat,kleinere,Dänemark,mit,Masse,schon,dem,"sporadisch,",Lust,wieder,des,wissen,auf,rote,260.000,mit,Liter,mit,las,stand,Hemd,Zuckers,wissen,dem,große,stand,können,Dänemark,roter,Berge,die,habe,mit,kleinere,werden,gehören,wurde,beschuldigten,Berge,Lust,der,unter,aus,Erlebnisse,die,bei,wurden,dann,durch,Mond,kann,wir,beschuldigten,260.000,der,große,"sporadisch,",Kleidung,durch,schnell,Menge,hält,Fleischs,die,Fleisch,er,Auto,Größe,mit,Mann,wieder,wir,kann,königliches,"unterging,",gedachte,beteiligter,des,beteiligten,Kleidung,mit,Leinwand,kann,königlichen,wurde,,,,,,,,,,,,,,,,,,,,,,,13,0,13,0,0,3,3,3,,,,,,,,space,0.427054166794,,,,,,2017_Jan_24_1559,59.8587698016,spr_backupper,001,Di16,
,alten,immer,"nicht,",Stadt,dauerhaftem,sprudelnden,mit,man,sind,man,Stimmung,"wertvollem,",36,uns,"Delikte,",gelegentlich,"reichlichem,",mit,bei,bekannten,obwohl,auf,viel,bekannten,wir,warmem,Farbe,Kilowattstunden,"sämtlichem,",sprudelndes,solch,ich,ein,aus,sind,wir,schönen,Packung,ein,Neuwahlen,einen,Farbe,schmutziger,Wohnung,ich,"minimalem,","Delikte,",die,immer,schon,die,schmutzige,auf,vierte,"regelmäßigem,","Japan,",bei,richtige,ausreichendem,mit,mit,Büschel,dauerte,ich,den,die,Kilowattstunden,Stadt,Packung,obschon,landen,Büschel,dank,alten,nicht,wurden,Wohnung,wurden,"trug,",dem,36,solchen,das,viel,den,man,Blut,war,man,Fahrer,schönen,Fahrer,landen,"üblichem,",aus,ich,Bluts,jetzt,,,,,,,,,,,,,,,,,,,,,,,13,0,13,0,0,4,4,4,,,,,,,,space,0.394056797028,,,,,,2017_Jan_24_1559,59.8587698016,spr_backupper,001,Di16,
