text,sent48,sent9,sent8,sent15,sent3,sent2,sent1,sent14,sent7,sent6,sent5,sent4,sent57,sent56,sent55,sent54,sent53,sent52,sent51,sent50,sent13,sent12,sent11,sent10,sent17,sent16,sent59,sent58,sent93,sent92,sent91,sent90,sent97,sent96,sent95,sent94,sent98,sent22,sent23,sent20,sent21,sent26,sent27,sent24,sent25,sent28,sent29,sent68,sent69,sent66,sent67,sent64,sent65,sent62,sent63,sent60,sent61,sent31,sent30,sent33,sent32,sent35,sent34,sent37,sent36,sent39,sent38,sent79,sent78,sent75,sent74,sent77,sent76,sent71,sent70,sent73,sent72,sent19,sent49,sent18,sent44,sent45,sent84,sent85,sent86,sent87,sent80,sent81,sent82,sent83,sent40,sent41,sent42,sent43,sent88,sent89,sent46,sent47,intros.thisRepN,intros.thisTrialN,intros.thisN,intros.thisIndex,trials.thisRepN,trials.thisTrialN,trials.thisN,trials.thisIndex,testWords.thisRepN,testWords.thisTrialN,testWords.thisN,testWords.thisIndex,test1,test3,test2,test5,test4,test7,test6,test9,test8,test10,realTrials.thisRepN,realTrials.thisTrialN,realTrials.thisN,realTrials.thisIndex,words.thisRepN,words.thisTrialN,words.thisN,words.thisIndex,key_resp_3.keys,key_resp_3.rt,key_resp_8.keys,key_resp_10.keys,key_resp_10.rt,key_resp_6.keys,wordRead.keys,wordRead.rt,key_resp_5.keys,questAnswer.keys,questAnswer.rt,key_resp_6.rt,date,frameRate,expName,session,participant,
"Vielen Dank, dass Sie an diesem Experiment teilnehmen. Vor dem eigentlichen Experiment sehen Sie nun zuerst eine kurze Erläuterung, und Sie absolvieren ein kurze Übungsphase.

Das Experiment dauert insgesamt nicht mehr als 45 Minuten.",,,,,,,,,,,,,,,,,,,,,,,,,,,,,,,,,,,,,,,,,,,,,,,,,,,,,,,,,,,,,,,,,,,,,,,,,,,,,,,,,,,,,,,,,,,,,,,,,,,0,0,0,0,,,,,,,,,,,,,,,,,,,,,,,,,,,,,,,,,,,,,,,2017_Feb_01_1409,59.412013842,spr_backupper,001,Di18,
"In diesem Experiment lesen Sie deutsche Sätze, indem Sie sich von Wort zu Wort mit der Leertaste durch den Satz klicken.",,,,,,,,,,,,,,,,,,,,,,,,,,,,,,,,,,,,,,,,,,,,,,,,,,,,,,,,,,,,,,,,,,,,,,,,,,,,,,,,,,,,,,,,,,,,,,,,,,,0,1,1,1,,,,,,,,,,,,,,,,,,,,,,,,,,,,,,,,,,,,,,,2017_Feb_01_1409,59.412013842,spr_backupper,001,Di18,
"Sie sehen dabei immer nur das aktuelle Wort. Die Lesegeschwindigkeit bestimmen Sie vollständig selber. Vor jedem Satz sehen Sie in der Bildschirmmitte für zwei Sekunden ein + an der Stelle, an der dann die Wörter erscheinen.",,,,,,,,,,,,,,,,,,,,,,,,,,,,,,,,,,,,,,,,,,,,,,,,,,,,,,,,,,,,,,,,,,,,,,,,,,,,,,,,,,,,,,,,,,,,,,,,,,,0,2,2,2,,,,,,,,,,,,,,,,,,,,,,,,,,,,,,,,,,,,,,,2017_Feb_01_1409,59.412013842,spr_backupper,001,Di18,
"Nach jedem Satz wird Ihnen eine Ja/Nein-Verständnisfrage zum zuvor gelesenen Satz gestellt, die Sie mit der J-Taste für "Ja" und der N-Taste für "Nein" beantworten. Antworten Sie möglichst spontan und ohne lange Nachzudenken.",,,,,,,,,,,,,,,,,,,,,,,,,,,,,,,,,,,,,,,,,,,,,,,,,,,,,,,,,,,,,,,,,,,,,,,,,,,,,,,,,,,,,,,,,,,,,,,,,,,0,3,3,3,,,,,,,,,,,,,,,,,,,,,,,,,,,,,,,,,,,,,,,2017_Feb_01_1409,59.412013842,spr_backupper,001,Di18,
"Unterbrechen Sie das Experiment bitte auf keinen Fall, stellen Sie den ExperimentatorInnen nach dem Experimentbeginn keine Fragen, und lassen Sie sich nicht durch Umgebungsgeräusche ablenken.",,,,,,,,,,,,,,,,,,,,,,,,,,,,,,,,,,,,,,,,,,,,,,,,,,,,,,,,,,,,,,,,,,,,,,,,,,,,,,,,,,,,,,,,,,,,,,,,,,,0,4,4,4,,,,,,,,,,,,,,,,,,,,,,,,,,,,,,,,,,,,,,,2017_Feb_01_1409,59.412013842,spr_backupper,001,Di18,
"Im nächsten Schritt beantworten Sie bitte eine Frage zu Ihren Deutschkenntnissen. Danach beginnt eine Übungseinheit, mit der Sie sich an die Art der Durchführung dieses Experiments gewöhnen können.",,,,,,,,,,,,,,,,,,,,,,,,,,,,,,,,,,,,,,,,,,,,,,,,,,,,,,,,,,,,,,,,,,,,,,,,,,,,,,,,,,,,,,,,,,,,,,,,,,,0,5,5,5,,,,,,,,,,,,,,,,,,,,,,,,,,,,,,,,,,,,,,,2017_Feb_01_1409,59.412013842,spr_backupper,001,Di18,
,,,,,,,,,,,,,,,,,,,,,,,,,,,,,,,,,,,,,,,,,,,,,,,,,,,,,,,,,,,,,,,,,,,,,,,,,,,,,,,,,,,,,,,,,,,,,,,,,,,,,,,,,,,,,,,,,,,,,,,,,,,,,,,,,j,3.38798809052,,,,,,,,,,,2017_Feb_01_1409,59.412013842,spr_backupper,001,Di18,
,,,,,,,,,,,,,,,,,,,,,,,,,,,,,,,,,,,,,,,,,,,,,,,,,,,,,,,,,,,,,,,,,,,,,,,,,,,,,,,,,,,,,,,,,,,,,,,,,,,,,,,0,0,0,0,,,,,,,,,,,,,,,,,,,,,,,,,None,,,,,,,,,,2017_Feb_01_1409,59.412013842,spr_backupper,001,Di18,
,,,,,,,,,,,,,,,,,,,,,,,,,,,,,,,,,,,,,,,,,,,,,,,,,,,,,,,,,,,,,,,,,,,,,,,,,,,,,,,,,,,,,,,,,,,,,,,,,,,,,,,1,0,1,0,,,,,,,,,,,,,,,,,,,,,,,,,None,,,,,,,,,,2017_Feb_01_1409,59.412013842,spr_backupper,001,Di18,
,,,,,,,,,,,,,,,,,,,,,,,,,,,,,,,,,,,,,,,,,,,,,,,,,,,,,,,,,,,,,,,,,,,,,,,,,,,,,,,,,,,,,,,,,,,,,,,,,,,,,,,2,0,2,0,,,,,,,,,,,,,,,,,,,,,,,,,None,,,,,,,,,,2017_Feb_01_1409,59.412013842,spr_backupper,001,Di18,
,,,,,,,,,,,,,,,,,,,,,,,,,,,,,,,,,,,,,,,,,,,,,,,,,,,,,,,,,,,,,,,,,,,,,,,,,,,,,,,,,,,,,,,,,,,,,,,,,,,,,,,3,0,3,0,,,,,,,,,,,,,,,,,,,,,,,,,None,,,,,,,,,,2017_Feb_01_1409,59.412013842,spr_backupper,001,Di18,
,,,,,,,,,,,,,,,,,,,,,,,,,,,,,,,,,,,,,,,,,,,,,,,,,,,,,,,,,,,,,,,,,,,,,,,,,,,,,,,,,,,,,,,,,,,,,,,,,,,,,,,4,0,4,0,,,,,,,,,,,,,,,,,,,,,,,,,None,,,,,,,,,,2017_Feb_01_1409,59.412013842,spr_backupper,001,Di18,
,,,,,,,,,,,,,,,,,,,,,,,,,,,,,,,,,,,,,,,,,,,,,,,,,,,,,,,,,,,,,,,,,,,,,,,,,,,,,,,,,,,,,,,,,,,,,,,,,,,,,,,5,0,5,0,,,,,,,,,,,,,,,,,,,,,,,,,None,,,,,,,,,,2017_Feb_01_1409,59.412013842,spr_backupper,001,Di18,
,,,,,,,,,,,,,,,,,,,,,,,,,,,,,,,,,,,,,,,,,,,,,,,,,,,,,,,,,,,,,,,,,,,,,,,,,,,,,,,,,,,,,,,,,,,,,,,,,,,,,,,6,0,6,0,,,,,,,,,,,,,,,,,,,,,,,,,None,,,,,,,,,,2017_Feb_01_1409,59.412013842,spr_backupper,001,Di18,
,,,,,,,,,,,,,,,,,,,,,,,,,,,,,,,,,,,,,,,,,,,,,,,,,,,,,,,,,,,,,,,,,,,,,,,,,,,,,,,,,,,,,,,,,,,,,,,,,,,,,,,7,0,7,0,,,,,,,,,,,,,,,,,,,,,,,,,None,,,,,,,,,,2017_Feb_01_1409,59.412013842,spr_backupper,001,Di18,
,,,,,,,,,,,,,,,,,,,,,,,,,,,,,,,,,,,,,,,,,,,,,,,,,,,,,,,,,,,,,,,,,,,,,,,,,,,,,,,,,,,,,,,,,,,,,,,,,,,,,,,8,0,8,0,,,,,,,,,,,,,,,,,,,,,,,,,None,,,,,,,,,,2017_Feb_01_1409,59.412013842,spr_backupper,001,Di18,
,,,,,,,,,,,,,,,,,,,,,,,,,,,,,,,,,,,,,,,,,,,,,,,,,,,,,,,,,,,,,,,,,,,,,,,,,,,,,,,,,,,,,,,,,,,,,,,,,,,,,,,9,0,9,0,,,,,,,,,,,,,,,,,,,,,,,,,None,,,,,,,,,,2017_Feb_01_1409,59.412013842,spr_backupper,001,Di18,
,,,,,,,,,,,,,,,,,,,,,,,,,,,,,,,,,,,,,,,,,,,,,,,,,,,,,,,,,,,,,,,,,,,,,,,,,,,,,,,,,,,,,,,,,,,,,,,,,,,,,,,,,,,,,,,,,,,,,,,,,,,,,,,,,,,,space,1.55919504166,,,,,,,,2017_Feb_01_1409,59.412013842,spr_backupper,001,Di18,
,Viele,Bei,Die,Mit,Es,Jungtiere,100,Im,Außer,Ich,Wir,In,Die,Die,Bei,Die,Außer,Mit,Es,Wir,Die,Sie,Die,Dort,Wir,Die,In,Die,Die,Im,Ich,Sie,Die,Viele,Die,In,Dort,Die,Alle,Wir,Wir,In,Die,Es,Es,Wir,Die,Die,Man,Am,In,Nicht,Die,Danach,Es,Als,Er,Beträchtliche,Außer,Das,Am,Nicht,Die,Jugendliche,In,Die,Der,Bei,Manche,Beträchtliche,Fernab,Wir,Wir,Ihr,Dass,In,Sie,Jetzt,Er,Man,Sie,Bei,Die,Ich,Wir,100,Sie,Er,Sie,Er,Unter,Die,Er,Die,Außer,Walter,Sie,In,,,,,,,,,,,,,,,,,,,,,,,0,0,0,0,0,0,0,0,,,,,,None,space,0.834722995758,,,,,2017_Feb_01_1409,59.412013842,spr_backupper,001,Di18,
,Tonnen,der,Autos,dieser,waren,sollten,g,Fernrohr,dem,nehme,konnten,der,Formen,Linie,der,Gäste,das,dieser,wurden,mussten,"Uhr,",verlassen,müden,türmen,übergaben,Uhr,diesem,Schule,Schuhe,Fernrohr,wurde,verbrauchen,Kinder,Tonnen,Lösung,den,türmen,Gäste,Betten,haben,hatten,einer,Teilnehmerinnen,wurden,hat,mussten,Schule,Uhr,machte,äußeren,der,ein,Uhr,wurde,waren,die,stellt,Stücke,den,Tuch,äußersten,ein,Stücke,können,den,Schuhe,Flug,unserer,Kreditnehmer,Stücke,des,haben,hatten,Blutdruck,es,meinem,hatte,ist,stellt,machte,hatte,unserer,Autos,nehme,übergaben,g,verlassen,wurde,haben,hat,keinen,Eislaufbahnen,wurde,Kinder,dem,Scheel,verbrauchen,meinem,,,,,,,,,,,,,,,,,,,,,,,0,0,0,0,0,1,1,1,,,,,,,space,0.728296041489,,,,,2017_Feb_01_1409,59.412013842,spr_backupper,001,Di18,
,gebrauchte,Feier,beider,Methode,nur,immer,brauner,sahen,Essen,eine,dann,Tat,wurden,101,Feier,suchen,Essen,Methode,Eimer,uns,die,wegen,Teilnehmer,sich,das,schlug,Zirkus,verbraucht,in,sahen,damals,60,fuhren,gebrauchter,wird,Kakao,sich,suchen,wurden,jede,in,Studie,wussten,Eimer,uns,uns,verbraucht,schlug,mal,Rand,Tat,Tropfen,war,die,nur,Sonne,die,saftiges,Bürgermeister,wurde,Rand,Tropfen,wurden,Kleidung,Kakao,in,zum,Ankunft,sind,saftigen,Rummels,jede,in,kann,"regnete,",Studium,keine,genau,die,mal,keine,Ankunft,beider,eine,dem,braunen,wegen,trotz,die,ein,Umständen,wurden,trotz,fuhren,Bürgermeister,war,60,Studium,,,,,,,,,,,,,,,,,,,,,,,0,0,0,0,0,2,2,2,,,,,,,space,0.775949001312,,,,,2017_Feb_01_1409,59.412013842,spr_backupper,001,Di18,
,Kleidung,gedachte,beteiligten,kann,kleinere,auf,Zucker,wir,kann,große,mit,wissen,unter,hält,gedachte,die,kann,kann,rote,durch,er,des,wurden,Berge,Auto,"sporadisch,",werden,260.000,Größe,wir,schnell,Liter,mit,Kleidung,mit,gehören,Berge,die,mit,Menge,Dänemark,wurde,überwiegend,roter,die,durch,260.000,"sporadisch,",wieder,der,wissen,königliches,aus,Leinwand,kleinere,"unterging,",Masse,Fleisch,beschuldigten,dann,der,königlichen,aus,bei,gehören,Größe,Mond,stand,mit,Fleischs,wurde,Menge,Dänemark,schon,hat,las,Lust,die,Masse,wieder,Lust,stand,beteiligter,große,Mann,Zuckers,dem,dem,Erlebnisse,Hemd,können,mit,des,mit,beschuldigten,der,Liter,habe,,,,,,,,,,,,,,,,,,,,,,,0,0,0,0,0,3,3,3,,,,,,,space,0.754971981049,,,,,2017_Feb_01_1409,59.412013842,spr_backupper,001,Di18,
,landen,man,Fahrer,man,"Delikte,",warmem,sind,den,ich,Packung,"minimalem,",wir,"regelmäßigem,",nicht,man,Wohnung,ich,man,Farbe,Büschel,"trug,",schönen,mit,schmutziger,dem,obwohl,die,Kilowattstunden,36,den,dank,sprudelndes,solch,landen,"reichlichem,",immer,schmutzige,Wohnung,"üblichem,",alten,einen,jetzt,"nicht,",Farbe,Stimmung,Büschel,Kilowattstunden,obschon,viel,Stadt,wir,Blut,"Japan,",aus,"Delikte,",war,mit,wurden,die,mit,Stadt,Bluts,"wertvollem,",ausreichendem,immer,36,dauerte,ein,"sämtlichem,",wurden,schon,alten,gelegentlich,bei,uns,ich,auf,richtige,mit,viel,auf,ein,Fahrer,Packung,das,sind,schönen,bekannten,bei,aus,Neuwahlen,dauerhaftem,bekannten,solchen,die,vierte,sprudelnden,ich,,,,,,,,,,,,,,,,,,,,,,,0,0,0,0,0,4,4,4,,,,,,,space,0.663092851639,,,,,2017_Feb_01_1409,59.412013842,spr_backupper,001,Di18,
,im,der,wurden,eine,derer,weichem,auf,roten,leider,salziger,sauberen,von,kaltem,am,den,des,leider,eine,geschleudert.,frischen,war,Wetters,zusätzlichem,Wäsche.,Mann,sie,Tiere,elektrischer,hätten,roten,täglichem,Trinkwasser.,unzureichenden,im,purem,350,Wäsche.,des,harten,Kram,gelegentlichen,"nachgewiesen,",was,geschleudert.,ziemlich,frisches,elektrische,sie,Lärm,liegen,um,hat,die,seltenem,deren,die,einem,serviert.,Störenfriede,"reichem,",liegen,hat,klassischen,monatlichem,350,würden,ungefähr,Glas,künftigem,serviert.,immer,Krams,einen,minimalem,die,mehr,noch,"Zeit,",einem,Lärm,noch,Glas,wurden,salzige,Auto,auf,Wetter,Skandal,"frischem,",feinem,vor,feinem,Skandals,unzureichenden,Störenfriede,Bundespräsident.,Trinkwassers.,mehr,,,,,,,,,,,,,,,,,,,,,,,0,0,0,0,0,5,5,5,,,,,,,space,0.601307153702,,,,,2017_Feb_01_1409,59.412013842,spr_backupper,001,Di18,
,Müll.,Soldaten,verschrottet.,große,sie,Untergrund,jeden,Planeten,nichts,Wurst,Kraftstoff,den,Abduschen,Hauptbahnhof.,Soldaten,Herrn,nichts,große,nan,Grases,aus,die,schwarzem,nan,mehr,defekt,artgerecht,Energie.,seiner,Planet,grünen,nan,Helmen,Müll.,Alkohol,ml,nan,Herrn,Schaumstoff,aus,Besucher.,dass,Tupperware,nan,"vermiest,",Gras,Energie.,defekt,um,die,die,den,er,dichten,sie,Flut,Esslöffel,nan,jeden.,goldenen,die,den,Schmuck,Taschengeld,ml,seiner,drei,köstlicher,Einkommen,nan,ruhig,aus,Besucher.,täglichen,Stimmung,als,eine,um,Esslöffel,um,eine,köstlichen,verschrottet.,Wurst,mehr,jeden,die,wiedergewählt.,kaltem,dichten,Dezember,Kunsteis,wiedergewählt.,Helmen,jeden.,nan,nan,als,,,,,,,,,,,,,,,,,,,,,,,0,0,0,0,0,6,6,6,,,,,,,space,0.675347089767,,,,,2017_Feb_01_1409,59.412013842,spr_backupper,001,Di18,
,nan,des,nan,Menge,überführt,liegen.,Fall,ganz,mitbringen.,mit,fahren.,Problemen,gehärtet.,nan,des,Gantenbein.,mitbringen.,Menge,nan,zwängen.,Japan.,Wohnung.,Kaffee,nan,als,war.,gehalten.,nan,Frau,ganz,Tee,nan,zur,nan,verdünnt.,warmer,nan,Gantenbeins.,gefertigt.,dem,nan,das,ist.,nan,dass,zwängen.,nan,war.,jede,Slums.,Probleme,Boden,trug.,Gewebe,überführt,zurückgekehrt.,warmem,nan,nan,Besatz,Slums.,Boden,umgearbeitet.,selber,warme,Frau,Tage.,Wein,haftbar.,nan,diskutiert.,dem,nan,Einsatz,ziemlich,einmal,Sammlung,Nadelhölzer,warmen,jede,Sammlung,Weins,nan,mit,als,Fall,Wohnung.,nan,Saft,Stoff,stattfinden.,eingesprüht.,nan,zur,nan,nan,nan,einmal,,,,,,,,,,,,,,,,,,,,,,,0,0,0,0,0,7,7,7,,,,,,,space,0.570465087891,,,,,2017_Feb_01_1409,59.412013842,spr_backupper,001,Di18,
,nan,zweiten,nan,dunkle,wurden.,nan,genug.,deutlich.,nan,an,nan,im,nan,nan,zweiten,nan,nan,dunkler,nan,nan,nan,nan,wiederbelebt.,nan,gerne.,nan,nan,nan,gepasst.,deutlich.,wieder,nan,Schule.,nan,nan,Milch.,nan,nan,nan,Haus,nan,Medikament,nan,nan,es,nan,nan,nan,Menge,nan,im,berührt.,nan,wiederhergestellt.,wurden.,nan,Honig,nan,nan,rekonstruiert.,nan,berührt.,nan,kaufen.,Milch.,gepasst,nan,schon,nan,nan,nan,Haus,nan,sinken.,vermiest.,Rilke.,dummer,umzusetzen.,Honigs,Menge,dumme,schon,nan,an,gerne.,genug.,nan,nan,besprochen.,gefertigt.,nan,nan,nan,Schule.,nan,nan,nan,Rilke,,,,,,,,,,,,,,,,,,,,,,,0,0,0,0,0,8,8,8,,,,,,,space,0.968795776367,,,,,2017_Feb_01_1409,59.412013842,spr_backupper,001,Di18,
,,,,,,,,,,,,,,,,,,,,,,,,,,,,,,,,,,,,,,,,,,,,,,,,,,,,,,,,,,,,,,,,,,,,,,,,,,,,,,,,,,,,,,,,,,,,,,,,,,,,,,,,,,,,,,,,,,,,,,,,,0,0,0,0,,,,,,,,,,,,,None,j,1.86243200302,,2017_Feb_01_1409,59.412013842,spr_backupper,001,Di18,
,Viele,Bei,Die,Mit,Es,Jungtiere,100,Im,Außer,Ich,Wir,In,Die,Die,Bei,Die,Außer,Mit,Es,Wir,Die,Sie,Die,Dort,Wir,Die,In,Die,Die,Im,Ich,Sie,Die,Viele,Die,In,Dort,Die,Alle,Wir,Wir,In,Die,Es,Es,Wir,Die,Die,Man,Am,In,Nicht,Die,Danach,Es,Als,Er,Beträchtliche,Außer,Das,Am,Nicht,Die,Jugendliche,In,Die,Der,Bei,Manche,Beträchtliche,Fernab,Wir,Wir,Ihr,Dass,In,Sie,Jetzt,Er,Man,Sie,Bei,Die,Ich,Wir,100,Sie,Er,Sie,Er,Unter,Die,Er,Die,Außer,Walter,Sie,In,,,,,,,,,,,,,,,,,,,,,,,1,0,1,0,0,0,0,0,,,,,,space,space,0.680738925934,,,,0.855374097824,2017_Feb_01_1409,59.412013842,spr_backupper,001,Di18,
,Tonnen,der,Autos,dieser,waren,sollten,g,Fernrohr,dem,nehme,konnten,der,Formen,Linie,der,Gäste,das,dieser,wurden,mussten,"Uhr,",verlassen,müden,türmen,übergaben,Uhr,diesem,Schule,Schuhe,Fernrohr,wurde,verbrauchen,Kinder,Tonnen,Lösung,den,türmen,Gäste,Betten,haben,hatten,einer,Teilnehmerinnen,wurden,hat,mussten,Schule,Uhr,machte,äußeren,der,ein,Uhr,wurde,waren,die,stellt,Stücke,den,Tuch,äußersten,ein,Stücke,können,den,Schuhe,Flug,unserer,Kreditnehmer,Stücke,des,haben,hatten,Blutdruck,es,meinem,hatte,ist,stellt,machte,hatte,unserer,Autos,nehme,übergaben,g,verlassen,wurde,haben,hat,keinen,Eislaufbahnen,wurde,Kinder,dem,Scheel,verbrauchen,meinem,,,,,,,,,,,,,,,,,,,,,,,1,0,1,0,0,1,1,1,,,,,,,space,0.83694601059,,,,,2017_Feb_01_1409,59.412013842,spr_backupper,001,Di18,
,gebrauchte,Feier,beider,Methode,nur,immer,brauner,sahen,Essen,eine,dann,Tat,wurden,101,Feier,suchen,Essen,Methode,Eimer,uns,die,wegen,Teilnehmer,sich,das,schlug,Zirkus,verbraucht,in,sahen,damals,60,fuhren,gebrauchter,wird,Kakao,sich,suchen,wurden,jede,in,Studie,wussten,Eimer,uns,uns,verbraucht,schlug,mal,Rand,Tat,Tropfen,war,die,nur,Sonne,die,saftiges,Bürgermeister,wurde,Rand,Tropfen,wurden,Kleidung,Kakao,in,zum,Ankunft,sind,saftigen,Rummels,jede,in,kann,"regnete,",Studium,keine,genau,die,mal,keine,Ankunft,beider,eine,dem,braunen,wegen,trotz,die,ein,Umständen,wurden,trotz,fuhren,Bürgermeister,war,60,Studium,,,,,,,,,,,,,,,,,,,,,,,1,0,1,0,0,2,2,2,,,,,,,space,0.886481046677,,,,,2017_Feb_01_1409,59.412013842,spr_backupper,001,Di18,
,Kleidung,gedachte,beteiligten,kann,kleinere,auf,Zucker,wir,kann,große,mit,wissen,unter,hält,gedachte,die,kann,kann,rote,durch,er,des,wurden,Berge,Auto,"sporadisch,",werden,260.000,Größe,wir,schnell,Liter,mit,Kleidung,mit,gehören,Berge,die,mit,Menge,Dänemark,wurde,überwiegend,roter,die,durch,260.000,"sporadisch,",wieder,der,wissen,königliches,aus,Leinwand,kleinere,"unterging,",Masse,Fleisch,beschuldigten,dann,der,königlichen,aus,bei,gehören,Größe,Mond,stand,mit,Fleischs,wurde,Menge,Dänemark,schon,hat,las,Lust,die,Masse,wieder,Lust,stand,beteiligter,große,Mann,Zuckers,dem,dem,Erlebnisse,Hemd,können,mit,des,mit,beschuldigten,der,Liter,habe,,,,,,,,,,,,,,,,,,,,,,,1,0,1,0,0,3,3,3,,,,,,,space,0.80585694313,,,,,2017_Feb_01_1409,59.412013842,spr_backupper,001,Di18,
,landen,man,Fahrer,man,"Delikte,",warmem,sind,den,ich,Packung,"minimalem,",wir,"regelmäßigem,",nicht,man,Wohnung,ich,man,Farbe,Büschel,"trug,",schönen,mit,schmutziger,dem,obwohl,die,Kilowattstunden,36,den,dank,sprudelndes,solch,landen,"reichlichem,",immer,schmutzige,Wohnung,"üblichem,",alten,einen,jetzt,"nicht,",Farbe,Stimmung,Büschel,Kilowattstunden,obschon,viel,Stadt,wir,Blut,"Japan,",aus,"Delikte,",war,mit,wurden,die,mit,Stadt,Bluts,"wertvollem,",ausreichendem,immer,36,dauerte,ein,"sämtlichem,",wurden,schon,alten,gelegentlich,bei,uns,ich,auf,richtige,mit,viel,auf,ein,Fahrer,Packung,das,sind,schönen,bekannten,bei,aus,Neuwahlen,dauerhaftem,bekannten,solchen,die,vierte,sprudelnden,ich,,,,,,,,,,,,,,,,,,,,,,,1,0,1,0,0,4,4,4,,,,,,,space,0.755475997925,,,,,2017_Feb_01_1409,59.412013842,spr_backupper,001,Di18,
,im,der,wurden,eine,derer,weichem,auf,roten,leider,salziger,sauberen,von,kaltem,am,den,des,leider,eine,geschleudert.,frischen,war,Wetters,zusätzlichem,Wäsche.,Mann,sie,Tiere,elektrischer,hätten,roten,täglichem,Trinkwasser.,unzureichenden,im,purem,350,Wäsche.,des,harten,Kram,gelegentlichen,"nachgewiesen,",was,geschleudert.,ziemlich,frisches,elektrische,sie,Lärm,liegen,um,hat,die,seltenem,deren,die,einem,serviert.,Störenfriede,"reichem,",liegen,hat,klassischen,monatlichem,350,würden,ungefähr,Glas,künftigem,serviert.,immer,Krams,einen,minimalem,die,mehr,noch,"Zeit,",einem,Lärm,noch,Glas,wurden,salzige,Auto,auf,Wetter,Skandal,"frischem,",feinem,vor,feinem,Skandals,unzureichenden,Störenfriede,Bundespräsident.,Trinkwassers.,mehr,,,,,,,,,,,,,,,,,,,,,,,1,0,1,0,0,5,5,5,,,,,,,space,0.81055188179,,,,,2017_Feb_01_1409,59.412013842,spr_backupper,001,Di18,
,Müll.,Soldaten,verschrottet.,große,sie,Untergrund,jeden,Planeten,nichts,Wurst,Kraftstoff,den,Abduschen,Hauptbahnhof.,Soldaten,Herrn,nichts,große,nan,Grases,aus,die,schwarzem,nan,mehr,defekt,artgerecht,Energie.,seiner,Planet,grünen,nan,Helmen,Müll.,Alkohol,ml,nan,Herrn,Schaumstoff,aus,Besucher.,dass,Tupperware,nan,"vermiest,",Gras,Energie.,defekt,um,die,die,den,er,dichten,sie,Flut,Esslöffel,nan,jeden.,goldenen,die,den,Schmuck,Taschengeld,ml,seiner,drei,köstlicher,Einkommen,nan,ruhig,aus,Besucher.,täglichen,Stimmung,als,eine,um,Esslöffel,um,eine,köstlichen,verschrottet.,Wurst,mehr,jeden,die,wiedergewählt.,kaltem,dichten,Dezember,Kunsteis,wiedergewählt.,Helmen,jeden.,nan,nan,als,,,,,,,,,,,,,,,,,,,,,,,1,0,1,0,0,6,6,6,,,,,,,space,0.751575946808,,,,,2017_Feb_01_1409,59.412013842,spr_backupper,001,Di18,
,nan,des,nan,Menge,überführt,liegen.,Fall,ganz,mitbringen.,mit,fahren.,Problemen,gehärtet.,nan,des,Gantenbein.,mitbringen.,Menge,nan,zwängen.,Japan.,Wohnung.,Kaffee,nan,als,war.,gehalten.,nan,Frau,ganz,Tee,nan,zur,nan,verdünnt.,warmer,nan,Gantenbeins.,gefertigt.,dem,nan,das,ist.,nan,dass,zwängen.,nan,war.,jede,Slums.,Probleme,Boden,trug.,Gewebe,überführt,zurückgekehrt.,warmem,nan,nan,Besatz,Slums.,Boden,umgearbeitet.,selber,warme,Frau,Tage.,Wein,haftbar.,nan,diskutiert.,dem,nan,Einsatz,ziemlich,einmal,Sammlung,Nadelhölzer,warmen,jede,Sammlung,Weins,nan,mit,als,Fall,Wohnung.,nan,Saft,Stoff,stattfinden.,eingesprüht.,nan,zur,nan,nan,nan,einmal,,,,,,,,,,,,,,,,,,,,,,,1,0,1,0,0,7,7,7,,,,,,,space,0.937403917313,,,,,2017_Feb_01_1409,59.412013842,spr_backupper,001,Di18,
,,,,,,,,,,,,,,,,,,,,,,,,,,,,,,,,,,,,,,,,,,,,,,,,,,,,,,,,,,,,,,,,,,,,,,,,,,,,,,,,,,,,,,,,,,,,,,,,,,,,,,,,,,,,,,,,,,,,,,,,,1,0,1,0,,,,,,,,,,,,,None,n,1.1058511734,,2017_Feb_01_1409,59.412013842,spr_backupper,001,Di18,
,Viele,Bei,Die,Mit,Es,Jungtiere,100,Im,Außer,Ich,Wir,In,Die,Die,Bei,Die,Außer,Mit,Es,Wir,Die,Sie,Die,Dort,Wir,Die,In,Die,Die,Im,Ich,Sie,Die,Viele,Die,In,Dort,Die,Alle,Wir,Wir,In,Die,Es,Es,Wir,Die,Die,Man,Am,In,Nicht,Die,Danach,Es,Als,Er,Beträchtliche,Außer,Das,Am,Nicht,Die,Jugendliche,In,Die,Der,Bei,Manche,Beträchtliche,Fernab,Wir,Wir,Ihr,Dass,In,Sie,Jetzt,Er,Man,Sie,Bei,Die,Ich,Wir,100,Sie,Er,Sie,Er,Unter,Die,Er,Die,Außer,Walter,Sie,In,,,,,,,,,,,,,,,,,,,,,,,2,0,2,0,0,0,0,0,,,,,,space,space,0.452589035034,,,,0.654602050781,2017_Feb_01_1409,59.412013842,spr_backupper,001,Di18,
,Tonnen,der,Autos,dieser,waren,sollten,g,Fernrohr,dem,nehme,konnten,der,Formen,Linie,der,Gäste,das,dieser,wurden,mussten,"Uhr,",verlassen,müden,türmen,übergaben,Uhr,diesem,Schule,Schuhe,Fernrohr,wurde,verbrauchen,Kinder,Tonnen,Lösung,den,türmen,Gäste,Betten,haben,hatten,einer,Teilnehmerinnen,wurden,hat,mussten,Schule,Uhr,machte,äußeren,der,ein,Uhr,wurde,waren,die,stellt,Stücke,den,Tuch,äußersten,ein,Stücke,können,den,Schuhe,Flug,unserer,Kreditnehmer,Stücke,des,haben,hatten,Blutdruck,es,meinem,hatte,ist,stellt,machte,hatte,unserer,Autos,nehme,übergaben,g,verlassen,wurde,haben,hat,keinen,Eislaufbahnen,wurde,Kinder,dem,Scheel,verbrauchen,meinem,,,,,,,,,,,,,,,,,,,,,,,2,0,2,0,0,1,1,1,,,,,,,space,0.763908147812,,,,,2017_Feb_01_1409,59.412013842,spr_backupper,001,Di18,
,gebrauchte,Feier,beider,Methode,nur,immer,brauner,sahen,Essen,eine,dann,Tat,wurden,101,Feier,suchen,Essen,Methode,Eimer,uns,die,wegen,Teilnehmer,sich,das,schlug,Zirkus,verbraucht,in,sahen,damals,60,fuhren,gebrauchter,wird,Kakao,sich,suchen,wurden,jede,in,Studie,wussten,Eimer,uns,uns,verbraucht,schlug,mal,Rand,Tat,Tropfen,war,die,nur,Sonne,die,saftiges,Bürgermeister,wurde,Rand,Tropfen,wurden,Kleidung,Kakao,in,zum,Ankunft,sind,saftigen,Rummels,jede,in,kann,"regnete,",Studium,keine,genau,die,mal,keine,Ankunft,beider,eine,dem,braunen,wegen,trotz,die,ein,Umständen,wurden,trotz,fuhren,Bürgermeister,war,60,Studium,,,,,,,,,,,,,,,,,,,,,,,2,0,2,0,0,2,2,2,,,,,,,space,0.728641033173,,,,,2017_Feb_01_1409,59.412013842,spr_backupper,001,Di18,
,Kleidung,gedachte,beteiligten,kann,kleinere,auf,Zucker,wir,kann,große,mit,wissen,unter,hält,gedachte,die,kann,kann,rote,durch,er,des,wurden,Berge,Auto,"sporadisch,",werden,260.000,Größe,wir,schnell,Liter,mit,Kleidung,mit,gehören,Berge,die,mit,Menge,Dänemark,wurde,überwiegend,roter,die,durch,260.000,"sporadisch,",wieder,der,wissen,königliches,aus,Leinwand,kleinere,"unterging,",Masse,Fleisch,beschuldigten,dann,der,königlichen,aus,bei,gehören,Größe,Mond,stand,mit,Fleischs,wurde,Menge,Dänemark,schon,hat,las,Lust,die,Masse,wieder,Lust,stand,beteiligter,große,Mann,Zuckers,dem,dem,Erlebnisse,Hemd,können,mit,des,mit,beschuldigten,der,Liter,habe,,,,,,,,,,,,,,,,,,,,,,,2,0,2,0,0,3,3,3,,,,,,,space,0.755044937134,,,,,2017_Feb_01_1409,59.412013842,spr_backupper,001,Di18,
,landen,man,Fahrer,man,"Delikte,",warmem,sind,den,ich,Packung,"minimalem,",wir,"regelmäßigem,",nicht,man,Wohnung,ich,man,Farbe,Büschel,"trug,",schönen,mit,schmutziger,dem,obwohl,die,Kilowattstunden,36,den,dank,sprudelndes,solch,landen,"reichlichem,",immer,schmutzige,Wohnung,"üblichem,",alten,einen,jetzt,"nicht,",Farbe,Stimmung,Büschel,Kilowattstunden,obschon,viel,Stadt,wir,Blut,"Japan,",aus,"Delikte,",war,mit,wurden,die,mit,Stadt,Bluts,"wertvollem,",ausreichendem,immer,36,dauerte,ein,"sämtlichem,",wurden,schon,alten,gelegentlich,bei,uns,ich,auf,richtige,mit,viel,auf,ein,Fahrer,Packung,das,sind,schönen,bekannten,bei,aus,Neuwahlen,dauerhaftem,bekannten,solchen,die,vierte,sprudelnden,ich,,,,,,,,,,,,,,,,,,,,,,,2,0,2,0,0,4,4,4,,,,,,,space,0.822486877441,,,,,2017_Feb_01_1409,59.412013842,spr_backupper,001,Di18,
,im,der,wurden,eine,derer,weichem,auf,roten,leider,salziger,sauberen,von,kaltem,am,den,des,leider,eine,geschleudert.,frischen,war,Wetters,zusätzlichem,Wäsche.,Mann,sie,Tiere,elektrischer,hätten,roten,täglichem,Trinkwasser.,unzureichenden,im,purem,350,Wäsche.,des,harten,Kram,gelegentlichen,"nachgewiesen,",was,geschleudert.,ziemlich,frisches,elektrische,sie,Lärm,liegen,um,hat,die,seltenem,deren,die,einem,serviert.,Störenfriede,"reichem,",liegen,hat,klassischen,monatlichem,350,würden,ungefähr,Glas,künftigem,serviert.,immer,Krams,einen,minimalem,die,mehr,noch,"Zeit,",einem,Lärm,noch,Glas,wurden,salzige,Auto,auf,Wetter,Skandal,"frischem,",feinem,vor,feinem,Skandals,unzureichenden,Störenfriede,Bundespräsident.,Trinkwassers.,mehr,,,,,,,,,,,,,,,,,,,,,,,2,0,2,0,0,5,5,5,,,,,,,space,0.626887798309,,,,,2017_Feb_01_1409,59.412013842,spr_backupper,001,Di18,
,Müll.,Soldaten,verschrottet.,große,sie,Untergrund,jeden,Planeten,nichts,Wurst,Kraftstoff,den,Abduschen,Hauptbahnhof.,Soldaten,Herrn,nichts,große,nan,Grases,aus,die,schwarzem,nan,mehr,defekt,artgerecht,Energie.,seiner,Planet,grünen,nan,Helmen,Müll.,Alkohol,ml,nan,Herrn,Schaumstoff,aus,Besucher.,dass,Tupperware,nan,"vermiest,",Gras,Energie.,defekt,um,die,die,den,er,dichten,sie,Flut,Esslöffel,nan,jeden.,goldenen,die,den,Schmuck,Taschengeld,ml,seiner,drei,köstlicher,Einkommen,nan,ruhig,aus,Besucher.,täglichen,Stimmung,als,eine,um,Esslöffel,um,eine,köstlichen,verschrottet.,Wurst,mehr,jeden,die,wiedergewählt.,kaltem,dichten,Dezember,Kunsteis,wiedergewählt.,Helmen,jeden.,nan,nan,als,,,,,,,,,,,,,,,,,,,,,,,2,0,2,0,0,6,6,6,,,,,,,space,0.71085691452,,,,,2017_Feb_01_1409,59.412013842,spr_backupper,001,Di18,
,nan,des,nan,Menge,überführt,liegen.,Fall,ganz,mitbringen.,mit,fahren.,Problemen,gehärtet.,nan,des,Gantenbein.,mitbringen.,Menge,nan,zwängen.,Japan.,Wohnung.,Kaffee,nan,als,war.,gehalten.,nan,Frau,ganz,Tee,nan,zur,nan,verdünnt.,warmer,nan,Gantenbeins.,gefertigt.,dem,nan,das,ist.,nan,dass,zwängen.,nan,war.,jede,Slums.,Probleme,Boden,trug.,Gewebe,überführt,zurückgekehrt.,warmem,nan,nan,Besatz,Slums.,Boden,umgearbeitet.,selber,warme,Frau,Tage.,Wein,haftbar.,nan,diskutiert.,dem,nan,Einsatz,ziemlich,einmal,Sammlung,Nadelhölzer,warmen,jede,Sammlung,Weins,nan,mit,als,Fall,Wohnung.,nan,Saft,Stoff,stattfinden.,eingesprüht.,nan,zur,nan,nan,nan,einmal,,,,,,,,,,,,,,,,,,,,,,,2,0,2,0,0,7,7,7,,,,,,,space,0.638113975525,,,,,2017_Feb_01_1409,59.412013842,spr_backupper,001,Di18,
,nan,zweiten,nan,dunkle,wurden.,nan,genug.,deutlich.,nan,an,nan,im,nan,nan,zweiten,nan,nan,dunkler,nan,nan,nan,nan,wiederbelebt.,nan,gerne.,nan,nan,nan,gepasst.,deutlich.,wieder,nan,Schule.,nan,nan,Milch.,nan,nan,nan,Haus,nan,Medikament,nan,nan,es,nan,nan,nan,Menge,nan,im,berührt.,nan,wiederhergestellt.,wurden.,nan,Honig,nan,nan,rekonstruiert.,nan,berührt.,nan,kaufen.,Milch.,gepasst,nan,schon,nan,nan,nan,Haus,nan,sinken.,vermiest.,Rilke.,dummer,umzusetzen.,Honigs,Menge,dumme,schon,nan,an,gerne.,genug.,nan,nan,besprochen.,gefertigt.,nan,nan,nan,Schule.,nan,nan,nan,Rilke,,,,,,,,,,,,,,,,,,,,,,,2,0,2,0,0,8,8,8,,,,,,,space,1.33103203773,,,,,2017_Feb_01_1409,59.412013842,spr_backupper,001,Di18,
,,,,,,,,,,,,,,,,,,,,,,,,,,,,,,,,,,,,,,,,,,,,,,,,,,,,,,,,,,,,,,,,,,,,,,,,,,,,,,,,,,,,,,,,,,,,,,,,,,,,,,,,,,,,,,,,,,,,,,,,,2,0,2,0,,,,,,,,,,,,,None,j,1.99628210068,,2017_Feb_01_1409,59.412013842,spr_backupper,001,Di18,
,Viele,Bei,Die,Mit,Es,Jungtiere,100,Im,Außer,Ich,Wir,In,Die,Die,Bei,Die,Außer,Mit,Es,Wir,Die,Sie,Die,Dort,Wir,Die,In,Die,Die,Im,Ich,Sie,Die,Viele,Die,In,Dort,Die,Alle,Wir,Wir,In,Die,Es,Es,Wir,Die,Die,Man,Am,In,Nicht,Die,Danach,Es,Als,Er,Beträchtliche,Außer,Das,Am,Nicht,Die,Jugendliche,In,Die,Der,Bei,Manche,Beträchtliche,Fernab,Wir,Wir,Ihr,Dass,In,Sie,Jetzt,Er,Man,Sie,Bei,Die,Ich,Wir,100,Sie,Er,Sie,Er,Unter,Die,Er,Die,Außer,Walter,Sie,In,,,,,,,,,,,,,,,,,,,,,,,3,0,3,0,0,0,0,0,,,,,,space,space,0.421674013138,,,,0.805279016495,2017_Feb_01_1409,59.412013842,spr_backupper,001,Di18,
,Tonnen,der,Autos,dieser,waren,sollten,g,Fernrohr,dem,nehme,konnten,der,Formen,Linie,der,Gäste,das,dieser,wurden,mussten,"Uhr,",verlassen,müden,türmen,übergaben,Uhr,diesem,Schule,Schuhe,Fernrohr,wurde,verbrauchen,Kinder,Tonnen,Lösung,den,türmen,Gäste,Betten,haben,hatten,einer,Teilnehmerinnen,wurden,hat,mussten,Schule,Uhr,machte,äußeren,der,ein,Uhr,wurde,waren,die,stellt,Stücke,den,Tuch,äußersten,ein,Stücke,können,den,Schuhe,Flug,unserer,Kreditnehmer,Stücke,des,haben,hatten,Blutdruck,es,meinem,hatte,ist,stellt,machte,hatte,unserer,Autos,nehme,übergaben,g,verlassen,wurde,haben,hat,keinen,Eislaufbahnen,wurde,Kinder,dem,Scheel,verbrauchen,meinem,,,,,,,,,,,,,,,,,,,,,,,3,0,3,0,0,1,1,1,,,,,,,space,0.637115955353,,,,,2017_Feb_01_1409,59.412013842,spr_backupper,001,Di18,
,gebrauchte,Feier,beider,Methode,nur,immer,brauner,sahen,Essen,eine,dann,Tat,wurden,101,Feier,suchen,Essen,Methode,Eimer,uns,die,wegen,Teilnehmer,sich,das,schlug,Zirkus,verbraucht,in,sahen,damals,60,fuhren,gebrauchter,wird,Kakao,sich,suchen,wurden,jede,in,Studie,wussten,Eimer,uns,uns,verbraucht,schlug,mal,Rand,Tat,Tropfen,war,die,nur,Sonne,die,saftiges,Bürgermeister,wurde,Rand,Tropfen,wurden,Kleidung,Kakao,in,zum,Ankunft,sind,saftigen,Rummels,jede,in,kann,"regnete,",Studium,keine,genau,die,mal,keine,Ankunft,beider,eine,dem,braunen,wegen,trotz,die,ein,Umständen,wurden,trotz,fuhren,Bürgermeister,war,60,Studium,,,,,,,,,,,,,,,,,,,,,,,3,0,3,0,0,2,2,2,,,,,,,space,0.705538034439,,,,,2017_Feb_01_1409,59.412013842,spr_backupper,001,Di18,
,Kleidung,gedachte,beteiligten,kann,kleinere,auf,Zucker,wir,kann,große,mit,wissen,unter,hält,gedachte,die,kann,kann,rote,durch,er,des,wurden,Berge,Auto,"sporadisch,",werden,260.000,Größe,wir,schnell,Liter,mit,Kleidung,mit,gehören,Berge,die,mit,Menge,Dänemark,wurde,überwiegend,roter,die,durch,260.000,"sporadisch,",wieder,der,wissen,königliches,aus,Leinwand,kleinere,"unterging,",Masse,Fleisch,beschuldigten,dann,der,königlichen,aus,bei,gehören,Größe,Mond,stand,mit,Fleischs,wurde,Menge,Dänemark,schon,hat,las,Lust,die,Masse,wieder,Lust,stand,beteiligter,große,Mann,Zuckers,dem,dem,Erlebnisse,Hemd,können,mit,des,mit,beschuldigten,der,Liter,habe,,,,,,,,,,,,,,,,,,,,,,,3,0,3,0,0,3,3,3,,,,,,,space,1.1961479187,,,,,2017_Feb_01_1409,59.412013842,spr_backupper,001,Di18,
,landen,man,Fahrer,man,"Delikte,",warmem,sind,den,ich,Packung,"minimalem,",wir,"regelmäßigem,",nicht,man,Wohnung,ich,man,Farbe,Büschel,"trug,",schönen,mit,schmutziger,dem,obwohl,die,Kilowattstunden,36,den,dank,sprudelndes,solch,landen,"reichlichem,",immer,schmutzige,Wohnung,"üblichem,",alten,einen,jetzt,"nicht,",Farbe,Stimmung,Büschel,Kilowattstunden,obschon,viel,Stadt,wir,Blut,"Japan,",aus,"Delikte,",war,mit,wurden,die,mit,Stadt,Bluts,"wertvollem,",ausreichendem,immer,36,dauerte,ein,"sämtlichem,",wurden,schon,alten,gelegentlich,bei,uns,ich,auf,richtige,mit,viel,auf,ein,Fahrer,Packung,das,sind,schönen,bekannten,bei,aus,Neuwahlen,dauerhaftem,bekannten,solchen,die,vierte,sprudelnden,ich,,,,,,,,,,,,,,,,,,,,,,,3,0,3,0,0,4,4,4,,,,,,,space,0.804828882217,,,,,2017_Feb_01_1409,59.412013842,spr_backupper,001,Di18,
,im,der,wurden,eine,derer,weichem,auf,roten,leider,salziger,sauberen,von,kaltem,am,den,des,leider,eine,geschleudert.,frischen,war,Wetters,zusätzlichem,Wäsche.,Mann,sie,Tiere,elektrischer,hätten,roten,täglichem,Trinkwasser.,unzureichenden,im,purem,350,Wäsche.,des,harten,Kram,gelegentlichen,"nachgewiesen,",was,geschleudert.,ziemlich,frisches,elektrische,sie,Lärm,liegen,um,hat,die,seltenem,deren,die,einem,serviert.,Störenfriede,"reichem,",liegen,hat,klassischen,monatlichem,350,würden,ungefähr,Glas,künftigem,serviert.,immer,Krams,einen,minimalem,die,mehr,noch,"Zeit,",einem,Lärm,noch,Glas,wurden,salzige,Auto,auf,Wetter,Skandal,"frischem,",feinem,vor,feinem,Skandals,unzureichenden,Störenfriede,Bundespräsident.,Trinkwassers.,mehr,,,,,,,,,,,,,,,,,,,,,,,3,0,3,0,0,5,5,5,,,,,,,space,0.931066036224,,,,,2017_Feb_01_1409,59.412013842,spr_backupper,001,Di18,
,Müll.,Soldaten,verschrottet.,große,sie,Untergrund,jeden,Planeten,nichts,Wurst,Kraftstoff,den,Abduschen,Hauptbahnhof.,Soldaten,Herrn,nichts,große,nan,Grases,aus,die,schwarzem,nan,mehr,defekt,artgerecht,Energie.,seiner,Planet,grünen,nan,Helmen,Müll.,Alkohol,ml,nan,Herrn,Schaumstoff,aus,Besucher.,dass,Tupperware,nan,"vermiest,",Gras,Energie.,defekt,um,die,die,den,er,dichten,sie,Flut,Esslöffel,nan,jeden.,goldenen,die,den,Schmuck,Taschengeld,ml,seiner,drei,köstlicher,Einkommen,nan,ruhig,aus,Besucher.,täglichen,Stimmung,als,eine,um,Esslöffel,um,eine,köstlichen,verschrottet.,Wurst,mehr,jeden,die,wiedergewählt.,kaltem,dichten,Dezember,Kunsteis,wiedergewählt.,Helmen,jeden.,nan,nan,als,,,,,,,,,,,,,,,,,,,,,,,3,0,3,0,0,6,6,6,,,,,,,space,2.29766392708,,,,,2017_Feb_01_1409,59.412013842,spr_backupper,001,Di18,
,nan,des,nan,Menge,überführt,liegen.,Fall,ganz,mitbringen.,mit,fahren.,Problemen,gehärtet.,nan,des,Gantenbein.,mitbringen.,Menge,nan,zwängen.,Japan.,Wohnung.,Kaffee,nan,als,war.,gehalten.,nan,Frau,ganz,Tee,nan,zur,nan,verdünnt.,warmer,nan,Gantenbeins.,gefertigt.,dem,nan,das,ist.,nan,dass,zwängen.,nan,war.,jede,Slums.,Probleme,Boden,trug.,Gewebe,überführt,zurückgekehrt.,warmem,nan,nan,Besatz,Slums.,Boden,umgearbeitet.,selber,warme,Frau,Tage.,Wein,haftbar.,nan,diskutiert.,dem,nan,Einsatz,ziemlich,einmal,Sammlung,Nadelhölzer,warmen,jede,Sammlung,Weins,nan,mit,als,Fall,Wohnung.,nan,Saft,Stoff,stattfinden.,eingesprüht.,nan,zur,nan,nan,nan,einmal,,,,,,,,,,,,,,,,,,,,,,,3,0,3,0,0,7,7,7,,,,,,,space,0.775931835175,,,,,2017_Feb_01_1409,59.412013842,spr_backupper,001,Di18,
,nan,zweiten,nan,dunkle,wurden.,nan,genug.,deutlich.,nan,an,nan,im,nan,nan,zweiten,nan,nan,dunkler,nan,nan,nan,nan,wiederbelebt.,nan,gerne.,nan,nan,nan,gepasst.,deutlich.,wieder,nan,Schule.,nan,nan,Milch.,nan,nan,nan,Haus,nan,Medikament,nan,nan,es,nan,nan,nan,Menge,nan,im,berührt.,nan,wiederhergestellt.,wurden.,nan,Honig,nan,nan,rekonstruiert.,nan,berührt.,nan,kaufen.,Milch.,gepasst,nan,schon,nan,nan,nan,Haus,nan,sinken.,vermiest.,Rilke.,dummer,umzusetzen.,Honigs,Menge,dumme,schon,nan,an,gerne.,genug.,nan,nan,besprochen.,gefertigt.,nan,nan,nan,Schule.,nan,nan,nan,Rilke,,,,,,,,,,,,,,,,,,,,,,,3,0,3,0,0,8,8,8,,,,,,,space,0.772334814072,,,,,2017_Feb_01_1409,59.412013842,spr_backupper,001,Di18,
,nan,Weltkriegs.,nan,Materie,nan,nan,nan,nan,nan,den,nan,Landkreis.,nan,nan,Weltkriegs.,nan,nan,Materie,nan,nan,nan,nan,nan,nan,nan,nan,nan,nan,nan,nan,fit.,nan,nan,nan,nan,nan,nan,nan,nan,geschafft.,nan,nicht,nan,nan,regnete.,nan,nan,nan,heiße,nan,Landkreis.,nan,nan,nan,nan,nan,her.,nan,nan,nan,nan,nan,nan,nan,nan,haben.,nan,auf,nan,nan,nan,geschafft.,nan,nan,nan,nan,Sprüche.,nan,her.,heißer,Sprüche.,auf,nan,den,nan,nan,nan,nan,nan,nan,nan,nan,nan,nan,nan,nan,nan,gelesen.,,,,,,,,,,,,,,,,,,,,,,,3,0,3,0,0,9,9,9,,,,,,,space,0.976644039154,,,,,2017_Feb_01_1409,59.412013842,spr_backupper,001,Di18,
,,,,,,,,,,,,,,,,,,,,,,,,,,,,,,,,,,,,,,,,,,,,,,,,,,,,,,,,,,,,,,,,,,,,,,,,,,,,,,,,,,,,,,,,,,,,,,,,,,,,,,,,,,,,,,,,,,,,,,,,,3,0,3,0,,,,,,,,,,,,,None,j,1.16560697556,,2017_Feb_01_1409,59.412013842,spr_backupper,001,Di18,
,Viele,Bei,Die,Mit,Es,Jungtiere,100,Im,Außer,Ich,Wir,In,Die,Die,Bei,Die,Außer,Mit,Es,Wir,Die,Sie,Die,Dort,Wir,Die,In,Die,Die,Im,Ich,Sie,Die,Viele,Die,In,Dort,Die,Alle,Wir,Wir,In,Die,Es,Es,Wir,Die,Die,Man,Am,In,Nicht,Die,Danach,Es,Als,Er,Beträchtliche,Außer,Das,Am,Nicht,Die,Jugendliche,In,Die,Der,Bei,Manche,Beträchtliche,Fernab,Wir,Wir,Ihr,Dass,In,Sie,Jetzt,Er,Man,Sie,Bei,Die,Ich,Wir,100,Sie,Er,Sie,Er,Unter,Die,Er,Die,Außer,Walter,Sie,In,,,,,,,,,,,,,,,,,,,,,,,4,0,4,0,0,0,0,0,,,,,,space,space,0.335530996323,,,,0.704349994659,2017_Feb_01_1409,59.412013842,spr_backupper,001,Di18,
,Tonnen,der,Autos,dieser,waren,sollten,g,Fernrohr,dem,nehme,konnten,der,Formen,Linie,der,Gäste,das,dieser,wurden,mussten,"Uhr,",verlassen,müden,türmen,übergaben,Uhr,diesem,Schule,Schuhe,Fernrohr,wurde,verbrauchen,Kinder,Tonnen,Lösung,den,türmen,Gäste,Betten,haben,hatten,einer,Teilnehmerinnen,wurden,hat,mussten,Schule,Uhr,machte,äußeren,der,ein,Uhr,wurde,waren,die,stellt,Stücke,den,Tuch,äußersten,ein,Stücke,können,den,Schuhe,Flug,unserer,Kreditnehmer,Stücke,des,haben,hatten,Blutdruck,es,meinem,hatte,ist,stellt,machte,hatte,unserer,Autos,nehme,übergaben,g,verlassen,wurde,haben,hat,keinen,Eislaufbahnen,wurde,Kinder,dem,Scheel,verbrauchen,meinem,,,,,,,,,,,,,,,,,,,,,,,4,0,4,0,0,1,1,1,,,,,,,space,0.803786039352,,,,,2017_Feb_01_1409,59.412013842,spr_backupper,001,Di18,
,gebrauchte,Feier,beider,Methode,nur,immer,brauner,sahen,Essen,eine,dann,Tat,wurden,101,Feier,suchen,Essen,Methode,Eimer,uns,die,wegen,Teilnehmer,sich,das,schlug,Zirkus,verbraucht,in,sahen,damals,60,fuhren,gebrauchter,wird,Kakao,sich,suchen,wurden,jede,in,Studie,wussten,Eimer,uns,uns,verbraucht,schlug,mal,Rand,Tat,Tropfen,war,die,nur,Sonne,die,saftiges,Bürgermeister,wurde,Rand,Tropfen,wurden,Kleidung,Kakao,in,zum,Ankunft,sind,saftigen,Rummels,jede,in,kann,"regnete,",Studium,keine,genau,die,mal,keine,Ankunft,beider,eine,dem,braunen,wegen,trotz,die,ein,Umständen,wurden,trotz,fuhren,Bürgermeister,war,60,Studium,,,,,,,,,,,,,,,,,,,,,,,4,0,4,0,0,2,2,2,,,,,,,space,0.838724136353,,,,,2017_Feb_01_1409,59.412013842,spr_backupper,001,Di18,
,Kleidung,gedachte,beteiligten,kann,kleinere,auf,Zucker,wir,kann,große,mit,wissen,unter,hält,gedachte,die,kann,kann,rote,durch,er,des,wurden,Berge,Auto,"sporadisch,",werden,260.000,Größe,wir,schnell,Liter,mit,Kleidung,mit,gehören,Berge,die,mit,Menge,Dänemark,wurde,überwiegend,roter,die,durch,260.000,"sporadisch,",wieder,der,wissen,königliches,aus,Leinwand,kleinere,"unterging,",Masse,Fleisch,beschuldigten,dann,der,königlichen,aus,bei,gehören,Größe,Mond,stand,mit,Fleischs,wurde,Menge,Dänemark,schon,hat,las,Lust,die,Masse,wieder,Lust,stand,beteiligter,große,Mann,Zuckers,dem,dem,Erlebnisse,Hemd,können,mit,des,mit,beschuldigten,der,Liter,habe,,,,,,,,,,,,,,,,,,,,,,,4,0,4,0,0,3,3,3,,,,,,,space,0.889767169952,,,,,2017_Feb_01_1409,59.412013842,spr_backupper,001,Di18,
,landen,man,Fahrer,man,"Delikte,",warmem,sind,den,ich,Packung,"minimalem,",wir,"regelmäßigem,",nicht,man,Wohnung,ich,man,Farbe,Büschel,"trug,",schönen,mit,schmutziger,dem,obwohl,die,Kilowattstunden,36,den,dank,sprudelndes,solch,landen,"reichlichem,",immer,schmutzige,Wohnung,"üblichem,",alten,einen,jetzt,"nicht,",Farbe,Stimmung,Büschel,Kilowattstunden,obschon,viel,Stadt,wir,Blut,"Japan,",aus,"Delikte,",war,mit,wurden,die,mit,Stadt,Bluts,"wertvollem,",ausreichendem,immer,36,dauerte,ein,"sämtlichem,",wurden,schon,alten,gelegentlich,bei,uns,ich,auf,richtige,mit,viel,auf,ein,Fahrer,Packung,das,sind,schönen,bekannten,bei,aus,Neuwahlen,dauerhaftem,bekannten,solchen,die,vierte,sprudelnden,ich,,,,,,,,,,,,,,,,,,,,,,,4,0,4,0,0,4,4,4,,,,,,,space,0.843327999115,,,,,2017_Feb_01_1409,59.412013842,spr_backupper,001,Di18,
,im,der,wurden,eine,derer,weichem,auf,roten,leider,salziger,sauberen,von,kaltem,am,den,des,leider,eine,geschleudert.,frischen,war,Wetters,zusätzlichem,Wäsche.,Mann,sie,Tiere,elektrischer,hätten,roten,täglichem,Trinkwasser.,unzureichenden,im,purem,350,Wäsche.,des,harten,Kram,gelegentlichen,"nachgewiesen,",was,geschleudert.,ziemlich,frisches,elektrische,sie,Lärm,liegen,um,hat,die,seltenem,deren,die,einem,serviert.,Störenfriede,"reichem,",liegen,hat,klassischen,monatlichem,350,würden,ungefähr,Glas,künftigem,serviert.,immer,Krams,einen,minimalem,die,mehr,noch,"Zeit,",einem,Lärm,noch,Glas,wurden,salzige,Auto,auf,Wetter,Skandal,"frischem,",feinem,vor,feinem,Skandals,unzureichenden,Störenfriede,Bundespräsident.,Trinkwassers.,mehr,,,,,,,,,,,,,,,,,,,,,,,4,0,4,0,0,5,5,5,,,,,,,space,0.907045841217,,,,,2017_Feb_01_1409,59.412013842,spr_backupper,001,Di18,
,Müll.,Soldaten,verschrottet.,große,sie,Untergrund,jeden,Planeten,nichts,Wurst,Kraftstoff,den,Abduschen,Hauptbahnhof.,Soldaten,Herrn,nichts,große,nan,Grases,aus,die,schwarzem,nan,mehr,defekt,artgerecht,Energie.,seiner,Planet,grünen,nan,Helmen,Müll.,Alkohol,ml,nan,Herrn,Schaumstoff,aus,Besucher.,dass,Tupperware,nan,"vermiest,",Gras,Energie.,defekt,um,die,die,den,er,dichten,sie,Flut,Esslöffel,nan,jeden.,goldenen,die,den,Schmuck,Taschengeld,ml,seiner,drei,köstlicher,Einkommen,nan,ruhig,aus,Besucher.,täglichen,Stimmung,als,eine,um,Esslöffel,um,eine,köstlichen,verschrottet.,Wurst,mehr,jeden,die,wiedergewählt.,kaltem,dichten,Dezember,Kunsteis,wiedergewählt.,Helmen,jeden.,nan,nan,als,,,,,,,,,,,,,,,,,,,,,,,4,0,4,0,0,6,6,6,,,,,,,space,0.889532089233,,,,,2017_Feb_01_1409,59.412013842,spr_backupper,001,Di18,
,nan,des,nan,Menge,überführt,liegen.,Fall,ganz,mitbringen.,mit,fahren.,Problemen,gehärtet.,nan,des,Gantenbein.,mitbringen.,Menge,nan,zwängen.,Japan.,Wohnung.,Kaffee,nan,als,war.,gehalten.,nan,Frau,ganz,Tee,nan,zur,nan,verdünnt.,warmer,nan,Gantenbeins.,gefertigt.,dem,nan,das,ist.,nan,dass,zwängen.,nan,war.,jede,Slums.,Probleme,Boden,trug.,Gewebe,überführt,zurückgekehrt.,warmem,nan,nan,Besatz,Slums.,Boden,umgearbeitet.,selber,warme,Frau,Tage.,Wein,haftbar.,nan,diskutiert.,dem,nan,Einsatz,ziemlich,einmal,Sammlung,Nadelhölzer,warmen,jede,Sammlung,Weins,nan,mit,als,Fall,Wohnung.,nan,Saft,Stoff,stattfinden.,eingesprüht.,nan,zur,nan,nan,nan,einmal,,,,,,,,,,,,,,,,,,,,,,,4,0,4,0,0,7,7,7,,,,,,,space,1.02035188675,,,,,2017_Feb_01_1409,59.412013842,spr_backupper,001,Di18,
,,,,,,,,,,,,,,,,,,,,,,,,,,,,,,,,,,,,,,,,,,,,,,,,,,,,,,,,,,,,,,,,,,,,,,,,,,,,,,,,,,,,,,,,,,,,,,,,,,,,,,,,,,,,,,,,,,,,,,,,,4,0,4,0,,,,,,,,,,,,,None,n,2.53474712372,,2017_Feb_01_1409,59.412013842,spr_backupper,001,Di18,
,Viele,Bei,Die,Mit,Es,Jungtiere,100,Im,Außer,Ich,Wir,In,Die,Die,Bei,Die,Außer,Mit,Es,Wir,Die,Sie,Die,Dort,Wir,Die,In,Die,Die,Im,Ich,Sie,Die,Viele,Die,In,Dort,Die,Alle,Wir,Wir,In,Die,Es,Es,Wir,Die,Die,Man,Am,In,Nicht,Die,Danach,Es,Als,Er,Beträchtliche,Außer,Das,Am,Nicht,Die,Jugendliche,In,Die,Der,Bei,Manche,Beträchtliche,Fernab,Wir,Wir,Ihr,Dass,In,Sie,Jetzt,Er,Man,Sie,Bei,Die,Ich,Wir,100,Sie,Er,Sie,Er,Unter,Die,Er,Die,Außer,Walter,Sie,In,,,,,,,,,,,,,,,,,,,,,,,5,0,5,0,0,0,0,0,,,,,,space,space,0.488422870636,,,,0.722249984741,2017_Feb_01_1409,59.412013842,spr_backupper,001,Di18,
,Tonnen,der,Autos,dieser,waren,sollten,g,Fernrohr,dem,nehme,konnten,der,Formen,Linie,der,Gäste,das,dieser,wurden,mussten,"Uhr,",verlassen,müden,türmen,übergaben,Uhr,diesem,Schule,Schuhe,Fernrohr,wurde,verbrauchen,Kinder,Tonnen,Lösung,den,türmen,Gäste,Betten,haben,hatten,einer,Teilnehmerinnen,wurden,hat,mussten,Schule,Uhr,machte,äußeren,der,ein,Uhr,wurde,waren,die,stellt,Stücke,den,Tuch,äußersten,ein,Stücke,können,den,Schuhe,Flug,unserer,Kreditnehmer,Stücke,des,haben,hatten,Blutdruck,es,meinem,hatte,ist,stellt,machte,hatte,unserer,Autos,nehme,übergaben,g,verlassen,wurde,haben,hat,keinen,Eislaufbahnen,wurde,Kinder,dem,Scheel,verbrauchen,meinem,,,,,,,,,,,,,,,,,,,,,,,5,0,5,0,0,1,1,1,,,,,,,space,0.770780086517,,,,,2017_Feb_01_1409,59.412013842,spr_backupper,001,Di18,
,gebrauchte,Feier,beider,Methode,nur,immer,brauner,sahen,Essen,eine,dann,Tat,wurden,101,Feier,suchen,Essen,Methode,Eimer,uns,die,wegen,Teilnehmer,sich,das,schlug,Zirkus,verbraucht,in,sahen,damals,60,fuhren,gebrauchter,wird,Kakao,sich,suchen,wurden,jede,in,Studie,wussten,Eimer,uns,uns,verbraucht,schlug,mal,Rand,Tat,Tropfen,war,die,nur,Sonne,die,saftiges,Bürgermeister,wurde,Rand,Tropfen,wurden,Kleidung,Kakao,in,zum,Ankunft,sind,saftigen,Rummels,jede,in,kann,"regnete,",Studium,keine,genau,die,mal,keine,Ankunft,beider,eine,dem,braunen,wegen,trotz,die,ein,Umständen,wurden,trotz,fuhren,Bürgermeister,war,60,Studium,,,,,,,,,,,,,,,,,,,,,,,5,0,5,0,0,2,2,2,,,,,,,space,0.634256839752,,,,,2017_Feb_01_1409,59.412013842,spr_backupper,001,Di18,
,Kleidung,gedachte,beteiligten,kann,kleinere,auf,Zucker,wir,kann,große,mit,wissen,unter,hält,gedachte,die,kann,kann,rote,durch,er,des,wurden,Berge,Auto,"sporadisch,",werden,260.000,Größe,wir,schnell,Liter,mit,Kleidung,mit,gehören,Berge,die,mit,Menge,Dänemark,wurde,überwiegend,roter,die,durch,260.000,"sporadisch,",wieder,der,wissen,königliches,aus,Leinwand,kleinere,"unterging,",Masse,Fleisch,beschuldigten,dann,der,königlichen,aus,bei,gehören,Größe,Mond,stand,mit,Fleischs,wurde,Menge,Dänemark,schon,hat,las,Lust,die,Masse,wieder,Lust,stand,beteiligter,große,Mann,Zuckers,dem,dem,Erlebnisse,Hemd,können,mit,des,mit,beschuldigten,der,Liter,habe,,,,,,,,,,,,,,,,,,,,,,,5,0,5,0,0,3,3,3,,,,,,,space,0.517168045044,,,,,2017_Feb_01_1409,59.412013842,spr_backupper,001,Di18,
,landen,man,Fahrer,man,"Delikte,",warmem,sind,den,ich,Packung,"minimalem,",wir,"regelmäßigem,",nicht,man,Wohnung,ich,man,Farbe,Büschel,"trug,",schönen,mit,schmutziger,dem,obwohl,die,Kilowattstunden,36,den,dank,sprudelndes,solch,landen,"reichlichem,",immer,schmutzige,Wohnung,"üblichem,",alten,einen,jetzt,"nicht,",Farbe,Stimmung,Büschel,Kilowattstunden,obschon,viel,Stadt,wir,Blut,"Japan,",aus,"Delikte,",war,mit,wurden,die,mit,Stadt,Bluts,"wertvollem,",ausreichendem,immer,36,dauerte,ein,"sämtlichem,",wurden,schon,alten,gelegentlich,bei,uns,ich,auf,richtige,mit,viel,auf,ein,Fahrer,Packung,das,sind,schönen,bekannten,bei,aus,Neuwahlen,dauerhaftem,bekannten,solchen,die,vierte,sprudelnden,ich,,,,,,,,,,,,,,,,,,,,,,,5,0,5,0,0,4,4,4,,,,,,,space,0.643595933914,,,,,2017_Feb_01_1409,59.412013842,spr_backupper,001,Di18,
,im,der,wurden,eine,derer,weichem,auf,roten,leider,salziger,sauberen,von,kaltem,am,den,des,leider,eine,geschleudert.,frischen,war,Wetters,zusätzlichem,Wäsche.,Mann,sie,Tiere,elektrischer,hätten,roten,täglichem,Trinkwasser.,unzureichenden,im,purem,350,Wäsche.,des,harten,Kram,gelegentlichen,"nachgewiesen,",was,geschleudert.,ziemlich,frisches,elektrische,sie,Lärm,liegen,um,hat,die,seltenem,deren,die,einem,serviert.,Störenfriede,"reichem,",liegen,hat,klassischen,monatlichem,350,würden,ungefähr,Glas,künftigem,serviert.,immer,Krams,einen,minimalem,die,mehr,noch,"Zeit,",einem,Lärm,noch,Glas,wurden,salzige,Auto,auf,Wetter,Skandal,"frischem,",feinem,vor,feinem,Skandals,unzureichenden,Störenfriede,Bundespräsident.,Trinkwassers.,mehr,,,,,,,,,,,,,,,,,,,,,,,5,0,5,0,0,5,5,5,,,,,,,space,0.637751817703,,,,,2017_Feb_01_1409,59.412013842,spr_backupper,001,Di18,
,Müll.,Soldaten,verschrottet.,große,sie,Untergrund,jeden,Planeten,nichts,Wurst,Kraftstoff,den,Abduschen,Hauptbahnhof.,Soldaten,Herrn,nichts,große,nan,Grases,aus,die,schwarzem,nan,mehr,defekt,artgerecht,Energie.,seiner,Planet,grünen,nan,Helmen,Müll.,Alkohol,ml,nan,Herrn,Schaumstoff,aus,Besucher.,dass,Tupperware,nan,"vermiest,",Gras,Energie.,defekt,um,die,die,den,er,dichten,sie,Flut,Esslöffel,nan,jeden.,goldenen,die,den,Schmuck,Taschengeld,ml,seiner,drei,köstlicher,Einkommen,nan,ruhig,aus,Besucher.,täglichen,Stimmung,als,eine,um,Esslöffel,um,eine,köstlichen,verschrottet.,Wurst,mehr,jeden,die,wiedergewählt.,kaltem,dichten,Dezember,Kunsteis,wiedergewählt.,Helmen,jeden.,nan,nan,als,,,,,,,,,,,,,,,,,,,,,,,5,0,5,0,0,6,6,6,,,,,,,space,0.604696989059,,,,,2017_Feb_01_1409,59.412013842,spr_backupper,001,Di18,
,nan,des,nan,Menge,überführt,liegen.,Fall,ganz,mitbringen.,mit,fahren.,Problemen,gehärtet.,nan,des,Gantenbein.,mitbringen.,Menge,nan,zwängen.,Japan.,Wohnung.,Kaffee,nan,als,war.,gehalten.,nan,Frau,ganz,Tee,nan,zur,nan,verdünnt.,warmer,nan,Gantenbeins.,gefertigt.,dem,nan,das,ist.,nan,dass,zwängen.,nan,war.,jede,Slums.,Probleme,Boden,trug.,Gewebe,überführt,zurückgekehrt.,warmem,nan,nan,Besatz,Slums.,Boden,umgearbeitet.,selber,warme,Frau,Tage.,Wein,haftbar.,nan,diskutiert.,dem,nan,Einsatz,ziemlich,einmal,Sammlung,Nadelhölzer,warmen,jede,Sammlung,Weins,nan,mit,als,Fall,Wohnung.,nan,Saft,Stoff,stattfinden.,eingesprüht.,nan,zur,nan,nan,nan,einmal,,,,,,,,,,,,,,,,,,,,,,,5,0,5,0,0,7,7,7,,,,,,,space,0.526418924332,,,,,2017_Feb_01_1409,59.412013842,spr_backupper,001,Di18,
,nan,zweiten,nan,dunkle,wurden.,nan,genug.,deutlich.,nan,an,nan,im,nan,nan,zweiten,nan,nan,dunkler,nan,nan,nan,nan,wiederbelebt.,nan,gerne.,nan,nan,nan,gepasst.,deutlich.,wieder,nan,Schule.,nan,nan,Milch.,nan,nan,nan,Haus,nan,Medikament,nan,nan,es,nan,nan,nan,Menge,nan,im,berührt.,nan,wiederhergestellt.,wurden.,nan,Honig,nan,nan,rekonstruiert.,nan,berührt.,nan,kaufen.,Milch.,gepasst,nan,schon,nan,nan,nan,Haus,nan,sinken.,vermiest.,Rilke.,dummer,umzusetzen.,Honigs,Menge,dumme,schon,nan,an,gerne.,genug.,nan,nan,besprochen.,gefertigt.,nan,nan,nan,Schule.,nan,nan,nan,Rilke,,,,,,,,,,,,,,,,,,,,,,,5,0,5,0,0,8,8,8,,,,,,,space,0.586589097977,,,,,2017_Feb_01_1409,59.412013842,spr_backupper,001,Di18,
,nan,Weltkriegs.,nan,Materie,nan,nan,nan,nan,nan,den,nan,Landkreis.,nan,nan,Weltkriegs.,nan,nan,Materie,nan,nan,nan,nan,nan,nan,nan,nan,nan,nan,nan,nan,fit.,nan,nan,nan,nan,nan,nan,nan,nan,geschafft.,nan,nicht,nan,nan,regnete.,nan,nan,nan,heiße,nan,Landkreis.,nan,nan,nan,nan,nan,her.,nan,nan,nan,nan,nan,nan,nan,nan,haben.,nan,auf,nan,nan,nan,geschafft.,nan,nan,nan,nan,Sprüche.,nan,her.,heißer,Sprüche.,auf,nan,den,nan,nan,nan,nan,nan,nan,nan,nan,nan,nan,nan,nan,nan,gelesen.,,,,,,,,,,,,,,,,,,,,,,,5,0,5,0,0,9,9,9,,,,,,,space,0.771598100662,,,,,2017_Feb_01_1409,59.412013842,spr_backupper,001,Di18,
,nan,nan,nan,erzeugen.,nan,nan,nan,nan,nan,See.,nan,nan,nan,nan,nan,nan,nan,erzeugen.,nan,nan,nan,nan,nan,nan,nan,nan,nan,nan,nan,nan,nan,nan,nan,nan,nan,nan,nan,nan,nan,nan,nan,wirkt.,nan,nan,nan,nan,nan,nan,Luft.,nan,nan,nan,nan,nan,nan,nan,nan,nan,nan,nan,nan,nan,nan,nan,nan,nan,nan,dem,nan,nan,nan,nan,nan,nan,nan,nan,nan,nan,nan,Luft.,nan,dem,nan,See.,nan,nan,nan,nan,nan,nan,nan,nan,nan,nan,nan,nan,nan,nan,,,,,,,,,,,,,,,,,,,,,,,5,0,5,0,0,10,10,10,,,,,,,space,1.92972993851,,,,,2017_Feb_01_1409,59.412013842,spr_backupper,001,Di18,
,,,,,,,,,,,,,,,,,,,,,,,,,,,,,,,,,,,,,,,,,,,,,,,,,,,,,,,,,,,,,,,,,,,,,,,,,,,,,,,,,,,,,,,,,,,,,,,,,,,,,,,,,,,,,,,,,,,,,,,,,5,0,5,0,,,,,,,,,,,,,None,j,2.23012709618,,2017_Feb_01_1409,59.412013842,spr_backupper,001,Di18,
,Viele,Bei,Die,Mit,Es,Jungtiere,100,Im,Außer,Ich,Wir,In,Die,Die,Bei,Die,Außer,Mit,Es,Wir,Die,Sie,Die,Dort,Wir,Die,In,Die,Die,Im,Ich,Sie,Die,Viele,Die,In,Dort,Die,Alle,Wir,Wir,In,Die,Es,Es,Wir,Die,Die,Man,Am,In,Nicht,Die,Danach,Es,Als,Er,Beträchtliche,Außer,Das,Am,Nicht,Die,Jugendliche,In,Die,Der,Bei,Manche,Beträchtliche,Fernab,Wir,Wir,Ihr,Dass,In,Sie,Jetzt,Er,Man,Sie,Bei,Die,Ich,Wir,100,Sie,Er,Sie,Er,Unter,Die,Er,Die,Außer,Walter,Sie,In,,,,,,,,,,,,,,,,,,,,,,,6,0,6,0,0,0,0,0,,,,,,space,space,0.387710809708,,,,1.03897190094,2017_Feb_01_1409,59.412013842,spr_backupper,001,Di18,
,Tonnen,der,Autos,dieser,waren,sollten,g,Fernrohr,dem,nehme,konnten,der,Formen,Linie,der,Gäste,das,dieser,wurden,mussten,"Uhr,",verlassen,müden,türmen,übergaben,Uhr,diesem,Schule,Schuhe,Fernrohr,wurde,verbrauchen,Kinder,Tonnen,Lösung,den,türmen,Gäste,Betten,haben,hatten,einer,Teilnehmerinnen,wurden,hat,mussten,Schule,Uhr,machte,äußeren,der,ein,Uhr,wurde,waren,die,stellt,Stücke,den,Tuch,äußersten,ein,Stücke,können,den,Schuhe,Flug,unserer,Kreditnehmer,Stücke,des,haben,hatten,Blutdruck,es,meinem,hatte,ist,stellt,machte,hatte,unserer,Autos,nehme,übergaben,g,verlassen,wurde,haben,hat,keinen,Eislaufbahnen,wurde,Kinder,dem,Scheel,verbrauchen,meinem,,,,,,,,,,,,,,,,,,,,,,,6,0,6,0,0,1,1,1,,,,,,,space,0.772207021713,,,,,2017_Feb_01_1409,59.412013842,spr_backupper,001,Di18,
,gebrauchte,Feier,beider,Methode,nur,immer,brauner,sahen,Essen,eine,dann,Tat,wurden,101,Feier,suchen,Essen,Methode,Eimer,uns,die,wegen,Teilnehmer,sich,das,schlug,Zirkus,verbraucht,in,sahen,damals,60,fuhren,gebrauchter,wird,Kakao,sich,suchen,wurden,jede,in,Studie,wussten,Eimer,uns,uns,verbraucht,schlug,mal,Rand,Tat,Tropfen,war,die,nur,Sonne,die,saftiges,Bürgermeister,wurde,Rand,Tropfen,wurden,Kleidung,Kakao,in,zum,Ankunft,sind,saftigen,Rummels,jede,in,kann,"regnete,",Studium,keine,genau,die,mal,keine,Ankunft,beider,eine,dem,braunen,wegen,trotz,die,ein,Umständen,wurden,trotz,fuhren,Bürgermeister,war,60,Studium,,,,,,,,,,,,,,,,,,,,,,,6,0,6,0,0,2,2,2,,,,,,,space,0.768744945526,,,,,2017_Feb_01_1409,59.412013842,spr_backupper,001,Di18,
,Kleidung,gedachte,beteiligten,kann,kleinere,auf,Zucker,wir,kann,große,mit,wissen,unter,hält,gedachte,die,kann,kann,rote,durch,er,des,wurden,Berge,Auto,"sporadisch,",werden,260.000,Größe,wir,schnell,Liter,mit,Kleidung,mit,gehören,Berge,die,mit,Menge,Dänemark,wurde,überwiegend,roter,die,durch,260.000,"sporadisch,",wieder,der,wissen,königliches,aus,Leinwand,kleinere,"unterging,",Masse,Fleisch,beschuldigten,dann,der,königlichen,aus,bei,gehören,Größe,Mond,stand,mit,Fleischs,wurde,Menge,Dänemark,schon,hat,las,Lust,die,Masse,wieder,Lust,stand,beteiligter,große,Mann,Zuckers,dem,dem,Erlebnisse,Hemd,können,mit,des,mit,beschuldigten,der,Liter,habe,,,,,,,,,,,,,,,,,,,,,,,6,0,6,0,0,3,3,3,,,,,,,space,0.7047290802,,,,,2017_Feb_01_1409,59.412013842,spr_backupper,001,Di18,
,landen,man,Fahrer,man,"Delikte,",warmem,sind,den,ich,Packung,"minimalem,",wir,"regelmäßigem,",nicht,man,Wohnung,ich,man,Farbe,Büschel,"trug,",schönen,mit,schmutziger,dem,obwohl,die,Kilowattstunden,36,den,dank,sprudelndes,solch,landen,"reichlichem,",immer,schmutzige,Wohnung,"üblichem,",alten,einen,jetzt,"nicht,",Farbe,Stimmung,Büschel,Kilowattstunden,obschon,viel,Stadt,wir,Blut,"Japan,",aus,"Delikte,",war,mit,wurden,die,mit,Stadt,Bluts,"wertvollem,",ausreichendem,immer,36,dauerte,ein,"sämtlichem,",wurden,schon,alten,gelegentlich,bei,uns,ich,auf,richtige,mit,viel,auf,ein,Fahrer,Packung,das,sind,schönen,bekannten,bei,aus,Neuwahlen,dauerhaftem,bekannten,solchen,die,vierte,sprudelnden,ich,,,,,,,,,,,,,,,,,,,,,,,6,0,6,0,0,4,4,4,,,,,,,space,0.805895090103,,,,,2017_Feb_01_1409,59.412013842,spr_backupper,001,Di18,
,im,der,wurden,eine,derer,weichem,auf,roten,leider,salziger,sauberen,von,kaltem,am,den,des,leider,eine,geschleudert.,frischen,war,Wetters,zusätzlichem,Wäsche.,Mann,sie,Tiere,elektrischer,hätten,roten,täglichem,Trinkwasser.,unzureichenden,im,purem,350,Wäsche.,des,harten,Kram,gelegentlichen,"nachgewiesen,",was,geschleudert.,ziemlich,frisches,elektrische,sie,Lärm,liegen,um,hat,die,seltenem,deren,die,einem,serviert.,Störenfriede,"reichem,",liegen,hat,klassischen,monatlichem,350,würden,ungefähr,Glas,künftigem,serviert.,immer,Krams,einen,minimalem,die,mehr,noch,"Zeit,",einem,Lärm,noch,Glas,wurden,salzige,Auto,auf,Wetter,Skandal,"frischem,",feinem,vor,feinem,Skandals,unzureichenden,Störenfriede,Bundespräsident.,Trinkwassers.,mehr,,,,,,,,,,,,,,,,,,,,,,,6,0,6,0,0,5,5,5,,,,,,,space,0.749459028244,,,,,2017_Feb_01_1409,59.412013842,spr_backupper,001,Di18,
,Müll.,Soldaten,verschrottet.,große,sie,Untergrund,jeden,Planeten,nichts,Wurst,Kraftstoff,den,Abduschen,Hauptbahnhof.,Soldaten,Herrn,nichts,große,nan,Grases,aus,die,schwarzem,nan,mehr,defekt,artgerecht,Energie.,seiner,Planet,grünen,nan,Helmen,Müll.,Alkohol,ml,nan,Herrn,Schaumstoff,aus,Besucher.,dass,Tupperware,nan,"vermiest,",Gras,Energie.,defekt,um,die,die,den,er,dichten,sie,Flut,Esslöffel,nan,jeden.,goldenen,die,den,Schmuck,Taschengeld,ml,seiner,drei,köstlicher,Einkommen,nan,ruhig,aus,Besucher.,täglichen,Stimmung,als,eine,um,Esslöffel,um,eine,köstlichen,verschrottet.,Wurst,mehr,jeden,die,wiedergewählt.,kaltem,dichten,Dezember,Kunsteis,wiedergewählt.,Helmen,jeden.,nan,nan,als,,,,,,,,,,,,,,,,,,,,,,,6,0,6,0,0,6,6,6,,,,,,,space,0.811778068542,,,,,2017_Feb_01_1409,59.412013842,spr_backupper,001,Di18,
,nan,des,nan,Menge,überführt,liegen.,Fall,ganz,mitbringen.,mit,fahren.,Problemen,gehärtet.,nan,des,Gantenbein.,mitbringen.,Menge,nan,zwängen.,Japan.,Wohnung.,Kaffee,nan,als,war.,gehalten.,nan,Frau,ganz,Tee,nan,zur,nan,verdünnt.,warmer,nan,Gantenbeins.,gefertigt.,dem,nan,das,ist.,nan,dass,zwängen.,nan,war.,jede,Slums.,Probleme,Boden,trug.,Gewebe,überführt,zurückgekehrt.,warmem,nan,nan,Besatz,Slums.,Boden,umgearbeitet.,selber,warme,Frau,Tage.,Wein,haftbar.,nan,diskutiert.,dem,nan,Einsatz,ziemlich,einmal,Sammlung,Nadelhölzer,warmen,jede,Sammlung,Weins,nan,mit,als,Fall,Wohnung.,nan,Saft,Stoff,stattfinden.,eingesprüht.,nan,zur,nan,nan,nan,einmal,,,,,,,,,,,,,,,,,,,,,,,6,0,6,0,0,7,7,7,,,,,,,space,1.44435477257,,,,,2017_Feb_01_1409,59.412013842,spr_backupper,001,Di18,
,,,,,,,,,,,,,,,,,,,,,,,,,,,,,,,,,,,,,,,,,,,,,,,,,,,,,,,,,,,,,,,,,,,,,,,,,,,,,,,,,,,,,,,,,,,,,,,,,,,,,,,,,,,,,,,,,,,,,,,,,6,0,6,0,,,,,,,,,,,,,None,n,4.2959549427,,2017_Feb_01_1409,59.412013842,spr_backupper,001,Di18,
,Viele,Bei,Die,Mit,Es,Jungtiere,100,Im,Außer,Ich,Wir,In,Die,Die,Bei,Die,Außer,Mit,Es,Wir,Die,Sie,Die,Dort,Wir,Die,In,Die,Die,Im,Ich,Sie,Die,Viele,Die,In,Dort,Die,Alle,Wir,Wir,In,Die,Es,Es,Wir,Die,Die,Man,Am,In,Nicht,Die,Danach,Es,Als,Er,Beträchtliche,Außer,Das,Am,Nicht,Die,Jugendliche,In,Die,Der,Bei,Manche,Beträchtliche,Fernab,Wir,Wir,Ihr,Dass,In,Sie,Jetzt,Er,Man,Sie,Bei,Die,Ich,Wir,100,Sie,Er,Sie,Er,Unter,Die,Er,Die,Außer,Walter,Sie,In,,,,,,,,,,,,,,,,,,,,,,,7,0,7,0,0,0,0,0,,,,,,space,space,0.535353899002,,,,1.27508187294,2017_Feb_01_1409,59.412013842,spr_backupper,001,Di18,
,Tonnen,der,Autos,dieser,waren,sollten,g,Fernrohr,dem,nehme,konnten,der,Formen,Linie,der,Gäste,das,dieser,wurden,mussten,"Uhr,",verlassen,müden,türmen,übergaben,Uhr,diesem,Schule,Schuhe,Fernrohr,wurde,verbrauchen,Kinder,Tonnen,Lösung,den,türmen,Gäste,Betten,haben,hatten,einer,Teilnehmerinnen,wurden,hat,mussten,Schule,Uhr,machte,äußeren,der,ein,Uhr,wurde,waren,die,stellt,Stücke,den,Tuch,äußersten,ein,Stücke,können,den,Schuhe,Flug,unserer,Kreditnehmer,Stücke,des,haben,hatten,Blutdruck,es,meinem,hatte,ist,stellt,machte,hatte,unserer,Autos,nehme,übergaben,g,verlassen,wurde,haben,hat,keinen,Eislaufbahnen,wurde,Kinder,dem,Scheel,verbrauchen,meinem,,,,,,,,,,,,,,,,,,,,,,,7,0,7,0,0,1,1,1,,,,,,,space,0.599023103714,,,,,2017_Feb_01_1409,59.412013842,spr_backupper,001,Di18,
,gebrauchte,Feier,beider,Methode,nur,immer,brauner,sahen,Essen,eine,dann,Tat,wurden,101,Feier,suchen,Essen,Methode,Eimer,uns,die,wegen,Teilnehmer,sich,das,schlug,Zirkus,verbraucht,in,sahen,damals,60,fuhren,gebrauchter,wird,Kakao,sich,suchen,wurden,jede,in,Studie,wussten,Eimer,uns,uns,verbraucht,schlug,mal,Rand,Tat,Tropfen,war,die,nur,Sonne,die,saftiges,Bürgermeister,wurde,Rand,Tropfen,wurden,Kleidung,Kakao,in,zum,Ankunft,sind,saftigen,Rummels,jede,in,kann,"regnete,",Studium,keine,genau,die,mal,keine,Ankunft,beider,eine,dem,braunen,wegen,trotz,die,ein,Umständen,wurden,trotz,fuhren,Bürgermeister,war,60,Studium,,,,,,,,,,,,,,,,,,,,,,,7,0,7,0,0,2,2,2,,,,,,,space,0.62668299675,,,,,2017_Feb_01_1409,59.412013842,spr_backupper,001,Di18,
,Kleidung,gedachte,beteiligten,kann,kleinere,auf,Zucker,wir,kann,große,mit,wissen,unter,hält,gedachte,die,kann,kann,rote,durch,er,des,wurden,Berge,Auto,"sporadisch,",werden,260.000,Größe,wir,schnell,Liter,mit,Kleidung,mit,gehören,Berge,die,mit,Menge,Dänemark,wurde,überwiegend,roter,die,durch,260.000,"sporadisch,",wieder,der,wissen,königliches,aus,Leinwand,kleinere,"unterging,",Masse,Fleisch,beschuldigten,dann,der,königlichen,aus,bei,gehören,Größe,Mond,stand,mit,Fleischs,wurde,Menge,Dänemark,schon,hat,las,Lust,die,Masse,wieder,Lust,stand,beteiligter,große,Mann,Zuckers,dem,dem,Erlebnisse,Hemd,können,mit,des,mit,beschuldigten,der,Liter,habe,,,,,,,,,,,,,,,,,,,,,,,7,0,7,0,0,3,3,3,,,,,,,space,0.53991484642,,,,,2017_Feb_01_1409,59.412013842,spr_backupper,001,Di18,
,landen,man,Fahrer,man,"Delikte,",warmem,sind,den,ich,Packung,"minimalem,",wir,"regelmäßigem,",nicht,man,Wohnung,ich,man,Farbe,Büschel,"trug,",schönen,mit,schmutziger,dem,obwohl,die,Kilowattstunden,36,den,dank,sprudelndes,solch,landen,"reichlichem,",immer,schmutzige,Wohnung,"üblichem,",alten,einen,jetzt,"nicht,",Farbe,Stimmung,Büschel,Kilowattstunden,obschon,viel,Stadt,wir,Blut,"Japan,",aus,"Delikte,",war,mit,wurden,die,mit,Stadt,Bluts,"wertvollem,",ausreichendem,immer,36,dauerte,ein,"sämtlichem,",wurden,schon,alten,gelegentlich,bei,uns,ich,auf,richtige,mit,viel,auf,ein,Fahrer,Packung,das,sind,schönen,bekannten,bei,aus,Neuwahlen,dauerhaftem,bekannten,solchen,die,vierte,sprudelnden,ich,,,,,,,,,,,,,,,,,,,,,,,7,0,7,0,0,4,4,4,,,,,,,space,0.638523101807,,,,,2017_Feb_01_1409,59.412013842,spr_backupper,001,Di18,
,im,der,wurden,eine,derer,weichem,auf,roten,leider,salziger,sauberen,von,kaltem,am,den,des,leider,eine,geschleudert.,frischen,war,Wetters,zusätzlichem,Wäsche.,Mann,sie,Tiere,elektrischer,hätten,roten,täglichem,Trinkwasser.,unzureichenden,im,purem,350,Wäsche.,des,harten,Kram,gelegentlichen,"nachgewiesen,",was,geschleudert.,ziemlich,frisches,elektrische,sie,Lärm,liegen,um,hat,die,seltenem,deren,die,einem,serviert.,Störenfriede,"reichem,",liegen,hat,klassischen,monatlichem,350,würden,ungefähr,Glas,künftigem,serviert.,immer,Krams,einen,minimalem,die,mehr,noch,"Zeit,",einem,Lärm,noch,Glas,wurden,salzige,Auto,auf,Wetter,Skandal,"frischem,",feinem,vor,feinem,Skandals,unzureichenden,Störenfriede,Bundespräsident.,Trinkwassers.,mehr,,,,,,,,,,,,,,,,,,,,,,,7,0,7,0,0,5,5,5,,,,,,,space,0.609529018402,,,,,2017_Feb_01_1409,59.412013842,spr_backupper,001,Di18,
,Müll.,Soldaten,verschrottet.,große,sie,Untergrund,jeden,Planeten,nichts,Wurst,Kraftstoff,den,Abduschen,Hauptbahnhof.,Soldaten,Herrn,nichts,große,nan,Grases,aus,die,schwarzem,nan,mehr,defekt,artgerecht,Energie.,seiner,Planet,grünen,nan,Helmen,Müll.,Alkohol,ml,nan,Herrn,Schaumstoff,aus,Besucher.,dass,Tupperware,nan,"vermiest,",Gras,Energie.,defekt,um,die,die,den,er,dichten,sie,Flut,Esslöffel,nan,jeden.,goldenen,die,den,Schmuck,Taschengeld,ml,seiner,drei,köstlicher,Einkommen,nan,ruhig,aus,Besucher.,täglichen,Stimmung,als,eine,um,Esslöffel,um,eine,köstlichen,verschrottet.,Wurst,mehr,jeden,die,wiedergewählt.,kaltem,dichten,Dezember,Kunsteis,wiedergewählt.,Helmen,jeden.,nan,nan,als,,,,,,,,,,,,,,,,,,,,,,,7,0,7,0,0,6,6,6,,,,,,,space,0.570223808289,,,,,2017_Feb_01_1409,59.412013842,spr_backupper,001,Di18,
,,,,,,,,,,,,,,,,,,,,,,,,,,,,,,,,,,,,,,,,,,,,,,,,,,,,,,,,,,,,,,,,,,,,,,,,,,,,,,,,,,,,,,,,,,,,,,,,,,,,,,,,,,,,,,,,,,,,,,,,,7,0,7,0,,,,,,,,,,,,,None,n,1.41173410416,,2017_Feb_01_1409,59.412013842,spr_backupper,001,Di18,
,Viele,Bei,Die,Mit,Es,Jungtiere,100,Im,Außer,Ich,Wir,In,Die,Die,Bei,Die,Außer,Mit,Es,Wir,Die,Sie,Die,Dort,Wir,Die,In,Die,Die,Im,Ich,Sie,Die,Viele,Die,In,Dort,Die,Alle,Wir,Wir,In,Die,Es,Es,Wir,Die,Die,Man,Am,In,Nicht,Die,Danach,Es,Als,Er,Beträchtliche,Außer,Das,Am,Nicht,Die,Jugendliche,In,Die,Der,Bei,Manche,Beträchtliche,Fernab,Wir,Wir,Ihr,Dass,In,Sie,Jetzt,Er,Man,Sie,Bei,Die,Ich,Wir,100,Sie,Er,Sie,Er,Unter,Die,Er,Die,Außer,Walter,Sie,In,,,,,,,,,,,,,,,,,,,,,,,8,0,8,0,0,0,0,0,,,,,,None,space,0.118427038193,,,,,2017_Feb_01_1409,59.412013842,spr_backupper,001,Di18,
,Tonnen,der,Autos,dieser,waren,sollten,g,Fernrohr,dem,nehme,konnten,der,Formen,Linie,der,Gäste,das,dieser,wurden,mussten,"Uhr,",verlassen,müden,türmen,übergaben,Uhr,diesem,Schule,Schuhe,Fernrohr,wurde,verbrauchen,Kinder,Tonnen,Lösung,den,türmen,Gäste,Betten,haben,hatten,einer,Teilnehmerinnen,wurden,hat,mussten,Schule,Uhr,machte,äußeren,der,ein,Uhr,wurde,waren,die,stellt,Stücke,den,Tuch,äußersten,ein,Stücke,können,den,Schuhe,Flug,unserer,Kreditnehmer,Stücke,des,haben,hatten,Blutdruck,es,meinem,hatte,ist,stellt,machte,hatte,unserer,Autos,nehme,übergaben,g,verlassen,wurde,haben,hat,keinen,Eislaufbahnen,wurde,Kinder,dem,Scheel,verbrauchen,meinem,,,,,,,,,,,,,,,,,,,,,,,8,0,8,0,0,1,1,1,,,,,,,space,0.714196205139,,,,,2017_Feb_01_1409,59.412013842,spr_backupper,001,Di18,
,gebrauchte,Feier,beider,Methode,nur,immer,brauner,sahen,Essen,eine,dann,Tat,wurden,101,Feier,suchen,Essen,Methode,Eimer,uns,die,wegen,Teilnehmer,sich,das,schlug,Zirkus,verbraucht,in,sahen,damals,60,fuhren,gebrauchter,wird,Kakao,sich,suchen,wurden,jede,in,Studie,wussten,Eimer,uns,uns,verbraucht,schlug,mal,Rand,Tat,Tropfen,war,die,nur,Sonne,die,saftiges,Bürgermeister,wurde,Rand,Tropfen,wurden,Kleidung,Kakao,in,zum,Ankunft,sind,saftigen,Rummels,jede,in,kann,"regnete,",Studium,keine,genau,die,mal,keine,Ankunft,beider,eine,dem,braunen,wegen,trotz,die,ein,Umständen,wurden,trotz,fuhren,Bürgermeister,war,60,Studium,,,,,,,,,,,,,,,,,,,,,,,8,0,8,0,0,2,2,2,,,,,,,space,0.653023958206,,,,,2017_Feb_01_1409,59.412013842,spr_backupper,001,Di18,
,Kleidung,gedachte,beteiligten,kann,kleinere,auf,Zucker,wir,kann,große,mit,wissen,unter,hält,gedachte,die,kann,kann,rote,durch,er,des,wurden,Berge,Auto,"sporadisch,",werden,260.000,Größe,wir,schnell,Liter,mit,Kleidung,mit,gehören,Berge,die,mit,Menge,Dänemark,wurde,überwiegend,roter,die,durch,260.000,"sporadisch,",wieder,der,wissen,königliches,aus,Leinwand,kleinere,"unterging,",Masse,Fleisch,beschuldigten,dann,der,königlichen,aus,bei,gehören,Größe,Mond,stand,mit,Fleischs,wurde,Menge,Dänemark,schon,hat,las,Lust,die,Masse,wieder,Lust,stand,beteiligter,große,Mann,Zuckers,dem,dem,Erlebnisse,Hemd,können,mit,des,mit,beschuldigten,der,Liter,habe,,,,,,,,,,,,,,,,,,,,,,,8,0,8,0,0,3,3,3,,,,,,,space,0.75372505188,,,,,2017_Feb_01_1409,59.412013842,spr_backupper,001,Di18,
,landen,man,Fahrer,man,"Delikte,",warmem,sind,den,ich,Packung,"minimalem,",wir,"regelmäßigem,",nicht,man,Wohnung,ich,man,Farbe,Büschel,"trug,",schönen,mit,schmutziger,dem,obwohl,die,Kilowattstunden,36,den,dank,sprudelndes,solch,landen,"reichlichem,",immer,schmutzige,Wohnung,"üblichem,",alten,einen,jetzt,"nicht,",Farbe,Stimmung,Büschel,Kilowattstunden,obschon,viel,Stadt,wir,Blut,"Japan,",aus,"Delikte,",war,mit,wurden,die,mit,Stadt,Bluts,"wertvollem,",ausreichendem,immer,36,dauerte,ein,"sämtlichem,",wurden,schon,alten,gelegentlich,bei,uns,ich,auf,richtige,mit,viel,auf,ein,Fahrer,Packung,das,sind,schönen,bekannten,bei,aus,Neuwahlen,dauerhaftem,bekannten,solchen,die,vierte,sprudelnden,ich,,,,,,,,,,,,,,,,,,,,,,,8,0,8,0,0,4,4,4,,,,,,,space,0.686075925827,,,,,2017_Feb_01_1409,59.412013842,spr_backupper,001,Di18,
,im,der,wurden,eine,derer,weichem,auf,roten,leider,salziger,sauberen,von,kaltem,am,den,des,leider,eine,geschleudert.,frischen,war,Wetters,zusätzlichem,Wäsche.,Mann,sie,Tiere,elektrischer,hätten,roten,täglichem,Trinkwasser.,unzureichenden,im,purem,350,Wäsche.,des,harten,Kram,gelegentlichen,"nachgewiesen,",was,geschleudert.,ziemlich,frisches,elektrische,sie,Lärm,liegen,um,hat,die,seltenem,deren,die,einem,serviert.,Störenfriede,"reichem,",liegen,hat,klassischen,monatlichem,350,würden,ungefähr,Glas,künftigem,serviert.,immer,Krams,einen,minimalem,die,mehr,noch,"Zeit,",einem,Lärm,noch,Glas,wurden,salzige,Auto,auf,Wetter,Skandal,"frischem,",feinem,vor,feinem,Skandals,unzureichenden,Störenfriede,Bundespräsident.,Trinkwassers.,mehr,,,,,,,,,,,,,,,,,,,,,,,8,0,8,0,0,5,5,5,,,,,,,space,0.72899389267,,,,,2017_Feb_01_1409,59.412013842,spr_backupper,001,Di18,
,Müll.,Soldaten,verschrottet.,große,sie,Untergrund,jeden,Planeten,nichts,Wurst,Kraftstoff,den,Abduschen,Hauptbahnhof.,Soldaten,Herrn,nichts,große,nan,Grases,aus,die,schwarzem,nan,mehr,defekt,artgerecht,Energie.,seiner,Planet,grünen,nan,Helmen,Müll.,Alkohol,ml,nan,Herrn,Schaumstoff,aus,Besucher.,dass,Tupperware,nan,"vermiest,",Gras,Energie.,defekt,um,die,die,den,er,dichten,sie,Flut,Esslöffel,nan,jeden.,goldenen,die,den,Schmuck,Taschengeld,ml,seiner,drei,köstlicher,Einkommen,nan,ruhig,aus,Besucher.,täglichen,Stimmung,als,eine,um,Esslöffel,um,eine,köstlichen,verschrottet.,Wurst,mehr,jeden,die,wiedergewählt.,kaltem,dichten,Dezember,Kunsteis,wiedergewählt.,Helmen,jeden.,nan,nan,als,,,,,,,,,,,,,,,,,,,,,,,8,0,8,0,0,6,6,6,,,,,,,space,0.753813028336,,,,,2017_Feb_01_1409,59.412013842,spr_backupper,001,Di18,
,nan,des,nan,Menge,überführt,liegen.,Fall,ganz,mitbringen.,mit,fahren.,Problemen,gehärtet.,nan,des,Gantenbein.,mitbringen.,Menge,nan,zwängen.,Japan.,Wohnung.,Kaffee,nan,als,war.,gehalten.,nan,Frau,ganz,Tee,nan,zur,nan,verdünnt.,warmer,nan,Gantenbeins.,gefertigt.,dem,nan,das,ist.,nan,dass,zwängen.,nan,war.,jede,Slums.,Probleme,Boden,trug.,Gewebe,überführt,zurückgekehrt.,warmem,nan,nan,Besatz,Slums.,Boden,umgearbeitet.,selber,warme,Frau,Tage.,Wein,haftbar.,nan,diskutiert.,dem,nan,Einsatz,ziemlich,einmal,Sammlung,Nadelhölzer,warmen,jede,Sammlung,Weins,nan,mit,als,Fall,Wohnung.,nan,Saft,Stoff,stattfinden.,eingesprüht.,nan,zur,nan,nan,nan,einmal,,,,,,,,,,,,,,,,,,,,,,,8,0,8,0,0,7,7,7,,,,,,,space,0.72215294838,,,,,2017_Feb_01_1409,59.412013842,spr_backupper,001,Di18,
,nan,zweiten,nan,dunkle,wurden.,nan,genug.,deutlich.,nan,an,nan,im,nan,nan,zweiten,nan,nan,dunkler,nan,nan,nan,nan,wiederbelebt.,nan,gerne.,nan,nan,nan,gepasst.,deutlich.,wieder,nan,Schule.,nan,nan,Milch.,nan,nan,nan,Haus,nan,Medikament,nan,nan,es,nan,nan,nan,Menge,nan,im,berührt.,nan,wiederhergestellt.,wurden.,nan,Honig,nan,nan,rekonstruiert.,nan,berührt.,nan,kaufen.,Milch.,gepasst,nan,schon,nan,nan,nan,Haus,nan,sinken.,vermiest.,Rilke.,dummer,umzusetzen.,Honigs,Menge,dumme,schon,nan,an,gerne.,genug.,nan,nan,besprochen.,gefertigt.,nan,nan,nan,Schule.,nan,nan,nan,Rilke,,,,,,,,,,,,,,,,,,,,,,,8,0,8,0,0,8,8,8,,,,,,,space,0.801270961761,,,,,2017_Feb_01_1409,59.412013842,spr_backupper,001,Di18,
,nan,Weltkriegs.,nan,Materie,nan,nan,nan,nan,nan,den,nan,Landkreis.,nan,nan,Weltkriegs.,nan,nan,Materie,nan,nan,nan,nan,nan,nan,nan,nan,nan,nan,nan,nan,fit.,nan,nan,nan,nan,nan,nan,nan,nan,geschafft.,nan,nicht,nan,nan,regnete.,nan,nan,nan,heiße,nan,Landkreis.,nan,nan,nan,nan,nan,her.,nan,nan,nan,nan,nan,nan,nan,nan,haben.,nan,auf,nan,nan,nan,geschafft.,nan,nan,nan,nan,Sprüche.,nan,her.,heißer,Sprüche.,auf,nan,den,nan,nan,nan,nan,nan,nan,nan,nan,nan,nan,nan,nan,nan,gelesen.,,,,,,,,,,,,,,,,,,,,,,,8,0,8,0,0,9,9,9,,,,,,,space,1.49347186089,,,,,2017_Feb_01_1409,59.412013842,spr_backupper,001,Di18,
,,,,,,,,,,,,,,,,,,,,,,,,,,,,,,,,,,,,,,,,,,,,,,,,,,,,,,,,,,,,,,,,,,,,,,,,,,,,,,,,,,,,,,,,,,,,,,,,,,,,,,,,,,,,,,,,,,,,,,,,,8,0,8,0,,,,,,,,,,,,,None,j,2.23192691803,,2017_Feb_01_1409,59.412013842,spr_backupper,001,Di18,
,Viele,Bei,Die,Mit,Es,Jungtiere,100,Im,Außer,Ich,Wir,In,Die,Die,Bei,Die,Außer,Mit,Es,Wir,Die,Sie,Die,Dort,Wir,Die,In,Die,Die,Im,Ich,Sie,Die,Viele,Die,In,Dort,Die,Alle,Wir,Wir,In,Die,Es,Es,Wir,Die,Die,Man,Am,In,Nicht,Die,Danach,Es,Als,Er,Beträchtliche,Außer,Das,Am,Nicht,Die,Jugendliche,In,Die,Der,Bei,Manche,Beträchtliche,Fernab,Wir,Wir,Ihr,Dass,In,Sie,Jetzt,Er,Man,Sie,Bei,Die,Ich,Wir,100,Sie,Er,Sie,Er,Unter,Die,Er,Die,Außer,Walter,Sie,In,,,,,,,,,,,,,,,,,,,,,,,9,0,9,0,0,0,0,0,,,,,,space,space,1.39240384102,,,,1.04012393951,2017_Feb_01_1409,59.412013842,spr_backupper,001,Di18,
,Tonnen,der,Autos,dieser,waren,sollten,g,Fernrohr,dem,nehme,konnten,der,Formen,Linie,der,Gäste,das,dieser,wurden,mussten,"Uhr,",verlassen,müden,türmen,übergaben,Uhr,diesem,Schule,Schuhe,Fernrohr,wurde,verbrauchen,Kinder,Tonnen,Lösung,den,türmen,Gäste,Betten,haben,hatten,einer,Teilnehmerinnen,wurden,hat,mussten,Schule,Uhr,machte,äußeren,der,ein,Uhr,wurde,waren,die,stellt,Stücke,den,Tuch,äußersten,ein,Stücke,können,den,Schuhe,Flug,unserer,Kreditnehmer,Stücke,des,haben,hatten,Blutdruck,es,meinem,hatte,ist,stellt,machte,hatte,unserer,Autos,nehme,übergaben,g,verlassen,wurde,haben,hat,keinen,Eislaufbahnen,wurde,Kinder,dem,Scheel,verbrauchen,meinem,,,,,,,,,,,,,,,,,,,,,,,9,0,9,0,0,1,1,1,,,,,,,space,1.69833803177,,,,,2017_Feb_01_1409,59.412013842,spr_backupper,001,Di18,
,gebrauchte,Feier,beider,Methode,nur,immer,brauner,sahen,Essen,eine,dann,Tat,wurden,101,Feier,suchen,Essen,Methode,Eimer,uns,die,wegen,Teilnehmer,sich,das,schlug,Zirkus,verbraucht,in,sahen,damals,60,fuhren,gebrauchter,wird,Kakao,sich,suchen,wurden,jede,in,Studie,wussten,Eimer,uns,uns,verbraucht,schlug,mal,Rand,Tat,Tropfen,war,die,nur,Sonne,die,saftiges,Bürgermeister,wurde,Rand,Tropfen,wurden,Kleidung,Kakao,in,zum,Ankunft,sind,saftigen,Rummels,jede,in,kann,"regnete,",Studium,keine,genau,die,mal,keine,Ankunft,beider,eine,dem,braunen,wegen,trotz,die,ein,Umständen,wurden,trotz,fuhren,Bürgermeister,war,60,Studium,,,,,,,,,,,,,,,,,,,,,,,9,0,9,0,0,2,2,2,,,,,,,space,0.999182939529,,,,,2017_Feb_01_1409,59.412013842,spr_backupper,001,Di18,
,Kleidung,gedachte,beteiligten,kann,kleinere,auf,Zucker,wir,kann,große,mit,wissen,unter,hält,gedachte,die,kann,kann,rote,durch,er,des,wurden,Berge,Auto,"sporadisch,",werden,260.000,Größe,wir,schnell,Liter,mit,Kleidung,mit,gehören,Berge,die,mit,Menge,Dänemark,wurde,überwiegend,roter,die,durch,260.000,"sporadisch,",wieder,der,wissen,königliches,aus,Leinwand,kleinere,"unterging,",Masse,Fleisch,beschuldigten,dann,der,königlichen,aus,bei,gehören,Größe,Mond,stand,mit,Fleischs,wurde,Menge,Dänemark,schon,hat,las,Lust,die,Masse,wieder,Lust,stand,beteiligter,große,Mann,Zuckers,dem,dem,Erlebnisse,Hemd,können,mit,des,mit,beschuldigten,der,Liter,habe,,,,,,,,,,,,,,,,,,,,,,,9,0,9,0,0,3,3,3,,,,,,,space,0.957082986832,,,,,2017_Feb_01_1409,59.412013842,spr_backupper,001,Di18,
,landen,man,Fahrer,man,"Delikte,",warmem,sind,den,ich,Packung,"minimalem,",wir,"regelmäßigem,",nicht,man,Wohnung,ich,man,Farbe,Büschel,"trug,",schönen,mit,schmutziger,dem,obwohl,die,Kilowattstunden,36,den,dank,sprudelndes,solch,landen,"reichlichem,",immer,schmutzige,Wohnung,"üblichem,",alten,einen,jetzt,"nicht,",Farbe,Stimmung,Büschel,Kilowattstunden,obschon,viel,Stadt,wir,Blut,"Japan,",aus,"Delikte,",war,mit,wurden,die,mit,Stadt,Bluts,"wertvollem,",ausreichendem,immer,36,dauerte,ein,"sämtlichem,",wurden,schon,alten,gelegentlich,bei,uns,ich,auf,richtige,mit,viel,auf,ein,Fahrer,Packung,das,sind,schönen,bekannten,bei,aus,Neuwahlen,dauerhaftem,bekannten,solchen,die,vierte,sprudelnden,ich,,,,,,,,,,,,,,,,,,,,,,,9,0,9,0,0,4,4,4,,,,,,,space,1.21101117134,,,,,2017_Feb_01_1409,59.412013842,spr_backupper,001,Di18,
,im,der,wurden,eine,derer,weichem,auf,roten,leider,salziger,sauberen,von,kaltem,am,den,des,leider,eine,geschleudert.,frischen,war,Wetters,zusätzlichem,Wäsche.,Mann,sie,Tiere,elektrischer,hätten,roten,täglichem,Trinkwasser.,unzureichenden,im,purem,350,Wäsche.,des,harten,Kram,gelegentlichen,"nachgewiesen,",was,geschleudert.,ziemlich,frisches,elektrische,sie,Lärm,liegen,um,hat,die,seltenem,deren,die,einem,serviert.,Störenfriede,"reichem,",liegen,hat,klassischen,monatlichem,350,würden,ungefähr,Glas,künftigem,serviert.,immer,Krams,einen,minimalem,die,mehr,noch,"Zeit,",einem,Lärm,noch,Glas,wurden,salzige,Auto,auf,Wetter,Skandal,"frischem,",feinem,vor,feinem,Skandals,unzureichenden,Störenfriede,Bundespräsident.,Trinkwassers.,mehr,,,,,,,,,,,,,,,,,,,,,,,9,0,9,0,0,5,5,5,,,,,,,space,1.07199287415,,,,,2017_Feb_01_1409,59.412013842,spr_backupper,001,Di18,
,,,,,,,,,,,,,,,,,,,,,,,,,,,,,,,,,,,,,,,,,,,,,,,,,,,,,,,,,,,,,,,,,,,,,,,,,,,,,,,,,,,,,,,,,,,,,,,,,,,,,,,,,,,,,,,,,,,,,,,,,9,0,9,0,,,,,,,,,,,,,None,n,1.98289489746,,2017_Feb_01_1409,59.412013842,spr_backupper,001,Di18,
,Viele,Bei,Die,Mit,Es,Jungtiere,100,Im,Außer,Ich,Wir,In,Die,Die,Bei,Die,Außer,Mit,Es,Wir,Die,Sie,Die,Dort,Wir,Die,In,Die,Die,Im,Ich,Sie,Die,Viele,Die,In,Dort,Die,Alle,Wir,Wir,In,Die,Es,Es,Wir,Die,Die,Man,Am,In,Nicht,Die,Danach,Es,Als,Er,Beträchtliche,Außer,Das,Am,Nicht,Die,Jugendliche,In,Die,Der,Bei,Manche,Beträchtliche,Fernab,Wir,Wir,Ihr,Dass,In,Sie,Jetzt,Er,Man,Sie,Bei,Die,Ich,Wir,100,Sie,Er,Sie,Er,Unter,Die,Er,Die,Außer,Walter,Sie,In,,,,,,,,,,,,,,,,,,,,,,,10,0,10,0,0,0,0,0,,,,,,None,space,1.65232491493,,,,,2017_Feb_01_1409,59.412013842,spr_backupper,001,Di18,
,Tonnen,der,Autos,dieser,waren,sollten,g,Fernrohr,dem,nehme,konnten,der,Formen,Linie,der,Gäste,das,dieser,wurden,mussten,"Uhr,",verlassen,müden,türmen,übergaben,Uhr,diesem,Schule,Schuhe,Fernrohr,wurde,verbrauchen,Kinder,Tonnen,Lösung,den,türmen,Gäste,Betten,haben,hatten,einer,Teilnehmerinnen,wurden,hat,mussten,Schule,Uhr,machte,äußeren,der,ein,Uhr,wurde,waren,die,stellt,Stücke,den,Tuch,äußersten,ein,Stücke,können,den,Schuhe,Flug,unserer,Kreditnehmer,Stücke,des,haben,hatten,Blutdruck,es,meinem,hatte,ist,stellt,machte,hatte,unserer,Autos,nehme,übergaben,g,verlassen,wurde,haben,hat,keinen,Eislaufbahnen,wurde,Kinder,dem,Scheel,verbrauchen,meinem,,,,,,,,,,,,,,,,,,,,,,,10,0,10,0,0,1,1,1,,,,,,,space,0.709125995636,,,,,2017_Feb_01_1409,59.412013842,spr_backupper,001,Di18,
,gebrauchte,Feier,beider,Methode,nur,immer,brauner,sahen,Essen,eine,dann,Tat,wurden,101,Feier,suchen,Essen,Methode,Eimer,uns,die,wegen,Teilnehmer,sich,das,schlug,Zirkus,verbraucht,in,sahen,damals,60,fuhren,gebrauchter,wird,Kakao,sich,suchen,wurden,jede,in,Studie,wussten,Eimer,uns,uns,verbraucht,schlug,mal,Rand,Tat,Tropfen,war,die,nur,Sonne,die,saftiges,Bürgermeister,wurde,Rand,Tropfen,wurden,Kleidung,Kakao,in,zum,Ankunft,sind,saftigen,Rummels,jede,in,kann,"regnete,",Studium,keine,genau,die,mal,keine,Ankunft,beider,eine,dem,braunen,wegen,trotz,die,ein,Umständen,wurden,trotz,fuhren,Bürgermeister,war,60,Studium,,,,,,,,,,,,,,,,,,,,,,,10,0,10,0,0,2,2,2,,,,,,,space,0.770985841751,,,,,2017_Feb_01_1409,59.412013842,spr_backupper,001,Di18,
,Kleidung,gedachte,beteiligten,kann,kleinere,auf,Zucker,wir,kann,große,mit,wissen,unter,hält,gedachte,die,kann,kann,rote,durch,er,des,wurden,Berge,Auto,"sporadisch,",werden,260.000,Größe,wir,schnell,Liter,mit,Kleidung,mit,gehören,Berge,die,mit,Menge,Dänemark,wurde,überwiegend,roter,die,durch,260.000,"sporadisch,",wieder,der,wissen,königliches,aus,Leinwand,kleinere,"unterging,",Masse,Fleisch,beschuldigten,dann,der,königlichen,aus,bei,gehören,Größe,Mond,stand,mit,Fleischs,wurde,Menge,Dänemark,schon,hat,las,Lust,die,Masse,wieder,Lust,stand,beteiligter,große,Mann,Zuckers,dem,dem,Erlebnisse,Hemd,können,mit,des,mit,beschuldigten,der,Liter,habe,,,,,,,,,,,,,,,,,,,,,,,10,0,10,0,0,3,3,3,,,,,,,space,0.85609793663,,,,,2017_Feb_01_1409,59.412013842,spr_backupper,001,Di18,
,landen,man,Fahrer,man,"Delikte,",warmem,sind,den,ich,Packung,"minimalem,",wir,"regelmäßigem,",nicht,man,Wohnung,ich,man,Farbe,Büschel,"trug,",schönen,mit,schmutziger,dem,obwohl,die,Kilowattstunden,36,den,dank,sprudelndes,solch,landen,"reichlichem,",immer,schmutzige,Wohnung,"üblichem,",alten,einen,jetzt,"nicht,",Farbe,Stimmung,Büschel,Kilowattstunden,obschon,viel,Stadt,wir,Blut,"Japan,",aus,"Delikte,",war,mit,wurden,die,mit,Stadt,Bluts,"wertvollem,",ausreichendem,immer,36,dauerte,ein,"sämtlichem,",wurden,schon,alten,gelegentlich,bei,uns,ich,auf,richtige,mit,viel,auf,ein,Fahrer,Packung,das,sind,schönen,bekannten,bei,aus,Neuwahlen,dauerhaftem,bekannten,solchen,die,vierte,sprudelnden,ich,,,,,,,,,,,,,,,,,,,,,,,10,0,10,0,0,4,4,4,,,,,,,space,0.989775896072,,,,,2017_Feb_01_1409,59.412013842,spr_backupper,001,Di18,
,im,der,wurden,eine,derer,weichem,auf,roten,leider,salziger,sauberen,von,kaltem,am,den,des,leider,eine,geschleudert.,frischen,war,Wetters,zusätzlichem,Wäsche.,Mann,sie,Tiere,elektrischer,hätten,roten,täglichem,Trinkwasser.,unzureichenden,im,purem,350,Wäsche.,des,harten,Kram,gelegentlichen,"nachgewiesen,",was,geschleudert.,ziemlich,frisches,elektrische,sie,Lärm,liegen,um,hat,die,seltenem,deren,die,einem,serviert.,Störenfriede,"reichem,",liegen,hat,klassischen,monatlichem,350,würden,ungefähr,Glas,künftigem,serviert.,immer,Krams,einen,minimalem,die,mehr,noch,"Zeit,",einem,Lärm,noch,Glas,wurden,salzige,Auto,auf,Wetter,Skandal,"frischem,",feinem,vor,feinem,Skandals,unzureichenden,Störenfriede,Bundespräsident.,Trinkwassers.,mehr,,,,,,,,,,,,,,,,,,,,,,,10,0,10,0,0,5,5,5,,,,,,,space,0.870585918427,,,,,2017_Feb_01_1409,59.412013842,spr_backupper,001,Di18,
,Müll.,Soldaten,verschrottet.,große,sie,Untergrund,jeden,Planeten,nichts,Wurst,Kraftstoff,den,Abduschen,Hauptbahnhof.,Soldaten,Herrn,nichts,große,nan,Grases,aus,die,schwarzem,nan,mehr,defekt,artgerecht,Energie.,seiner,Planet,grünen,nan,Helmen,Müll.,Alkohol,ml,nan,Herrn,Schaumstoff,aus,Besucher.,dass,Tupperware,nan,"vermiest,",Gras,Energie.,defekt,um,die,die,den,er,dichten,sie,Flut,Esslöffel,nan,jeden.,goldenen,die,den,Schmuck,Taschengeld,ml,seiner,drei,köstlicher,Einkommen,nan,ruhig,aus,Besucher.,täglichen,Stimmung,als,eine,um,Esslöffel,um,eine,köstlichen,verschrottet.,Wurst,mehr,jeden,die,wiedergewählt.,kaltem,dichten,Dezember,Kunsteis,wiedergewählt.,Helmen,jeden.,nan,nan,als,,,,,,,,,,,,,,,,,,,,,,,10,0,10,0,0,6,6,6,,,,,,,space,0.826515197754,,,,,2017_Feb_01_1409,59.412013842,spr_backupper,001,Di18,
,nan,des,nan,Menge,überführt,liegen.,Fall,ganz,mitbringen.,mit,fahren.,Problemen,gehärtet.,nan,des,Gantenbein.,mitbringen.,Menge,nan,zwängen.,Japan.,Wohnung.,Kaffee,nan,als,war.,gehalten.,nan,Frau,ganz,Tee,nan,zur,nan,verdünnt.,warmer,nan,Gantenbeins.,gefertigt.,dem,nan,das,ist.,nan,dass,zwängen.,nan,war.,jede,Slums.,Probleme,Boden,trug.,Gewebe,überführt,zurückgekehrt.,warmem,nan,nan,Besatz,Slums.,Boden,umgearbeitet.,selber,warme,Frau,Tage.,Wein,haftbar.,nan,diskutiert.,dem,nan,Einsatz,ziemlich,einmal,Sammlung,Nadelhölzer,warmen,jede,Sammlung,Weins,nan,mit,als,Fall,Wohnung.,nan,Saft,Stoff,stattfinden.,eingesprüht.,nan,zur,nan,nan,nan,einmal,,,,,,,,,,,,,,,,,,,,,,,10,0,10,0,0,7,7,7,,,,,,,space,0.956837892532,,,,,2017_Feb_01_1409,59.412013842,spr_backupper,001,Di18,
,nan,zweiten,nan,dunkle,wurden.,nan,genug.,deutlich.,nan,an,nan,im,nan,nan,zweiten,nan,nan,dunkler,nan,nan,nan,nan,wiederbelebt.,nan,gerne.,nan,nan,nan,gepasst.,deutlich.,wieder,nan,Schule.,nan,nan,Milch.,nan,nan,nan,Haus,nan,Medikament,nan,nan,es,nan,nan,nan,Menge,nan,im,berührt.,nan,wiederhergestellt.,wurden.,nan,Honig,nan,nan,rekonstruiert.,nan,berührt.,nan,kaufen.,Milch.,gepasst,nan,schon,nan,nan,nan,Haus,nan,sinken.,vermiest.,Rilke.,dummer,umzusetzen.,Honigs,Menge,dumme,schon,nan,an,gerne.,genug.,nan,nan,besprochen.,gefertigt.,nan,nan,nan,Schule.,nan,nan,nan,Rilke,,,,,,,,,,,,,,,,,,,,,,,10,0,10,0,0,8,8,8,,,,,,,space,0.886141061783,,,,,2017_Feb_01_1409,59.412013842,spr_backupper,001,Di18,
,,,,,,,,,,,,,,,,,,,,,,,,,,,,,,,,,,,,,,,,,,,,,,,,,,,,,,,,,,,,,,,,,,,,,,,,,,,,,,,,,,,,,,,,,,,,,,,,,,,,,,,,,,,,,,,,,,,,,,,,,10,0,10,0,,,,,,,,,,,,,None,n,1.35068392754,,2017_Feb_01_1409,59.412013842,spr_backupper,001,Di18,
,Viele,Bei,Die,Mit,Es,Jungtiere,100,Im,Außer,Ich,Wir,In,Die,Die,Bei,Die,Außer,Mit,Es,Wir,Die,Sie,Die,Dort,Wir,Die,In,Die,Die,Im,Ich,Sie,Die,Viele,Die,In,Dort,Die,Alle,Wir,Wir,In,Die,Es,Es,Wir,Die,Die,Man,Am,In,Nicht,Die,Danach,Es,Als,Er,Beträchtliche,Außer,Das,Am,Nicht,Die,Jugendliche,In,Die,Der,Bei,Manche,Beträchtliche,Fernab,Wir,Wir,Ihr,Dass,In,Sie,Jetzt,Er,Man,Sie,Bei,Die,Ich,Wir,100,Sie,Er,Sie,Er,Unter,Die,Er,Die,Außer,Walter,Sie,In,,,,,,,,,,,,,,,,,,,,,,,11,0,11,0,0,0,0,0,,,,,,space,space,0.353791952133,,,,0.669766187668,2017_Feb_01_1409,59.412013842,spr_backupper,001,Di18,
,Tonnen,der,Autos,dieser,waren,sollten,g,Fernrohr,dem,nehme,konnten,der,Formen,Linie,der,Gäste,das,dieser,wurden,mussten,"Uhr,",verlassen,müden,türmen,übergaben,Uhr,diesem,Schule,Schuhe,Fernrohr,wurde,verbrauchen,Kinder,Tonnen,Lösung,den,türmen,Gäste,Betten,haben,hatten,einer,Teilnehmerinnen,wurden,hat,mussten,Schule,Uhr,machte,äußeren,der,ein,Uhr,wurde,waren,die,stellt,Stücke,den,Tuch,äußersten,ein,Stücke,können,den,Schuhe,Flug,unserer,Kreditnehmer,Stücke,des,haben,hatten,Blutdruck,es,meinem,hatte,ist,stellt,machte,hatte,unserer,Autos,nehme,übergaben,g,verlassen,wurde,haben,hat,keinen,Eislaufbahnen,wurde,Kinder,dem,Scheel,verbrauchen,meinem,,,,,,,,,,,,,,,,,,,,,,,11,0,11,0,0,1,1,1,,,,,,,space,0.637516975403,,,,,2017_Feb_01_1409,59.412013842,spr_backupper,001,Di18,
,gebrauchte,Feier,beider,Methode,nur,immer,brauner,sahen,Essen,eine,dann,Tat,wurden,101,Feier,suchen,Essen,Methode,Eimer,uns,die,wegen,Teilnehmer,sich,das,schlug,Zirkus,verbraucht,in,sahen,damals,60,fuhren,gebrauchter,wird,Kakao,sich,suchen,wurden,jede,in,Studie,wussten,Eimer,uns,uns,verbraucht,schlug,mal,Rand,Tat,Tropfen,war,die,nur,Sonne,die,saftiges,Bürgermeister,wurde,Rand,Tropfen,wurden,Kleidung,Kakao,in,zum,Ankunft,sind,saftigen,Rummels,jede,in,kann,"regnete,",Studium,keine,genau,die,mal,keine,Ankunft,beider,eine,dem,braunen,wegen,trotz,die,ein,Umständen,wurden,trotz,fuhren,Bürgermeister,war,60,Studium,,,,,,,,,,,,,,,,,,,,,,,11,0,11,0,0,2,2,2,,,,,,,space,0.788005828857,,,,,2017_Feb_01_1409,59.412013842,spr_backupper,001,Di18,
,Kleidung,gedachte,beteiligten,kann,kleinere,auf,Zucker,wir,kann,große,mit,wissen,unter,hält,gedachte,die,kann,kann,rote,durch,er,des,wurden,Berge,Auto,"sporadisch,",werden,260.000,Größe,wir,schnell,Liter,mit,Kleidung,mit,gehören,Berge,die,mit,Menge,Dänemark,wurde,überwiegend,roter,die,durch,260.000,"sporadisch,",wieder,der,wissen,königliches,aus,Leinwand,kleinere,"unterging,",Masse,Fleisch,beschuldigten,dann,der,königlichen,aus,bei,gehören,Größe,Mond,stand,mit,Fleischs,wurde,Menge,Dänemark,schon,hat,las,Lust,die,Masse,wieder,Lust,stand,beteiligter,große,Mann,Zuckers,dem,dem,Erlebnisse,Hemd,können,mit,des,mit,beschuldigten,der,Liter,habe,,,,,,,,,,,,,,,,,,,,,,,11,0,11,0,0,3,3,3,,,,,,,space,0.839312076569,,,,,2017_Feb_01_1409,59.412013842,spr_backupper,001,Di18,
,landen,man,Fahrer,man,"Delikte,",warmem,sind,den,ich,Packung,"minimalem,",wir,"regelmäßigem,",nicht,man,Wohnung,ich,man,Farbe,Büschel,"trug,",schönen,mit,schmutziger,dem,obwohl,die,Kilowattstunden,36,den,dank,sprudelndes,solch,landen,"reichlichem,",immer,schmutzige,Wohnung,"üblichem,",alten,einen,jetzt,"nicht,",Farbe,Stimmung,Büschel,Kilowattstunden,obschon,viel,Stadt,wir,Blut,"Japan,",aus,"Delikte,",war,mit,wurden,die,mit,Stadt,Bluts,"wertvollem,",ausreichendem,immer,36,dauerte,ein,"sämtlichem,",wurden,schon,alten,gelegentlich,bei,uns,ich,auf,richtige,mit,viel,auf,ein,Fahrer,Packung,das,sind,schönen,bekannten,bei,aus,Neuwahlen,dauerhaftem,bekannten,solchen,die,vierte,sprudelnden,ich,,,,,,,,,,,,,,,,,,,,,,,11,0,11,0,0,4,4,4,,,,,,,space,0.894836902618,,,,,2017_Feb_01_1409,59.412013842,spr_backupper,001,Di18,
,im,der,wurden,eine,derer,weichem,auf,roten,leider,salziger,sauberen,von,kaltem,am,den,des,leider,eine,geschleudert.,frischen,war,Wetters,zusätzlichem,Wäsche.,Mann,sie,Tiere,elektrischer,hätten,roten,täglichem,Trinkwasser.,unzureichenden,im,purem,350,Wäsche.,des,harten,Kram,gelegentlichen,"nachgewiesen,",was,geschleudert.,ziemlich,frisches,elektrische,sie,Lärm,liegen,um,hat,die,seltenem,deren,die,einem,serviert.,Störenfriede,"reichem,",liegen,hat,klassischen,monatlichem,350,würden,ungefähr,Glas,künftigem,serviert.,immer,Krams,einen,minimalem,die,mehr,noch,"Zeit,",einem,Lärm,noch,Glas,wurden,salzige,Auto,auf,Wetter,Skandal,"frischem,",feinem,vor,feinem,Skandals,unzureichenden,Störenfriede,Bundespräsident.,Trinkwassers.,mehr,,,,,,,,,,,,,,,,,,,,,,,11,0,11,0,0,5,5,5,,,,,,,space,0.811001062393,,,,,2017_Feb_01_1409,59.412013842,spr_backupper,001,Di18,
,Müll.,Soldaten,verschrottet.,große,sie,Untergrund,jeden,Planeten,nichts,Wurst,Kraftstoff,den,Abduschen,Hauptbahnhof.,Soldaten,Herrn,nichts,große,nan,Grases,aus,die,schwarzem,nan,mehr,defekt,artgerecht,Energie.,seiner,Planet,grünen,nan,Helmen,Müll.,Alkohol,ml,nan,Herrn,Schaumstoff,aus,Besucher.,dass,Tupperware,nan,"vermiest,",Gras,Energie.,defekt,um,die,die,den,er,dichten,sie,Flut,Esslöffel,nan,jeden.,goldenen,die,den,Schmuck,Taschengeld,ml,seiner,drei,köstlicher,Einkommen,nan,ruhig,aus,Besucher.,täglichen,Stimmung,als,eine,um,Esslöffel,um,eine,köstlichen,verschrottet.,Wurst,mehr,jeden,die,wiedergewählt.,kaltem,dichten,Dezember,Kunsteis,wiedergewählt.,Helmen,jeden.,nan,nan,als,,,,,,,,,,,,,,,,,,,,,,,11,0,11,0,0,6,6,6,,,,,,,space,0.81089091301,,,,,2017_Feb_01_1409,59.412013842,spr_backupper,001,Di18,
,nan,des,nan,Menge,überführt,liegen.,Fall,ganz,mitbringen.,mit,fahren.,Problemen,gehärtet.,nan,des,Gantenbein.,mitbringen.,Menge,nan,zwängen.,Japan.,Wohnung.,Kaffee,nan,als,war.,gehalten.,nan,Frau,ganz,Tee,nan,zur,nan,verdünnt.,warmer,nan,Gantenbeins.,gefertigt.,dem,nan,das,ist.,nan,dass,zwängen.,nan,war.,jede,Slums.,Probleme,Boden,trug.,Gewebe,überführt,zurückgekehrt.,warmem,nan,nan,Besatz,Slums.,Boden,umgearbeitet.,selber,warme,Frau,Tage.,Wein,haftbar.,nan,diskutiert.,dem,nan,Einsatz,ziemlich,einmal,Sammlung,Nadelhölzer,warmen,jede,Sammlung,Weins,nan,mit,als,Fall,Wohnung.,nan,Saft,Stoff,stattfinden.,eingesprüht.,nan,zur,nan,nan,nan,einmal,,,,,,,,,,,,,,,,,,,,,,,11,0,11,0,0,7,7,7,,,,,,,space,1.32601904869,,,,,2017_Feb_01_1409,59.412013842,spr_backupper,001,Di18,
,,,,,,,,,,,,,,,,,,,,,,,,,,,,,,,,,,,,,,,,,,,,,,,,,,,,,,,,,,,,,,,,,,,,,,,,,,,,,,,,,,,,,,,,,,,,,,,,,,,,,,,,,,,,,,,,,,,,,,,,,11,0,11,0,,,,,,,,,,,,,None,j,1.24159002304,,2017_Feb_01_1409,59.412013842,spr_backupper,001,Di18,
,Viele,Bei,Die,Mit,Es,Jungtiere,100,Im,Außer,Ich,Wir,In,Die,Die,Bei,Die,Außer,Mit,Es,Wir,Die,Sie,Die,Dort,Wir,Die,In,Die,Die,Im,Ich,Sie,Die,Viele,Die,In,Dort,Die,Alle,Wir,Wir,In,Die,Es,Es,Wir,Die,Die,Man,Am,In,Nicht,Die,Danach,Es,Als,Er,Beträchtliche,Außer,Das,Am,Nicht,Die,Jugendliche,In,Die,Der,Bei,Manche,Beträchtliche,Fernab,Wir,Wir,Ihr,Dass,In,Sie,Jetzt,Er,Man,Sie,Bei,Die,Ich,Wir,100,Sie,Er,Sie,Er,Unter,Die,Er,Die,Außer,Walter,Sie,In,,,,,,,,,,,,,,,,,,,,,,,12,0,12,0,0,0,0,0,,,,,,space,space,0.555378913879,,,,1.32489204407,2017_Feb_01_1409,59.412013842,spr_backupper,001,Di18,
,Tonnen,der,Autos,dieser,waren,sollten,g,Fernrohr,dem,nehme,konnten,der,Formen,Linie,der,Gäste,das,dieser,wurden,mussten,"Uhr,",verlassen,müden,türmen,übergaben,Uhr,diesem,Schule,Schuhe,Fernrohr,wurde,verbrauchen,Kinder,Tonnen,Lösung,den,türmen,Gäste,Betten,haben,hatten,einer,Teilnehmerinnen,wurden,hat,mussten,Schule,Uhr,machte,äußeren,der,ein,Uhr,wurde,waren,die,stellt,Stücke,den,Tuch,äußersten,ein,Stücke,können,den,Schuhe,Flug,unserer,Kreditnehmer,Stücke,des,haben,hatten,Blutdruck,es,meinem,hatte,ist,stellt,machte,hatte,unserer,Autos,nehme,übergaben,g,verlassen,wurde,haben,hat,keinen,Eislaufbahnen,wurde,Kinder,dem,Scheel,verbrauchen,meinem,,,,,,,,,,,,,,,,,,,,,,,12,0,12,0,0,1,1,1,,,,,,,space,0.71034693718,,,,,2017_Feb_01_1409,59.412013842,spr_backupper,001,Di18,
,gebrauchte,Feier,beider,Methode,nur,immer,brauner,sahen,Essen,eine,dann,Tat,wurden,101,Feier,suchen,Essen,Methode,Eimer,uns,die,wegen,Teilnehmer,sich,das,schlug,Zirkus,verbraucht,in,sahen,damals,60,fuhren,gebrauchter,wird,Kakao,sich,suchen,wurden,jede,in,Studie,wussten,Eimer,uns,uns,verbraucht,schlug,mal,Rand,Tat,Tropfen,war,die,nur,Sonne,die,saftiges,Bürgermeister,wurde,Rand,Tropfen,wurden,Kleidung,Kakao,in,zum,Ankunft,sind,saftigen,Rummels,jede,in,kann,"regnete,",Studium,keine,genau,die,mal,keine,Ankunft,beider,eine,dem,braunen,wegen,trotz,die,ein,Umständen,wurden,trotz,fuhren,Bürgermeister,war,60,Studium,,,,,,,,,,,,,,,,,,,,,,,12,0,12,0,0,2,2,2,,,,,,,space,0.695968866348,,,,,2017_Feb_01_1409,59.412013842,spr_backupper,001,Di18,
,Kleidung,gedachte,beteiligten,kann,kleinere,auf,Zucker,wir,kann,große,mit,wissen,unter,hält,gedachte,die,kann,kann,rote,durch,er,des,wurden,Berge,Auto,"sporadisch,",werden,260.000,Größe,wir,schnell,Liter,mit,Kleidung,mit,gehören,Berge,die,mit,Menge,Dänemark,wurde,überwiegend,roter,die,durch,260.000,"sporadisch,",wieder,der,wissen,königliches,aus,Leinwand,kleinere,"unterging,",Masse,Fleisch,beschuldigten,dann,der,königlichen,aus,bei,gehören,Größe,Mond,stand,mit,Fleischs,wurde,Menge,Dänemark,schon,hat,las,Lust,die,Masse,wieder,Lust,stand,beteiligter,große,Mann,Zuckers,dem,dem,Erlebnisse,Hemd,können,mit,des,mit,beschuldigten,der,Liter,habe,,,,,,,,,,,,,,,,,,,,,,,12,0,12,0,0,3,3,3,,,,,,,space,0.650163888931,,,,,2017_Feb_01_1409,59.412013842,spr_backupper,001,Di18,
,landen,man,Fahrer,man,"Delikte,",warmem,sind,den,ich,Packung,"minimalem,",wir,"regelmäßigem,",nicht,man,Wohnung,ich,man,Farbe,Büschel,"trug,",schönen,mit,schmutziger,dem,obwohl,die,Kilowattstunden,36,den,dank,sprudelndes,solch,landen,"reichlichem,",immer,schmutzige,Wohnung,"üblichem,",alten,einen,jetzt,"nicht,",Farbe,Stimmung,Büschel,Kilowattstunden,obschon,viel,Stadt,wir,Blut,"Japan,",aus,"Delikte,",war,mit,wurden,die,mit,Stadt,Bluts,"wertvollem,",ausreichendem,immer,36,dauerte,ein,"sämtlichem,",wurden,schon,alten,gelegentlich,bei,uns,ich,auf,richtige,mit,viel,auf,ein,Fahrer,Packung,das,sind,schönen,bekannten,bei,aus,Neuwahlen,dauerhaftem,bekannten,solchen,die,vierte,sprudelnden,ich,,,,,,,,,,,,,,,,,,,,,,,12,0,12,0,0,4,4,4,,,,,,,space,0.744143009186,,,,,2017_Feb_01_1409,59.412013842,spr_backupper,001,Di18,
,im,der,wurden,eine,derer,weichem,auf,roten,leider,salziger,sauberen,von,kaltem,am,den,des,leider,eine,geschleudert.,frischen,war,Wetters,zusätzlichem,Wäsche.,Mann,sie,Tiere,elektrischer,hätten,roten,täglichem,Trinkwasser.,unzureichenden,im,purem,350,Wäsche.,des,harten,Kram,gelegentlichen,"nachgewiesen,",was,geschleudert.,ziemlich,frisches,elektrische,sie,Lärm,liegen,um,hat,die,seltenem,deren,die,einem,serviert.,Störenfriede,"reichem,",liegen,hat,klassischen,monatlichem,350,würden,ungefähr,Glas,künftigem,serviert.,immer,Krams,einen,minimalem,die,mehr,noch,"Zeit,",einem,Lärm,noch,Glas,wurden,salzige,Auto,auf,Wetter,Skandal,"frischem,",feinem,vor,feinem,Skandals,unzureichenden,Störenfriede,Bundespräsident.,Trinkwassers.,mehr,,,,,,,,,,,,,,,,,,,,,,,12,0,12,0,0,5,5,5,,,,,,,space,0.838852882385,,,,,2017_Feb_01_1409,59.412013842,spr_backupper,001,Di18,
,Müll.,Soldaten,verschrottet.,große,sie,Untergrund,jeden,Planeten,nichts,Wurst,Kraftstoff,den,Abduschen,Hauptbahnhof.,Soldaten,Herrn,nichts,große,nan,Grases,aus,die,schwarzem,nan,mehr,defekt,artgerecht,Energie.,seiner,Planet,grünen,nan,Helmen,Müll.,Alkohol,ml,nan,Herrn,Schaumstoff,aus,Besucher.,dass,Tupperware,nan,"vermiest,",Gras,Energie.,defekt,um,die,die,den,er,dichten,sie,Flut,Esslöffel,nan,jeden.,goldenen,die,den,Schmuck,Taschengeld,ml,seiner,drei,köstlicher,Einkommen,nan,ruhig,aus,Besucher.,täglichen,Stimmung,als,eine,um,Esslöffel,um,eine,köstlichen,verschrottet.,Wurst,mehr,jeden,die,wiedergewählt.,kaltem,dichten,Dezember,Kunsteis,wiedergewählt.,Helmen,jeden.,nan,nan,als,,,,,,,,,,,,,,,,,,,,,,,12,0,12,0,0,6,6,6,,,,,,,space,0.753031015396,,,,,2017_Feb_01_1409,59.412013842,spr_backupper,001,Di18,
,nan,des,nan,Menge,überführt,liegen.,Fall,ganz,mitbringen.,mit,fahren.,Problemen,gehärtet.,nan,des,Gantenbein.,mitbringen.,Menge,nan,zwängen.,Japan.,Wohnung.,Kaffee,nan,als,war.,gehalten.,nan,Frau,ganz,Tee,nan,zur,nan,verdünnt.,warmer,nan,Gantenbeins.,gefertigt.,dem,nan,das,ist.,nan,dass,zwängen.,nan,war.,jede,Slums.,Probleme,Boden,trug.,Gewebe,überführt,zurückgekehrt.,warmem,nan,nan,Besatz,Slums.,Boden,umgearbeitet.,selber,warme,Frau,Tage.,Wein,haftbar.,nan,diskutiert.,dem,nan,Einsatz,ziemlich,einmal,Sammlung,Nadelhölzer,warmen,jede,Sammlung,Weins,nan,mit,als,Fall,Wohnung.,nan,Saft,Stoff,stattfinden.,eingesprüht.,nan,zur,nan,nan,nan,einmal,,,,,,,,,,,,,,,,,,,,,,,12,0,12,0,0,7,7,7,,,,,,,space,1.52490496635,,,,,2017_Feb_01_1409,59.412013842,spr_backupper,001,Di18,
,,,,,,,,,,,,,,,,,,,,,,,,,,,,,,,,,,,,,,,,,,,,,,,,,,,,,,,,,,,,,,,,,,,,,,,,,,,,,,,,,,,,,,,,,,,,,,,,,,,,,,,,,,,,,,,,,,,,,,,,,12,0,12,0,,,,,,,,,,,,,None,n,1.35944604874,,2017_Feb_01_1409,59.412013842,spr_backupper,001,Di18,
,Viele,Bei,Die,Mit,Es,Jungtiere,100,Im,Außer,Ich,Wir,In,Die,Die,Bei,Die,Außer,Mit,Es,Wir,Die,Sie,Die,Dort,Wir,Die,In,Die,Die,Im,Ich,Sie,Die,Viele,Die,In,Dort,Die,Alle,Wir,Wir,In,Die,Es,Es,Wir,Die,Die,Man,Am,In,Nicht,Die,Danach,Es,Als,Er,Beträchtliche,Außer,Das,Am,Nicht,Die,Jugendliche,In,Die,Der,Bei,Manche,Beträchtliche,Fernab,Wir,Wir,Ihr,Dass,In,Sie,Jetzt,Er,Man,Sie,Bei,Die,Ich,Wir,100,Sie,Er,Sie,Er,Unter,Die,Er,Die,Außer,Walter,Sie,In,,,,,,,,,,,,,,,,,,,,,,,13,0,13,0,0,0,0,0,,,,,,space,space,0.321448087692,,,,0.553950071335,2017_Feb_01_1409,59.412013842,spr_backupper,001,Di18,
,Tonnen,der,Autos,dieser,waren,sollten,g,Fernrohr,dem,nehme,konnten,der,Formen,Linie,der,Gäste,das,dieser,wurden,mussten,"Uhr,",verlassen,müden,türmen,übergaben,Uhr,diesem,Schule,Schuhe,Fernrohr,wurde,verbrauchen,Kinder,Tonnen,Lösung,den,türmen,Gäste,Betten,haben,hatten,einer,Teilnehmerinnen,wurden,hat,mussten,Schule,Uhr,machte,äußeren,der,ein,Uhr,wurde,waren,die,stellt,Stücke,den,Tuch,äußersten,ein,Stücke,können,den,Schuhe,Flug,unserer,Kreditnehmer,Stücke,des,haben,hatten,Blutdruck,es,meinem,hatte,ist,stellt,machte,hatte,unserer,Autos,nehme,übergaben,g,verlassen,wurde,haben,hat,keinen,Eislaufbahnen,wurde,Kinder,dem,Scheel,verbrauchen,meinem,,,,,,,,,,,,,,,,,,,,,,,13,0,13,0,0,1,1,1,,,,,,,space,0.691861152649,,,,,2017_Feb_01_1409,59.412013842,spr_backupper,001,Di18,
,gebrauchte,Feier,beider,Methode,nur,immer,brauner,sahen,Essen,eine,dann,Tat,wurden,101,Feier,suchen,Essen,Methode,Eimer,uns,die,wegen,Teilnehmer,sich,das,schlug,Zirkus,verbraucht,in,sahen,damals,60,fuhren,gebrauchter,wird,Kakao,sich,suchen,wurden,jede,in,Studie,wussten,Eimer,uns,uns,verbraucht,schlug,mal,Rand,Tat,Tropfen,war,die,nur,Sonne,die,saftiges,Bürgermeister,wurde,Rand,Tropfen,wurden,Kleidung,Kakao,in,zum,Ankunft,sind,saftigen,Rummels,jede,in,kann,"regnete,",Studium,keine,genau,die,mal,keine,Ankunft,beider,eine,dem,braunen,wegen,trotz,die,ein,Umständen,wurden,trotz,fuhren,Bürgermeister,war,60,Studium,,,,,,,,,,,,,,,,,,,,,,,13,0,13,0,0,2,2,2,,,,,,,space,0.822395086288,,,,,2017_Feb_01_1409,59.412013842,spr_backupper,001,Di18,
,Kleidung,gedachte,beteiligten,kann,kleinere,auf,Zucker,wir,kann,große,mit,wissen,unter,hält,gedachte,die,kann,kann,rote,durch,er,des,wurden,Berge,Auto,"sporadisch,",werden,260.000,Größe,wir,schnell,Liter,mit,Kleidung,mit,gehören,Berge,die,mit,Menge,Dänemark,wurde,überwiegend,roter,die,durch,260.000,"sporadisch,",wieder,der,wissen,königliches,aus,Leinwand,kleinere,"unterging,",Masse,Fleisch,beschuldigten,dann,der,königlichen,aus,bei,gehören,Größe,Mond,stand,mit,Fleischs,wurde,Menge,Dänemark,schon,hat,las,Lust,die,Masse,wieder,Lust,stand,beteiligter,große,Mann,Zuckers,dem,dem,Erlebnisse,Hemd,können,mit,des,mit,beschuldigten,der,Liter,habe,,,,,,,,,,,,,,,,,,,,,,,13,0,13,0,0,3,3,3,,,,,,,space,0.770059108734,,,,,2017_Feb_01_1409,59.412013842,spr_backupper,001,Di18,
,landen,man,Fahrer,man,"Delikte,",warmem,sind,den,ich,Packung,"minimalem,",wir,"regelmäßigem,",nicht,man,Wohnung,ich,man,Farbe,Büschel,"trug,",schönen,mit,schmutziger,dem,obwohl,die,Kilowattstunden,36,den,dank,sprudelndes,solch,landen,"reichlichem,",immer,schmutzige,Wohnung,"üblichem,",alten,einen,jetzt,"nicht,",Farbe,Stimmung,Büschel,Kilowattstunden,obschon,viel,Stadt,wir,Blut,"Japan,",aus,"Delikte,",war,mit,wurden,die,mit,Stadt,Bluts,"wertvollem,",ausreichendem,immer,36,dauerte,ein,"sämtlichem,",wurden,schon,alten,gelegentlich,bei,uns,ich,auf,richtige,mit,viel,auf,ein,Fahrer,Packung,das,sind,schönen,bekannten,bei,aus,Neuwahlen,dauerhaftem,bekannten,solchen,die,vierte,sprudelnden,ich,,,,,,,,,,,,,,,,,,,,,,,13,0,13,0,0,4,4,4,,,,,,,space,0.86444401741,,,,,2017_Feb_01_1409,59.412013842,spr_backupper,001,Di18,
,im,der,wurden,eine,derer,weichem,auf,roten,leider,salziger,sauberen,von,kaltem,am,den,des,leider,eine,geschleudert.,frischen,war,Wetters,zusätzlichem,Wäsche.,Mann,sie,Tiere,elektrischer,hätten,roten,täglichem,Trinkwasser.,unzureichenden,im,purem,350,Wäsche.,des,harten,Kram,gelegentlichen,"nachgewiesen,",was,geschleudert.,ziemlich,frisches,elektrische,sie,Lärm,liegen,um,hat,die,seltenem,deren,die,einem,serviert.,Störenfriede,"reichem,",liegen,hat,klassischen,monatlichem,350,würden,ungefähr,Glas,künftigem,serviert.,immer,Krams,einen,minimalem,die,mehr,noch,"Zeit,",einem,Lärm,noch,Glas,wurden,salzige,Auto,auf,Wetter,Skandal,"frischem,",feinem,vor,feinem,Skandals,unzureichenden,Störenfriede,Bundespräsident.,Trinkwassers.,mehr,,,,,,,,,,,,,,,,,,,,,,,13,0,13,0,0,5,5,5,,,,,,,space,0.793476104736,,,,,2017_Feb_01_1409,59.412013842,spr_backupper,001,Di18,
,Müll.,Soldaten,verschrottet.,große,sie,Untergrund,jeden,Planeten,nichts,Wurst,Kraftstoff,den,Abduschen,Hauptbahnhof.,Soldaten,Herrn,nichts,große,nan,Grases,aus,die,schwarzem,nan,mehr,defekt,artgerecht,Energie.,seiner,Planet,grünen,nan,Helmen,Müll.,Alkohol,ml,nan,Herrn,Schaumstoff,aus,Besucher.,dass,Tupperware,nan,"vermiest,",Gras,Energie.,defekt,um,die,die,den,er,dichten,sie,Flut,Esslöffel,nan,jeden.,goldenen,die,den,Schmuck,Taschengeld,ml,seiner,drei,köstlicher,Einkommen,nan,ruhig,aus,Besucher.,täglichen,Stimmung,als,eine,um,Esslöffel,um,eine,köstlichen,verschrottet.,Wurst,mehr,jeden,die,wiedergewählt.,kaltem,dichten,Dezember,Kunsteis,wiedergewählt.,Helmen,jeden.,nan,nan,als,,,,,,,,,,,,,,,,,,,,,,,13,0,13,0,0,6,6,6,,,,,,,space,0.923797130585,,,,,2017_Feb_01_1409,59.412013842,spr_backupper,001,Di18,
,nan,des,nan,Menge,überführt,liegen.,Fall,ganz,mitbringen.,mit,fahren.,Problemen,gehärtet.,nan,des,Gantenbein.,mitbringen.,Menge,nan,zwängen.,Japan.,Wohnung.,Kaffee,nan,als,war.,gehalten.,nan,Frau,ganz,Tee,nan,zur,nan,verdünnt.,warmer,nan,Gantenbeins.,gefertigt.,dem,nan,das,ist.,nan,dass,zwängen.,nan,war.,jede,Slums.,Probleme,Boden,trug.,Gewebe,überführt,zurückgekehrt.,warmem,nan,nan,Besatz,Slums.,Boden,umgearbeitet.,selber,warme,Frau,Tage.,Wein,haftbar.,nan,diskutiert.,dem,nan,Einsatz,ziemlich,einmal,Sammlung,Nadelhölzer,warmen,jede,Sammlung,Weins,nan,mit,als,Fall,Wohnung.,nan,Saft,Stoff,stattfinden.,eingesprüht.,nan,zur,nan,nan,nan,einmal,,,,,,,,,,,,,,,,,,,,,,,13,0,13,0,0,7,7,7,,,,,,,space,1.26427292824,,,,,2017_Feb_01_1409,59.412013842,spr_backupper,001,Di18,
,nan,zweiten,nan,dunkle,wurden.,nan,genug.,deutlich.,nan,an,nan,im,nan,nan,zweiten,nan,nan,dunkler,nan,nan,nan,nan,wiederbelebt.,nan,gerne.,nan,nan,nan,gepasst.,deutlich.,wieder,nan,Schule.,nan,nan,Milch.,nan,nan,nan,Haus,nan,Medikament,nan,nan,es,nan,nan,nan,Menge,nan,im,berührt.,nan,wiederhergestellt.,wurden.,nan,Honig,nan,nan,rekonstruiert.,nan,berührt.,nan,kaufen.,Milch.,gepasst,nan,schon,nan,nan,nan,Haus,nan,sinken.,vermiest.,Rilke.,dummer,umzusetzen.,Honigs,Menge,dumme,schon,nan,an,gerne.,genug.,nan,nan,besprochen.,gefertigt.,nan,nan,nan,Schule.,nan,nan,nan,Rilke,,,,,,,,,,,,,,,,,,,,,,,13,0,13,0,0,8,8,8,,,,,,,space,1.10788607597,,,,,2017_Feb_01_1409,59.412013842,spr_backupper,001,Di18,
,,,,,,,,,,,,,,,,,,,,,,,,,,,,,,,,,,,,,,,,,,,,,,,,,,,,,,,,,,,,,,,,,,,,,,,,,,,,,,,,,,,,,,,,,,,,,,,,,,,,,,,,,,,,,,,,,,,,,,,,,13,0,13,0,,,,,,,,,,,,,None,j,1.53211212158,,2017_Feb_01_1409,59.412013842,spr_backupper,001,Di18,
