text,sent48,sent9,sent8,sent15,sent3,sent2,sent1,sent14,sent7,sent6,sent5,sent4,sent57,sent56,sent55,sent54,sent53,sent52,sent51,sent50,sent13,sent12,sent11,sent10,sent17,sent16,sent59,sent58,sent93,sent92,sent91,sent90,sent97,sent96,sent95,sent94,sent98,sent22,sent23,sent20,sent21,sent26,sent27,sent24,sent25,sent28,sent29,sent68,sent69,sent66,sent67,sent64,sent65,sent62,sent63,sent60,sent61,sent31,sent30,sent33,sent32,sent35,sent34,sent37,sent36,sent39,sent38,sent79,sent78,sent75,sent74,sent77,sent76,sent71,sent70,sent73,sent72,sent19,sent49,sent18,sent44,sent45,sent84,sent85,sent86,sent87,sent80,sent81,sent82,sent83,sent40,sent41,sent42,sent43,sent88,sent89,sent46,sent47,intros.thisRepN,intros.thisTrialN,intros.thisN,intros.thisIndex,trials.thisRepN,trials.thisTrialN,trials.thisN,trials.thisIndex,testWords.thisRepN,testWords.thisTrialN,testWords.thisN,testWords.thisIndex,test1,test3,test2,test5,test4,test7,test6,test9,test8,test10,realTrials.thisRepN,realTrials.thisTrialN,realTrials.thisN,realTrials.thisIndex,words.thisRepN,words.thisTrialN,words.thisN,words.thisIndex,key_resp_3.keys,key_resp_3.rt,key_resp_8.keys,key_resp_8.rt,key_resp_10.keys,key_resp_10.rt,key_resp_6.keys,wordRead.keys,wordRead.rt,key_resp_5.keys,questAnswer.keys,questAnswer.rt,key_resp_6.rt,key_resp_5.rt,date,frameRate,expName,session,participant,
"Vielen Dank, dass Sie an diesem Experiment teilnehmen. Vor dem eigentlichen Experiment sehen Sie nun zuerst eine kurze Erläuterung, und Sie absolvieren ein kurze Übungsphase.

Das Experiment dauert insgesamt nicht mehr als 45 Minuten.",,,,,,,,,,,,,,,,,,,,,,,,,,,,,,,,,,,,,,,,,,,,,,,,,,,,,,,,,,,,,,,,,,,,,,,,,,,,,,,,,,,,,,,,,,,,,,,,,,,0,0,0,0,,,,,,,,,,,,,,,,,,,,,,,,,,,,,,,,,,,,,,,,,2017_Feb_03_1419,58.6025001362,spr_backupper,001,Do11,
"In diesem Experiment lesen Sie deutsche Sätze, indem Sie sich von Wort zu Wort mit der Leertaste durch den Satz klicken.",,,,,,,,,,,,,,,,,,,,,,,,,,,,,,,,,,,,,,,,,,,,,,,,,,,,,,,,,,,,,,,,,,,,,,,,,,,,,,,,,,,,,,,,,,,,,,,,,,,0,1,1,1,,,,,,,,,,,,,,,,,,,,,,,,,,,,,,,,,,,,,,,,,2017_Feb_03_1419,58.6025001362,spr_backupper,001,Do11,
"Sie sehen dabei immer nur das aktuelle Wort. Die Lesegeschwindigkeit bestimmen Sie vollständig selber. Vor jedem Satz sehen Sie in der Bildschirmmitte für zwei Sekunden ein + an der Stelle, an der dann die Wörter erscheinen.",,,,,,,,,,,,,,,,,,,,,,,,,,,,,,,,,,,,,,,,,,,,,,,,,,,,,,,,,,,,,,,,,,,,,,,,,,,,,,,,,,,,,,,,,,,,,,,,,,,0,2,2,2,,,,,,,,,,,,,,,,,,,,,,,,,,,,,,,,,,,,,,,,,2017_Feb_03_1419,58.6025001362,spr_backupper,001,Do11,
"Nach jedem Satz wird Ihnen eine Ja/Nein-Verständnisfrage zum zuvor gelesenen Satz gestellt, die Sie mit der J-Taste für "Ja" und der N-Taste für "Nein" beantworten. Antworten Sie möglichst spontan und ohne lange Nachzudenken.",,,,,,,,,,,,,,,,,,,,,,,,,,,,,,,,,,,,,,,,,,,,,,,,,,,,,,,,,,,,,,,,,,,,,,,,,,,,,,,,,,,,,,,,,,,,,,,,,,,0,3,3,3,,,,,,,,,,,,,,,,,,,,,,,,,,,,,,,,,,,,,,,,,2017_Feb_03_1419,58.6025001362,spr_backupper,001,Do11,
"Unterbrechen Sie das Experiment bitte auf keinen Fall, stellen Sie den ExperimentatorInnen nach dem Experimentbeginn keine Fragen, und lassen Sie sich nicht durch Umgebungsgeräusche ablenken.",,,,,,,,,,,,,,,,,,,,,,,,,,,,,,,,,,,,,,,,,,,,,,,,,,,,,,,,,,,,,,,,,,,,,,,,,,,,,,,,,,,,,,,,,,,,,,,,,,,0,4,4,4,,,,,,,,,,,,,,,,,,,,,,,,,,,,,,,,,,,,,,,,,2017_Feb_03_1419,58.6025001362,spr_backupper,001,Do11,
"Im nächsten Schritt beantworten Sie bitte eine Frage zu Ihren Deutschkenntnissen. Danach beginnt eine Übungseinheit, mit der Sie sich an die Art der Durchführung dieses Experiments gewöhnen können.",,,,,,,,,,,,,,,,,,,,,,,,,,,,,,,,,,,,,,,,,,,,,,,,,,,,,,,,,,,,,,,,,,,,,,,,,,,,,,,,,,,,,,,,,,,,,,,,,,,0,5,5,5,,,,,,,,,,,,,,,,,,,,,,,,,,,,,,,,,,,,,,,,,2017_Feb_03_1419,58.6025001362,spr_backupper,001,Do11,
,,,,,,,,,,,,,,,,,,,,,,,,,,,,,,,,,,,,,,,,,,,,,,,,,,,,,,,,,,,,,,,,,,,,,,,,,,,,,,,,,,,,,,,,,,,,,,,,,,,,,,,,,,,,,,,,,,,,,,,,,,,,,,,,,j,5.53399610519,,,,,,,,,,,,,2017_Feb_03_1419,58.6025001362,spr_backupper,001,Do11,
,,,,,,,,,,,,,,,,,,,,,,,,,,,,,,,,,,,,,,,,,,,,,,,,,,,,,,,,,,,,,,,,,,,,,,,,,,,,,,,,,,,,,,,,,,,,,,,,,,,,,,,0,0,0,0,,,,,,,,,,,,,,,,,,,,,,,,,None,,,,,,,,,,,,2017_Feb_03_1419,58.6025001362,spr_backupper,001,Do11,
,,,,,,,,,,,,,,,,,,,,,,,,,,,,,,,,,,,,,,,,,,,,,,,,,,,,,,,,,,,,,,,,,,,,,,,,,,,,,,,,,,,,,,,,,,,,,,,,,,,,,,,1,0,1,0,,,,,,,,,,,,,,,,,,,,,,,,,None,,,,,,,,,,,,2017_Feb_03_1419,58.6025001362,spr_backupper,001,Do11,
,,,,,,,,,,,,,,,,,,,,,,,,,,,,,,,,,,,,,,,,,,,,,,,,,,,,,,,,,,,,,,,,,,,,,,,,,,,,,,,,,,,,,,,,,,,,,,,,,,,,,,,2,0,2,0,,,,,,,,,,,,,,,,,,,,,,,,,space,0.956080913544,,,,,,,,,,,2017_Feb_03_1419,58.6025001362,spr_backupper,001,Do11,
,,,,,,,,,,,,,,,,,,,,,,,,,,,,,,,,,,,,,,,,,,,,,,,,,,,,,,,,,,,,,,,,,,,,,,,,,,,,,,,,,,,,,,,,,,,,,,,,,,,,,,,3,0,3,0,,,,,,,,,,,,,,,,,,,,,,,,,space,0.821864128113,,,,,,,,,,,2017_Feb_03_1419,58.6025001362,spr_backupper,001,Do11,
,,,,,,,,,,,,,,,,,,,,,,,,,,,,,,,,,,,,,,,,,,,,,,,,,,,,,,,,,,,,,,,,,,,,,,,,,,,,,,,,,,,,,,,,,,,,,,,,,,,,,,,4,0,4,0,,,,,,,,,,,,,,,,,,,,,,,,,space,0.972368955612,,,,,,,,,,,2017_Feb_03_1419,58.6025001362,spr_backupper,001,Do11,
,,,,,,,,,,,,,,,,,,,,,,,,,,,,,,,,,,,,,,,,,,,,,,,,,,,,,,,,,,,,,,,,,,,,,,,,,,,,,,,,,,,,,,,,,,,,,,,,,,,,,,,5,0,5,0,,,,,,,,,,,,,,,,,,,,,,,,,space,1.0566971302,,,,,,,,,,,2017_Feb_03_1419,58.6025001362,spr_backupper,001,Do11,
,,,,,,,,,,,,,,,,,,,,,,,,,,,,,,,,,,,,,,,,,,,,,,,,,,,,,,,,,,,,,,,,,,,,,,,,,,,,,,,,,,,,,,,,,,,,,,,,,,,,,,,6,0,6,0,,,,,,,,,,,,,,,,,,,,,,,,,None,,,,,,,,,,,,2017_Feb_03_1419,58.6025001362,spr_backupper,001,Do11,
,,,,,,,,,,,,,,,,,,,,,,,,,,,,,,,,,,,,,,,,,,,,,,,,,,,,,,,,,,,,,,,,,,,,,,,,,,,,,,,,,,,,,,,,,,,,,,,,,,,,,,,7,0,7,0,,,,,,,,,,,,,,,,,,,,,,,,,space,0.637690067291,,,,,,,,,,,2017_Feb_03_1419,58.6025001362,spr_backupper,001,Do11,
,,,,,,,,,,,,,,,,,,,,,,,,,,,,,,,,,,,,,,,,,,,,,,,,,,,,,,,,,,,,,,,,,,,,,,,,,,,,,,,,,,,,,,,,,,,,,,,,,,,,,,,8,0,8,0,,,,,,,,,,,,,,,,,,,,,,,,,space,1.17444396019,,,,,,,,,,,2017_Feb_03_1419,58.6025001362,spr_backupper,001,Do11,
,,,,,,,,,,,,,,,,,,,,,,,,,,,,,,,,,,,,,,,,,,,,,,,,,,,,,,,,,,,,,,,,,,,,,,,,,,,,,,,,,,,,,,,,,,,,,,,,,,,,,,,9,0,9,0,,,,,,,,,,,,,,,,,,,,,,,,,None,,,,,,,,,,,,2017_Feb_03_1419,58.6025001362,spr_backupper,001,Do11,
,,,,,,,,,,,,,,,,,,,,,,,,,,,,,,,,,,,,,,,,,,,,,,,,,,,,,,,,,,,,,,,,,,,,,,,,,,,,,,,,,,,,,,,,,,,,,,,,,,,,,,,,,,,,,,,,,,,,,,,,,,,,,,,,,,,,,space,2.63340401649,,,,,,,,,2017_Feb_03_1419,58.6025001362,spr_backupper,001,Do11,
,Bei,Ich,Die,In,Die,Er,Ich,Die,Er,Die,Dort,Danach,Am,Es,In,Er,Dort,Bei,Außer,Die,Mit,Wir,Ihr,Die,Sie,Fernab,Wir,Jetzt,Die,Das,Nicht,Im,Wir,Mit,Jungtiere,Beträchtliche,Die,Beträchtliche,100,Im,In,Wir,Sie,Die,Es,Als,Außer,Die,Die,Viele,Er,Es,Sie,Alle,Jugendliche,Ich,Die,Manche,Die,Die,In,Nicht,Am,Viele,Es,Er,Dass,Bei,Die,Die,Die,Es,In,Sie,Unter,Wir,Der,Sie,Die,In,Wir,Bei,Die,In,Wir,In,Außer,Die,Man,Sie,Außer,Wir,Walter,Sie,100,Wir,Die,Man,,,,,,,,,,,,,,,,,,,,,,,0,0,0,0,0,0,0,0,,,,,,,None,space,1.03582191467,,,,,,2017_Feb_03_1419,58.6025001362,spr_backupper,001,Do11,
,der,wurde,Schuhe,meinem,Uhr,hat,nehme,Kinder,wurde,Lösung,türmen,wurde,äußersten,wurden,einer,stellt,türmen,unserer,dem,"Uhr,",dieser,mussten,Blutdruck,Gäste,verlassen,des,haben,ist,Gäste,Tuch,ein,Fernrohr,konnten,dieser,sollten,Stücke,Schule,Stücke,g,Fernrohr,diesem,hatten,hatte,Autos,wurden,die,dem,Stücke,Schuhe,Tonnen,wurde,hat,verlassen,Betten,können,nehme,Eislaufbahnen,Kreditnehmer,Formen,Uhr,den,ein,äußeren,Tonnen,waren,stellt,es,der,Autos,müden,Kinder,waren,der,hatte,keinen,hatten,Flug,verbrauchen,Linie,der,haben,unserer,Teilnehmerinnen,meinem,mussten,den,den,Uhr,machte,verbrauchen,das,übergaben,Scheel,haben,g,übergaben,Schule,machte,,,,,,,,,,,,,,,,,,,,,,,0,0,0,0,0,1,1,1,,,,,,,,space,0.476644992828,,,,,,2017_Feb_03_1419,58.6025001362,spr_backupper,001,Do11,
,Feier,damals,in,Studium,schlug,ein,eine,fuhren,trotz,wird,sich,die,Rand,Eimer,Studie,die,sich,Ankunft,Essen,die,Methode,uns,kann,suchen,wegen,Rummels,jede,genau,suchen,wurde,Tropfen,sahen,dann,Methode,immer,saftiges,verbraucht,saftigen,braunen,sahen,Zirkus,in,keine,beider,Eimer,Sonne,Bürgermeister,wurden,in,gebrauchte,trotz,uns,wegen,wurden,Kleidung,eine,wurden,sind,wurden,war,Kakao,Tropfen,Rand,gebrauchter,nur,die,"regnete,",Feier,beider,Teilnehmer,fuhren,nur,Tat,keine,Umständen,in,zum,60,101,Tat,jede,Ankunft,wussten,Studium,uns,Kakao,Bürgermeister,schlug,mal,60,Essen,dem,war,die,brauner,das,verbraucht,mal,,,,,,,,,,,,,,,,,,,,,,,0,0,0,0,0,2,2,2,,,,,,,,space,0.443164825439,,,,,,2017_Feb_03_1419,58.6025001362,spr_backupper,001,Do11,
,gedachte,schnell,Größe,las,"sporadisch,",Hemd,große,mit,dem,mit,Berge,Leinwand,der,roter,wurde,Masse,Berge,stand,kann,er,kann,durch,schon,die,dem,wurde,Menge,die,die,dann,königlichen,wir,mit,kann,auf,Fleisch,260.000,Fleischs,Zuckers,wir,werden,Dänemark,Lust,beteiligter,rote,"unterging,",beschuldigten,aus,Größe,Kleidung,des,die,des,mit,bei,große,mit,mit,unter,aus,gehören,königliches,der,Kleidung,kleinere,Masse,hat,gedachte,beteiligten,wurden,mit,kleinere,wissen,Lust,können,Dänemark,Mond,Liter,hält,wissen,Menge,stand,überwiegend,habe,durch,gehören,beschuldigten,"sporadisch,",wieder,Liter,kann,Mann,der,Erlebnisse,Zucker,Auto,260.000,wieder,,,,,,,,,,,,,,,,,,,,,,,0,0,0,0,0,3,3,3,,,,,,,,space,0.405867815018,,,,,,2017_Feb_03_1419,58.6025001362,spr_backupper,001,Do11,
,man,dank,36,ich,obschon,aus,Packung,solch,bekannten,"reichlichem,",schmutzige,aus,Stadt,Farbe,jetzt,mit,schmutziger,ein,ich,"trug,",man,Büschel,bei,Wohnung,schönen,schon,alten,richtige,Wohnung,mit,Bluts,den,"minimalem,",man,warmem,wurden,Kilowattstunden,wurden,sind,den,die,gelegentlich,auf,Fahrer,Farbe,war,die,"wertvollem,",36,landen,bekannten,Stimmung,schönen,"üblichem,",ausreichendem,Packung,dauerhaftem,"sämtlichem,","regelmäßigem,","Japan,",immer,Blut,Stadt,landen,"Delikte,",mit,uns,man,Fahrer,mit,solchen,"Delikte,",wir,auf,Neuwahlen,einen,dauerte,sprudelndes,nicht,wir,alten,ein,"nicht,",ich,Büschel,immer,die,obwohl,viel,sprudelnden,ich,das,vierte,bei,sind,dem,Kilowattstunden,viel,,,,,,,,,,,,,,,,,,,,,,,0,0,0,0,0,4,4,4,,,,,,,,space,0.440950870514,,,,,,2017_Feb_03_1419,58.6025001362,spr_backupper,001,Do11,
,den,täglichem,hätten,mehr,sie,feinem,salzige,unzureichenden,Skandal,purem,Wäsche.,seltenem,liegen,geschleudert.,"nachgewiesen,",einem,Wäsche.,Glas,leider,war,eine,frischen,minimalem,des,Wetter,immer,Kram,"Zeit,",des,"reichem,",hat,roten,sauberen,eine,weichem,serviert.,elektrische,serviert.,auf,roten,Tiere,einen,noch,wurden,geschleudert.,die,Störenfriede,klassischen,würden,im,Skandals,ziemlich,Wetters,harten,monatlichem,salziger,feinem,künftigem,kaltem,die,350,hat,liegen,im,deren,einem,die,der,wurden,zusätzlichem,unzureichenden,derer,von,noch,vor,gelegentlichen,ungefähr,Trinkwasser.,am,um,Krams,Glas,was,mehr,frisches,350,Störenfriede,sie,Lärm,Trinkwassers.,leider,Auto,Bundespräsident.,"frischem,",auf,Mann,elektrischer,Lärm,,,,,,,,,,,,,,,,,,,,,,,0,0,0,0,0,5,5,5,,,,,,,,space,0.586981058121,,,,,,2017_Feb_03_1419,58.6025001362,spr_backupper,001,Do11,
,Soldaten,grünen,seiner,als,defekt,dichten,Wurst,Helmen,wiedergewählt.,Alkohol,nan,dichten,die,nan,dass,Esslöffel,nan,köstlichen,nichts,aus,große,Grases,täglichen,Herrn,die,ruhig,aus,um,Herrn,goldenen,den,Planeten,Kraftstoff,große,Untergrund,nan,Energie.,nan,jeden,Planet,artgerecht,Besucher.,eine,verschrottet.,nan,Flut,jeden.,Schmuck,seiner,Müll.,wiedergewählt.,"vermiest,",die,Schaumstoff,Taschengeld,Wurst,Kunsteis,Einkommen,Abduschen,er,ml,den,die,Müll.,sie,Esslöffel,Stimmung,Soldaten,verschrottet.,schwarzem,Helmen,sie,den,eine,Dezember,Besucher.,drei,nan,Hauptbahnhof.,die,aus,köstlicher,Tupperware,als,Gras,ml,jeden.,defekt,um,nan,nichts,mehr,nan,kaltem,jeden,mehr,Energie.,um,,,,,,,,,,,,,,,,,,,,,,,0,0,0,0,0,6,6,6,,,,,,,,space,0.402373075485,,,,,,2017_Feb_03_1419,58.6025001362,spr_backupper,001,Do11,
,des,Tee,Frau,einmal,war.,Stoff,mit,zur,nan,verdünnt.,nan,Gewebe,Slums.,nan,das,warmen,nan,Weins,mitbringen.,Japan.,Menge,zwängen.,Einsatz,Gantenbein.,Wohnung.,diskutiert.,dem,Nadelhölzer,Gantenbeins.,Besatz,Boden,ganz,fahren.,Menge,liegen.,nan,nan,nan,Fall,ganz,gehalten.,nan,Sammlung,nan,nan,zurückgekehrt.,nan,umgearbeitet.,Frau,nan,nan,dass,Wohnung.,gefertigt.,selber,mit,eingesprüht.,haftbar.,gehärtet.,trug.,warmer,Boden,Slums.,nan,überführt,warmem,ziemlich,des,nan,Kaffee,zur,überführt,Problemen,Sammlung,stattfinden.,nan,Tage.,nan,nan,Probleme,dem,Wein,ist.,einmal,zwängen.,warme,nan,war.,jede,nan,mitbringen.,als,nan,Saft,Fall,als,nan,jede,,,,,,,,,,,,,,,,,,,,,,,0,0,0,0,0,7,7,7,,,,,,,,space,0.401156187057,,,,,,2017_Feb_03_1419,58.6025001362,spr_backupper,001,Do11,
,zweiten,wieder,gepasst.,Rilke.,nan,gefertigt.,an,Schule.,nan,nan,nan,wiederhergestellt.,nan,nan,Medikament,Honigs,nan,schon,nan,nan,dunkler,nan,sinken.,nan,nan,nan,Haus,umzusetzen.,nan,rekonstruiert.,berührt.,deutlich.,nan,dunkle,nan,nan,nan,nan,genug.,deutlich.,nan,nan,dummer,nan,nan,nan,nan,nan,gepasst,nan,nan,es,nan,nan,kaufen.,an,nan,nan,nan,nan,Milch.,berührt.,nan,nan,wurden.,Honig,vermiest.,zweiten,nan,wiederbelebt.,Schule.,wurden.,im,dumme,nan,nan,nan,nan,nan,im,Haus,schon,nan,Rilke,nan,Milch.,nan,nan,Menge,nan,nan,gerne.,nan,besprochen.,genug.,gerne.,nan,Menge,,,,,,,,,,,,,,,,,,,,,,,0,0,0,0,0,8,8,8,,,,,,,,space,0.393528223038,,,,,,2017_Feb_03_1419,58.6025001362,spr_backupper,001,Do11,
,Weltkriegs.,fit.,nan,nan,nan,nan,den,nan,nan,nan,nan,nan,nan,nan,nicht,her.,nan,auf,nan,nan,Materie,nan,nan,nan,nan,nan,geschafft.,nan,nan,nan,nan,nan,nan,Materie,nan,nan,nan,nan,nan,nan,nan,nan,Sprüche.,nan,nan,nan,nan,nan,haben.,nan,nan,regnete.,nan,nan,nan,den,nan,nan,nan,nan,nan,nan,nan,nan,nan,her.,nan,Weltkriegs.,nan,nan,nan,nan,Landkreis.,Sprüche.,nan,nan,nan,nan,nan,Landkreis.,geschafft.,auf,nan,gelesen.,nan,nan,nan,nan,heißer,nan,nan,nan,nan,nan,nan,nan,nan,heiße,,,,,,,,,,,,,,,,,,,,,,,0,0,0,0,0,9,9,9,,,,,,,,space,0.393317937851,,,,,,2017_Feb_03_1419,58.6025001362,spr_backupper,001,Do11,
,nan,nan,nan,nan,nan,nan,See.,nan,nan,nan,nan,nan,nan,nan,wirkt.,nan,nan,dem,nan,nan,erzeugen.,nan,nan,nan,nan,nan,nan,nan,nan,nan,nan,nan,nan,erzeugen.,nan,nan,nan,nan,nan,nan,nan,nan,nan,nan,nan,nan,nan,nan,nan,nan,nan,nan,nan,nan,nan,See.,nan,nan,nan,nan,nan,nan,nan,nan,nan,nan,nan,nan,nan,nan,nan,nan,nan,nan,nan,nan,nan,nan,nan,nan,nan,dem,nan,nan,nan,nan,nan,nan,Luft.,nan,nan,nan,nan,nan,nan,nan,nan,Luft.,,,,,,,,,,,,,,,,,,,,,,,0,0,0,0,0,10,10,10,,,,,,,,space,0.402635097504,,,,,,2017_Feb_03_1419,58.6025001362,spr_backupper,001,Do11,
,,,,,,,,,,,,,,,,,,,,,,,,,,,,,,,,,,,,,,,,,,,,,,,,,,,,,,,,,,,,,,,,,,,,,,,,,,,,,,,,,,,,,,,,,,,,,,,,,,,,,,,,,,,,,,,,,,,,,,,,,0,0,0,0,,,,,,,,,,,,,,None,j,4.98148584366,,,2017_Feb_03_1419,58.6025001362,spr_backupper,001,Do11,
,Bei,Ich,Die,In,Die,Er,Ich,Die,Er,Die,Dort,Danach,Am,Es,In,Er,Dort,Bei,Außer,Die,Mit,Wir,Ihr,Die,Sie,Fernab,Wir,Jetzt,Die,Das,Nicht,Im,Wir,Mit,Jungtiere,Beträchtliche,Die,Beträchtliche,100,Im,In,Wir,Sie,Die,Es,Als,Außer,Die,Die,Viele,Er,Es,Sie,Alle,Jugendliche,Ich,Die,Manche,Die,Die,In,Nicht,Am,Viele,Es,Er,Dass,Bei,Die,Die,Die,Es,In,Sie,Unter,Wir,Der,Sie,Die,In,Wir,Bei,Die,In,Wir,In,Außer,Die,Man,Sie,Außer,Wir,Walter,Sie,100,Wir,Die,Man,,,,,,,,,,,,,,,,,,,,,,,1,0,1,0,0,0,0,0,,,,,,,space,space,0.584816932678,,,,1.34196591377,,2017_Feb_03_1419,58.6025001362,spr_backupper,001,Do11,
,der,wurde,Schuhe,meinem,Uhr,hat,nehme,Kinder,wurde,Lösung,türmen,wurde,äußersten,wurden,einer,stellt,türmen,unserer,dem,"Uhr,",dieser,mussten,Blutdruck,Gäste,verlassen,des,haben,ist,Gäste,Tuch,ein,Fernrohr,konnten,dieser,sollten,Stücke,Schule,Stücke,g,Fernrohr,diesem,hatten,hatte,Autos,wurden,die,dem,Stücke,Schuhe,Tonnen,wurde,hat,verlassen,Betten,können,nehme,Eislaufbahnen,Kreditnehmer,Formen,Uhr,den,ein,äußeren,Tonnen,waren,stellt,es,der,Autos,müden,Kinder,waren,der,hatte,keinen,hatten,Flug,verbrauchen,Linie,der,haben,unserer,Teilnehmerinnen,meinem,mussten,den,den,Uhr,machte,verbrauchen,das,übergaben,Scheel,haben,g,übergaben,Schule,machte,,,,,,,,,,,,,,,,,,,,,,,1,0,1,0,0,1,1,1,,,,,,,,space,0.462713956833,,,,,,2017_Feb_03_1419,58.6025001362,spr_backupper,001,Do11,
,Feier,damals,in,Studium,schlug,ein,eine,fuhren,trotz,wird,sich,die,Rand,Eimer,Studie,die,sich,Ankunft,Essen,die,Methode,uns,kann,suchen,wegen,Rummels,jede,genau,suchen,wurde,Tropfen,sahen,dann,Methode,immer,saftiges,verbraucht,saftigen,braunen,sahen,Zirkus,in,keine,beider,Eimer,Sonne,Bürgermeister,wurden,in,gebrauchte,trotz,uns,wegen,wurden,Kleidung,eine,wurden,sind,wurden,war,Kakao,Tropfen,Rand,gebrauchter,nur,die,"regnete,",Feier,beider,Teilnehmer,fuhren,nur,Tat,keine,Umständen,in,zum,60,101,Tat,jede,Ankunft,wussten,Studium,uns,Kakao,Bürgermeister,schlug,mal,60,Essen,dem,war,die,brauner,das,verbraucht,mal,,,,,,,,,,,,,,,,,,,,,,,1,0,1,0,0,2,2,2,,,,,,,,space,0.433598041534,,,,,,2017_Feb_03_1419,58.6025001362,spr_backupper,001,Do11,
,gedachte,schnell,Größe,las,"sporadisch,",Hemd,große,mit,dem,mit,Berge,Leinwand,der,roter,wurde,Masse,Berge,stand,kann,er,kann,durch,schon,die,dem,wurde,Menge,die,die,dann,königlichen,wir,mit,kann,auf,Fleisch,260.000,Fleischs,Zuckers,wir,werden,Dänemark,Lust,beteiligter,rote,"unterging,",beschuldigten,aus,Größe,Kleidung,des,die,des,mit,bei,große,mit,mit,unter,aus,gehören,königliches,der,Kleidung,kleinere,Masse,hat,gedachte,beteiligten,wurden,mit,kleinere,wissen,Lust,können,Dänemark,Mond,Liter,hält,wissen,Menge,stand,überwiegend,habe,durch,gehören,beschuldigten,"sporadisch,",wieder,Liter,kann,Mann,der,Erlebnisse,Zucker,Auto,260.000,wieder,,,,,,,,,,,,,,,,,,,,,,,1,0,1,0,0,3,3,3,,,,,,,,space,0.487032175064,,,,,,2017_Feb_03_1419,58.6025001362,spr_backupper,001,Do11,
,man,dank,36,ich,obschon,aus,Packung,solch,bekannten,"reichlichem,",schmutzige,aus,Stadt,Farbe,jetzt,mit,schmutziger,ein,ich,"trug,",man,Büschel,bei,Wohnung,schönen,schon,alten,richtige,Wohnung,mit,Bluts,den,"minimalem,",man,warmem,wurden,Kilowattstunden,wurden,sind,den,die,gelegentlich,auf,Fahrer,Farbe,war,die,"wertvollem,",36,landen,bekannten,Stimmung,schönen,"üblichem,",ausreichendem,Packung,dauerhaftem,"sämtlichem,","regelmäßigem,","Japan,",immer,Blut,Stadt,landen,"Delikte,",mit,uns,man,Fahrer,mit,solchen,"Delikte,",wir,auf,Neuwahlen,einen,dauerte,sprudelndes,nicht,wir,alten,ein,"nicht,",ich,Büschel,immer,die,obwohl,viel,sprudelnden,ich,das,vierte,bei,sind,dem,Kilowattstunden,viel,,,,,,,,,,,,,,,,,,,,,,,1,0,1,0,0,4,4,4,,,,,,,,space,0.5620470047,,,,,,2017_Feb_03_1419,58.6025001362,spr_backupper,001,Do11,
,den,täglichem,hätten,mehr,sie,feinem,salzige,unzureichenden,Skandal,purem,Wäsche.,seltenem,liegen,geschleudert.,"nachgewiesen,",einem,Wäsche.,Glas,leider,war,eine,frischen,minimalem,des,Wetter,immer,Kram,"Zeit,",des,"reichem,",hat,roten,sauberen,eine,weichem,serviert.,elektrische,serviert.,auf,roten,Tiere,einen,noch,wurden,geschleudert.,die,Störenfriede,klassischen,würden,im,Skandals,ziemlich,Wetters,harten,monatlichem,salziger,feinem,künftigem,kaltem,die,350,hat,liegen,im,deren,einem,die,der,wurden,zusätzlichem,unzureichenden,derer,von,noch,vor,gelegentlichen,ungefähr,Trinkwasser.,am,um,Krams,Glas,was,mehr,frisches,350,Störenfriede,sie,Lärm,Trinkwassers.,leider,Auto,Bundespräsident.,"frischem,",auf,Mann,elektrischer,Lärm,,,,,,,,,,,,,,,,,,,,,,,1,0,1,0,0,5,5,5,,,,,,,,space,0.543350934982,,,,,,2017_Feb_03_1419,58.6025001362,spr_backupper,001,Do11,
,Soldaten,grünen,seiner,als,defekt,dichten,Wurst,Helmen,wiedergewählt.,Alkohol,nan,dichten,die,nan,dass,Esslöffel,nan,köstlichen,nichts,aus,große,Grases,täglichen,Herrn,die,ruhig,aus,um,Herrn,goldenen,den,Planeten,Kraftstoff,große,Untergrund,nan,Energie.,nan,jeden,Planet,artgerecht,Besucher.,eine,verschrottet.,nan,Flut,jeden.,Schmuck,seiner,Müll.,wiedergewählt.,"vermiest,",die,Schaumstoff,Taschengeld,Wurst,Kunsteis,Einkommen,Abduschen,er,ml,den,die,Müll.,sie,Esslöffel,Stimmung,Soldaten,verschrottet.,schwarzem,Helmen,sie,den,eine,Dezember,Besucher.,drei,nan,Hauptbahnhof.,die,aus,köstlicher,Tupperware,als,Gras,ml,jeden.,defekt,um,nan,nichts,mehr,nan,kaltem,jeden,mehr,Energie.,um,,,,,,,,,,,,,,,,,,,,,,,1,0,1,0,0,6,6,6,,,,,,,,space,0.520437955856,,,,,,2017_Feb_03_1419,58.6025001362,spr_backupper,001,Do11,
,des,Tee,Frau,einmal,war.,Stoff,mit,zur,nan,verdünnt.,nan,Gewebe,Slums.,nan,das,warmen,nan,Weins,mitbringen.,Japan.,Menge,zwängen.,Einsatz,Gantenbein.,Wohnung.,diskutiert.,dem,Nadelhölzer,Gantenbeins.,Besatz,Boden,ganz,fahren.,Menge,liegen.,nan,nan,nan,Fall,ganz,gehalten.,nan,Sammlung,nan,nan,zurückgekehrt.,nan,umgearbeitet.,Frau,nan,nan,dass,Wohnung.,gefertigt.,selber,mit,eingesprüht.,haftbar.,gehärtet.,trug.,warmer,Boden,Slums.,nan,überführt,warmem,ziemlich,des,nan,Kaffee,zur,überführt,Problemen,Sammlung,stattfinden.,nan,Tage.,nan,nan,Probleme,dem,Wein,ist.,einmal,zwängen.,warme,nan,war.,jede,nan,mitbringen.,als,nan,Saft,Fall,als,nan,jede,,,,,,,,,,,,,,,,,,,,,,,1,0,1,0,0,7,7,7,,,,,,,,space,0.78685092926,,,,,,2017_Feb_03_1419,58.6025001362,spr_backupper,001,Do11,
,zweiten,wieder,gepasst.,Rilke.,nan,gefertigt.,an,Schule.,nan,nan,nan,wiederhergestellt.,nan,nan,Medikament,Honigs,nan,schon,nan,nan,dunkler,nan,sinken.,nan,nan,nan,Haus,umzusetzen.,nan,rekonstruiert.,berührt.,deutlich.,nan,dunkle,nan,nan,nan,nan,genug.,deutlich.,nan,nan,dummer,nan,nan,nan,nan,nan,gepasst,nan,nan,es,nan,nan,kaufen.,an,nan,nan,nan,nan,Milch.,berührt.,nan,nan,wurden.,Honig,vermiest.,zweiten,nan,wiederbelebt.,Schule.,wurden.,im,dumme,nan,nan,nan,nan,nan,im,Haus,schon,nan,Rilke,nan,Milch.,nan,nan,Menge,nan,nan,gerne.,nan,besprochen.,genug.,gerne.,nan,Menge,,,,,,,,,,,,,,,,,,,,,,,1,0,1,0,0,8,8,8,,,,,,,,space,1.19091415405,,,,,,2017_Feb_03_1419,58.6025001362,spr_backupper,001,Do11,
,,,,,,,,,,,,,,,,,,,,,,,,,,,,,,,,,,,,,,,,,,,,,,,,,,,,,,,,,,,,,,,,,,,,,,,,,,,,,,,,,,,,,,,,,,,,,,,,,,,,,,,,,,,,,,,,,,,,,,,,,1,0,1,0,,,,,,,,,,,,,,space,n,2.80124402046,,0.922167062759,2017_Feb_03_1419,58.6025001362,spr_backupper,001,Do11,
,Bei,Ich,Die,In,Die,Er,Ich,Die,Er,Die,Dort,Danach,Am,Es,In,Er,Dort,Bei,Außer,Die,Mit,Wir,Ihr,Die,Sie,Fernab,Wir,Jetzt,Die,Das,Nicht,Im,Wir,Mit,Jungtiere,Beträchtliche,Die,Beträchtliche,100,Im,In,Wir,Sie,Die,Es,Als,Außer,Die,Die,Viele,Er,Es,Sie,Alle,Jugendliche,Ich,Die,Manche,Die,Die,In,Nicht,Am,Viele,Es,Er,Dass,Bei,Die,Die,Die,Es,In,Sie,Unter,Wir,Der,Sie,Die,In,Wir,Bei,Die,In,Wir,In,Außer,Die,Man,Sie,Außer,Wir,Walter,Sie,100,Wir,Die,Man,,,,,,,,,,,,,,,,,,,,,,,2,0,2,0,0,0,0,0,,,,,,,space,space,0.613952159882,,,,0.97295498848,,2017_Feb_03_1419,58.6025001362,spr_backupper,001,Do11,
,der,wurde,Schuhe,meinem,Uhr,hat,nehme,Kinder,wurde,Lösung,türmen,wurde,äußersten,wurden,einer,stellt,türmen,unserer,dem,"Uhr,",dieser,mussten,Blutdruck,Gäste,verlassen,des,haben,ist,Gäste,Tuch,ein,Fernrohr,konnten,dieser,sollten,Stücke,Schule,Stücke,g,Fernrohr,diesem,hatten,hatte,Autos,wurden,die,dem,Stücke,Schuhe,Tonnen,wurde,hat,verlassen,Betten,können,nehme,Eislaufbahnen,Kreditnehmer,Formen,Uhr,den,ein,äußeren,Tonnen,waren,stellt,es,der,Autos,müden,Kinder,waren,der,hatte,keinen,hatten,Flug,verbrauchen,Linie,der,haben,unserer,Teilnehmerinnen,meinem,mussten,den,den,Uhr,machte,verbrauchen,das,übergaben,Scheel,haben,g,übergaben,Schule,machte,,,,,,,,,,,,,,,,,,,,,,,2,0,2,0,0,1,1,1,,,,,,,,space,0.701745033264,,,,,,2017_Feb_03_1419,58.6025001362,spr_backupper,001,Do11,
,Feier,damals,in,Studium,schlug,ein,eine,fuhren,trotz,wird,sich,die,Rand,Eimer,Studie,die,sich,Ankunft,Essen,die,Methode,uns,kann,suchen,wegen,Rummels,jede,genau,suchen,wurde,Tropfen,sahen,dann,Methode,immer,saftiges,verbraucht,saftigen,braunen,sahen,Zirkus,in,keine,beider,Eimer,Sonne,Bürgermeister,wurden,in,gebrauchte,trotz,uns,wegen,wurden,Kleidung,eine,wurden,sind,wurden,war,Kakao,Tropfen,Rand,gebrauchter,nur,die,"regnete,",Feier,beider,Teilnehmer,fuhren,nur,Tat,keine,Umständen,in,zum,60,101,Tat,jede,Ankunft,wussten,Studium,uns,Kakao,Bürgermeister,schlug,mal,60,Essen,dem,war,die,brauner,das,verbraucht,mal,,,,,,,,,,,,,,,,,,,,,,,2,0,2,0,0,2,2,2,,,,,,,,space,0.420015096664,,,,,,2017_Feb_03_1419,58.6025001362,spr_backupper,001,Do11,
,gedachte,schnell,Größe,las,"sporadisch,",Hemd,große,mit,dem,mit,Berge,Leinwand,der,roter,wurde,Masse,Berge,stand,kann,er,kann,durch,schon,die,dem,wurde,Menge,die,die,dann,königlichen,wir,mit,kann,auf,Fleisch,260.000,Fleischs,Zuckers,wir,werden,Dänemark,Lust,beteiligter,rote,"unterging,",beschuldigten,aus,Größe,Kleidung,des,die,des,mit,bei,große,mit,mit,unter,aus,gehören,königliches,der,Kleidung,kleinere,Masse,hat,gedachte,beteiligten,wurden,mit,kleinere,wissen,Lust,können,Dänemark,Mond,Liter,hält,wissen,Menge,stand,überwiegend,habe,durch,gehören,beschuldigten,"sporadisch,",wieder,Liter,kann,Mann,der,Erlebnisse,Zucker,Auto,260.000,wieder,,,,,,,,,,,,,,,,,,,,,,,2,0,2,0,0,3,3,3,,,,,,,,space,0.691603899002,,,,,,2017_Feb_03_1419,58.6025001362,spr_backupper,001,Do11,
,man,dank,36,ich,obschon,aus,Packung,solch,bekannten,"reichlichem,",schmutzige,aus,Stadt,Farbe,jetzt,mit,schmutziger,ein,ich,"trug,",man,Büschel,bei,Wohnung,schönen,schon,alten,richtige,Wohnung,mit,Bluts,den,"minimalem,",man,warmem,wurden,Kilowattstunden,wurden,sind,den,die,gelegentlich,auf,Fahrer,Farbe,war,die,"wertvollem,",36,landen,bekannten,Stimmung,schönen,"üblichem,",ausreichendem,Packung,dauerhaftem,"sämtlichem,","regelmäßigem,","Japan,",immer,Blut,Stadt,landen,"Delikte,",mit,uns,man,Fahrer,mit,solchen,"Delikte,",wir,auf,Neuwahlen,einen,dauerte,sprudelndes,nicht,wir,alten,ein,"nicht,",ich,Büschel,immer,die,obwohl,viel,sprudelnden,ich,das,vierte,bei,sind,dem,Kilowattstunden,viel,,,,,,,,,,,,,,,,,,,,,,,2,0,2,0,0,4,4,4,,,,,,,,space,0.424171924591,,,,,,2017_Feb_03_1419,58.6025001362,spr_backupper,001,Do11,
,den,täglichem,hätten,mehr,sie,feinem,salzige,unzureichenden,Skandal,purem,Wäsche.,seltenem,liegen,geschleudert.,"nachgewiesen,",einem,Wäsche.,Glas,leider,war,eine,frischen,minimalem,des,Wetter,immer,Kram,"Zeit,",des,"reichem,",hat,roten,sauberen,eine,weichem,serviert.,elektrische,serviert.,auf,roten,Tiere,einen,noch,wurden,geschleudert.,die,Störenfriede,klassischen,würden,im,Skandals,ziemlich,Wetters,harten,monatlichem,salziger,feinem,künftigem,kaltem,die,350,hat,liegen,im,deren,einem,die,der,wurden,zusätzlichem,unzureichenden,derer,von,noch,vor,gelegentlichen,ungefähr,Trinkwasser.,am,um,Krams,Glas,was,mehr,frisches,350,Störenfriede,sie,Lärm,Trinkwassers.,leider,Auto,Bundespräsident.,"frischem,",auf,Mann,elektrischer,Lärm,,,,,,,,,,,,,,,,,,,,,,,2,0,2,0,0,5,5,5,,,,,,,,space,0.520035028458,,,,,,2017_Feb_03_1419,58.6025001362,spr_backupper,001,Do11,
,Soldaten,grünen,seiner,als,defekt,dichten,Wurst,Helmen,wiedergewählt.,Alkohol,nan,dichten,die,nan,dass,Esslöffel,nan,köstlichen,nichts,aus,große,Grases,täglichen,Herrn,die,ruhig,aus,um,Herrn,goldenen,den,Planeten,Kraftstoff,große,Untergrund,nan,Energie.,nan,jeden,Planet,artgerecht,Besucher.,eine,verschrottet.,nan,Flut,jeden.,Schmuck,seiner,Müll.,wiedergewählt.,"vermiest,",die,Schaumstoff,Taschengeld,Wurst,Kunsteis,Einkommen,Abduschen,er,ml,den,die,Müll.,sie,Esslöffel,Stimmung,Soldaten,verschrottet.,schwarzem,Helmen,sie,den,eine,Dezember,Besucher.,drei,nan,Hauptbahnhof.,die,aus,köstlicher,Tupperware,als,Gras,ml,jeden.,defekt,um,nan,nichts,mehr,nan,kaltem,jeden,mehr,Energie.,um,,,,,,,,,,,,,,,,,,,,,,,2,0,2,0,0,6,6,6,,,,,,,,space,0.49191403389,,,,,,2017_Feb_03_1419,58.6025001362,spr_backupper,001,Do11,
,des,Tee,Frau,einmal,war.,Stoff,mit,zur,nan,verdünnt.,nan,Gewebe,Slums.,nan,das,warmen,nan,Weins,mitbringen.,Japan.,Menge,zwängen.,Einsatz,Gantenbein.,Wohnung.,diskutiert.,dem,Nadelhölzer,Gantenbeins.,Besatz,Boden,ganz,fahren.,Menge,liegen.,nan,nan,nan,Fall,ganz,gehalten.,nan,Sammlung,nan,nan,zurückgekehrt.,nan,umgearbeitet.,Frau,nan,nan,dass,Wohnung.,gefertigt.,selber,mit,eingesprüht.,haftbar.,gehärtet.,trug.,warmer,Boden,Slums.,nan,überführt,warmem,ziemlich,des,nan,Kaffee,zur,überführt,Problemen,Sammlung,stattfinden.,nan,Tage.,nan,nan,Probleme,dem,Wein,ist.,einmal,zwängen.,warme,nan,war.,jede,nan,mitbringen.,als,nan,Saft,Fall,als,nan,jede,,,,,,,,,,,,,,,,,,,,,,,2,0,2,0,0,7,7,7,,,,,,,,space,1.70143604279,,,,,,2017_Feb_03_1419,58.6025001362,spr_backupper,001,Do11,
,,,,,,,,,,,,,,,,,,,,,,,,,,,,,,,,,,,,,,,,,,,,,,,,,,,,,,,,,,,,,,,,,,,,,,,,,,,,,,,,,,,,,,,,,,,,,,,,,,,,,,,,,,,,,,,,,,,,,,,,,2,0,2,0,,,,,,,,,,,,,,None,n,2.77417492867,,,2017_Feb_03_1419,58.6025001362,spr_backupper,001,Do11,
,Bei,Ich,Die,In,Die,Er,Ich,Die,Er,Die,Dort,Danach,Am,Es,In,Er,Dort,Bei,Außer,Die,Mit,Wir,Ihr,Die,Sie,Fernab,Wir,Jetzt,Die,Das,Nicht,Im,Wir,Mit,Jungtiere,Beträchtliche,Die,Beträchtliche,100,Im,In,Wir,Sie,Die,Es,Als,Außer,Die,Die,Viele,Er,Es,Sie,Alle,Jugendliche,Ich,Die,Manche,Die,Die,In,Nicht,Am,Viele,Es,Er,Dass,Bei,Die,Die,Die,Es,In,Sie,Unter,Wir,Der,Sie,Die,In,Wir,Bei,Die,In,Wir,In,Außer,Die,Man,Sie,Außer,Wir,Walter,Sie,100,Wir,Die,Man,,,,,,,,,,,,,,,,,,,,,,,3,0,3,0,0,0,0,0,,,,,,,space,space,1.57608318329,,,,0.000133037567139,,2017_Feb_03_1419,58.6025001362,spr_backupper,001,Do11,
,der,wurde,Schuhe,meinem,Uhr,hat,nehme,Kinder,wurde,Lösung,türmen,wurde,äußersten,wurden,einer,stellt,türmen,unserer,dem,"Uhr,",dieser,mussten,Blutdruck,Gäste,verlassen,des,haben,ist,Gäste,Tuch,ein,Fernrohr,konnten,dieser,sollten,Stücke,Schule,Stücke,g,Fernrohr,diesem,hatten,hatte,Autos,wurden,die,dem,Stücke,Schuhe,Tonnen,wurde,hat,verlassen,Betten,können,nehme,Eislaufbahnen,Kreditnehmer,Formen,Uhr,den,ein,äußeren,Tonnen,waren,stellt,es,der,Autos,müden,Kinder,waren,der,hatte,keinen,hatten,Flug,verbrauchen,Linie,der,haben,unserer,Teilnehmerinnen,meinem,mussten,den,den,Uhr,machte,verbrauchen,das,übergaben,Scheel,haben,g,übergaben,Schule,machte,,,,,,,,,,,,,,,,,,,,,,,3,0,3,0,0,1,1,1,,,,,,,,space,0.446558952332,,,,,,2017_Feb_03_1419,58.6025001362,spr_backupper,001,Do11,
,Feier,damals,in,Studium,schlug,ein,eine,fuhren,trotz,wird,sich,die,Rand,Eimer,Studie,die,sich,Ankunft,Essen,die,Methode,uns,kann,suchen,wegen,Rummels,jede,genau,suchen,wurde,Tropfen,sahen,dann,Methode,immer,saftiges,verbraucht,saftigen,braunen,sahen,Zirkus,in,keine,beider,Eimer,Sonne,Bürgermeister,wurden,in,gebrauchte,trotz,uns,wegen,wurden,Kleidung,eine,wurden,sind,wurden,war,Kakao,Tropfen,Rand,gebrauchter,nur,die,"regnete,",Feier,beider,Teilnehmer,fuhren,nur,Tat,keine,Umständen,in,zum,60,101,Tat,jede,Ankunft,wussten,Studium,uns,Kakao,Bürgermeister,schlug,mal,60,Essen,dem,war,die,brauner,das,verbraucht,mal,,,,,,,,,,,,,,,,,,,,,,,3,0,3,0,0,2,2,2,,,,,,,,space,0.402676105499,,,,,,2017_Feb_03_1419,58.6025001362,spr_backupper,001,Do11,
,gedachte,schnell,Größe,las,"sporadisch,",Hemd,große,mit,dem,mit,Berge,Leinwand,der,roter,wurde,Masse,Berge,stand,kann,er,kann,durch,schon,die,dem,wurde,Menge,die,die,dann,königlichen,wir,mit,kann,auf,Fleisch,260.000,Fleischs,Zuckers,wir,werden,Dänemark,Lust,beteiligter,rote,"unterging,",beschuldigten,aus,Größe,Kleidung,des,die,des,mit,bei,große,mit,mit,unter,aus,gehören,königliches,der,Kleidung,kleinere,Masse,hat,gedachte,beteiligten,wurden,mit,kleinere,wissen,Lust,können,Dänemark,Mond,Liter,hält,wissen,Menge,stand,überwiegend,habe,durch,gehören,beschuldigten,"sporadisch,",wieder,Liter,kann,Mann,der,Erlebnisse,Zucker,Auto,260.000,wieder,,,,,,,,,,,,,,,,,,,,,,,3,0,3,0,0,3,3,3,,,,,,,,space,0.473806858063,,,,,,2017_Feb_03_1419,58.6025001362,spr_backupper,001,Do11,
,man,dank,36,ich,obschon,aus,Packung,solch,bekannten,"reichlichem,",schmutzige,aus,Stadt,Farbe,jetzt,mit,schmutziger,ein,ich,"trug,",man,Büschel,bei,Wohnung,schönen,schon,alten,richtige,Wohnung,mit,Bluts,den,"minimalem,",man,warmem,wurden,Kilowattstunden,wurden,sind,den,die,gelegentlich,auf,Fahrer,Farbe,war,die,"wertvollem,",36,landen,bekannten,Stimmung,schönen,"üblichem,",ausreichendem,Packung,dauerhaftem,"sämtlichem,","regelmäßigem,","Japan,",immer,Blut,Stadt,landen,"Delikte,",mit,uns,man,Fahrer,mit,solchen,"Delikte,",wir,auf,Neuwahlen,einen,dauerte,sprudelndes,nicht,wir,alten,ein,"nicht,",ich,Büschel,immer,die,obwohl,viel,sprudelnden,ich,das,vierte,bei,sind,dem,Kilowattstunden,viel,,,,,,,,,,,,,,,,,,,,,,,3,0,3,0,0,4,4,4,,,,,,,,space,0.453839063644,,,,,,2017_Feb_03_1419,58.6025001362,spr_backupper,001,Do11,
,den,täglichem,hätten,mehr,sie,feinem,salzige,unzureichenden,Skandal,purem,Wäsche.,seltenem,liegen,geschleudert.,"nachgewiesen,",einem,Wäsche.,Glas,leider,war,eine,frischen,minimalem,des,Wetter,immer,Kram,"Zeit,",des,"reichem,",hat,roten,sauberen,eine,weichem,serviert.,elektrische,serviert.,auf,roten,Tiere,einen,noch,wurden,geschleudert.,die,Störenfriede,klassischen,würden,im,Skandals,ziemlich,Wetters,harten,monatlichem,salziger,feinem,künftigem,kaltem,die,350,hat,liegen,im,deren,einem,die,der,wurden,zusätzlichem,unzureichenden,derer,von,noch,vor,gelegentlichen,ungefähr,Trinkwasser.,am,um,Krams,Glas,was,mehr,frisches,350,Störenfriede,sie,Lärm,Trinkwassers.,leider,Auto,Bundespräsident.,"frischem,",auf,Mann,elektrischer,Lärm,,,,,,,,,,,,,,,,,,,,,,,3,0,3,0,0,5,5,5,,,,,,,,space,0.732116937637,,,,,,2017_Feb_03_1419,58.6025001362,spr_backupper,001,Do11,
,Soldaten,grünen,seiner,als,defekt,dichten,Wurst,Helmen,wiedergewählt.,Alkohol,nan,dichten,die,nan,dass,Esslöffel,nan,köstlichen,nichts,aus,große,Grases,täglichen,Herrn,die,ruhig,aus,um,Herrn,goldenen,den,Planeten,Kraftstoff,große,Untergrund,nan,Energie.,nan,jeden,Planet,artgerecht,Besucher.,eine,verschrottet.,nan,Flut,jeden.,Schmuck,seiner,Müll.,wiedergewählt.,"vermiest,",die,Schaumstoff,Taschengeld,Wurst,Kunsteis,Einkommen,Abduschen,er,ml,den,die,Müll.,sie,Esslöffel,Stimmung,Soldaten,verschrottet.,schwarzem,Helmen,sie,den,eine,Dezember,Besucher.,drei,nan,Hauptbahnhof.,die,aus,köstlicher,Tupperware,als,Gras,ml,jeden.,defekt,um,nan,nichts,mehr,nan,kaltem,jeden,mehr,Energie.,um,,,,,,,,,,,,,,,,,,,,,,,3,0,3,0,0,6,6,6,,,,,,,,space,0.537305116653,,,,,,2017_Feb_03_1419,58.6025001362,spr_backupper,001,Do11,
,des,Tee,Frau,einmal,war.,Stoff,mit,zur,nan,verdünnt.,nan,Gewebe,Slums.,nan,das,warmen,nan,Weins,mitbringen.,Japan.,Menge,zwängen.,Einsatz,Gantenbein.,Wohnung.,diskutiert.,dem,Nadelhölzer,Gantenbeins.,Besatz,Boden,ganz,fahren.,Menge,liegen.,nan,nan,nan,Fall,ganz,gehalten.,nan,Sammlung,nan,nan,zurückgekehrt.,nan,umgearbeitet.,Frau,nan,nan,dass,Wohnung.,gefertigt.,selber,mit,eingesprüht.,haftbar.,gehärtet.,trug.,warmer,Boden,Slums.,nan,überführt,warmem,ziemlich,des,nan,Kaffee,zur,überführt,Problemen,Sammlung,stattfinden.,nan,Tage.,nan,nan,Probleme,dem,Wein,ist.,einmal,zwängen.,warme,nan,war.,jede,nan,mitbringen.,als,nan,Saft,Fall,als,nan,jede,,,,,,,,,,,,,,,,,,,,,,,3,0,3,0,0,7,7,7,,,,,,,,space,0.786283969879,,,,,,2017_Feb_03_1419,58.6025001362,spr_backupper,001,Do11,
,zweiten,wieder,gepasst.,Rilke.,nan,gefertigt.,an,Schule.,nan,nan,nan,wiederhergestellt.,nan,nan,Medikament,Honigs,nan,schon,nan,nan,dunkler,nan,sinken.,nan,nan,nan,Haus,umzusetzen.,nan,rekonstruiert.,berührt.,deutlich.,nan,dunkle,nan,nan,nan,nan,genug.,deutlich.,nan,nan,dummer,nan,nan,nan,nan,nan,gepasst,nan,nan,es,nan,nan,kaufen.,an,nan,nan,nan,nan,Milch.,berührt.,nan,nan,wurden.,Honig,vermiest.,zweiten,nan,wiederbelebt.,Schule.,wurden.,im,dumme,nan,nan,nan,nan,nan,im,Haus,schon,nan,Rilke,nan,Milch.,nan,nan,Menge,nan,nan,gerne.,nan,besprochen.,genug.,gerne.,nan,Menge,,,,,,,,,,,,,,,,,,,,,,,3,0,3,0,0,8,8,8,,,,,,,,space,0.873054027557,,,,,,2017_Feb_03_1419,58.6025001362,spr_backupper,001,Do11,
,,,,,,,,,,,,,,,,,,,,,,,,,,,,,,,,,,,,,,,,,,,,,,,,,,,,,,,,,,,,,,,,,,,,,,,,,,,,,,,,,,,,,,,,,,,,,,,,,,,,,,,,,,,,,,,,,,,,,,,,,3,0,3,0,,,,,,,,,,,,,,None,n,7.01479196548,,,2017_Feb_03_1419,58.6025001362,spr_backupper,001,Do11,
,Bei,Ich,Die,In,Die,Er,Ich,Die,Er,Die,Dort,Danach,Am,Es,In,Er,Dort,Bei,Außer,Die,Mit,Wir,Ihr,Die,Sie,Fernab,Wir,Jetzt,Die,Das,Nicht,Im,Wir,Mit,Jungtiere,Beträchtliche,Die,Beträchtliche,100,Im,In,Wir,Sie,Die,Es,Als,Außer,Die,Die,Viele,Er,Es,Sie,Alle,Jugendliche,Ich,Die,Manche,Die,Die,In,Nicht,Am,Viele,Es,Er,Dass,Bei,Die,Die,Die,Es,In,Sie,Unter,Wir,Der,Sie,Die,In,Wir,Bei,Die,In,Wir,In,Außer,Die,Man,Sie,Außer,Wir,Walter,Sie,100,Wir,Die,Man,,,,,,,,,,,,,,,,,,,,,,,4,0,4,0,0,0,0,0,,,,,,,space,space,0.925801038742,,,,0.000255107879639,,2017_Feb_03_1419,58.6025001362,spr_backupper,001,Do11,
,der,wurde,Schuhe,meinem,Uhr,hat,nehme,Kinder,wurde,Lösung,türmen,wurde,äußersten,wurden,einer,stellt,türmen,unserer,dem,"Uhr,",dieser,mussten,Blutdruck,Gäste,verlassen,des,haben,ist,Gäste,Tuch,ein,Fernrohr,konnten,dieser,sollten,Stücke,Schule,Stücke,g,Fernrohr,diesem,hatten,hatte,Autos,wurden,die,dem,Stücke,Schuhe,Tonnen,wurde,hat,verlassen,Betten,können,nehme,Eislaufbahnen,Kreditnehmer,Formen,Uhr,den,ein,äußeren,Tonnen,waren,stellt,es,der,Autos,müden,Kinder,waren,der,hatte,keinen,hatten,Flug,verbrauchen,Linie,der,haben,unserer,Teilnehmerinnen,meinem,mussten,den,den,Uhr,machte,verbrauchen,das,übergaben,Scheel,haben,g,übergaben,Schule,machte,,,,,,,,,,,,,,,,,,,,,,,4,0,4,0,0,1,1,1,,,,,,,,space,0.520422935486,,,,,,2017_Feb_03_1419,58.6025001362,spr_backupper,001,Do11,
,Feier,damals,in,Studium,schlug,ein,eine,fuhren,trotz,wird,sich,die,Rand,Eimer,Studie,die,sich,Ankunft,Essen,die,Methode,uns,kann,suchen,wegen,Rummels,jede,genau,suchen,wurde,Tropfen,sahen,dann,Methode,immer,saftiges,verbraucht,saftigen,braunen,sahen,Zirkus,in,keine,beider,Eimer,Sonne,Bürgermeister,wurden,in,gebrauchte,trotz,uns,wegen,wurden,Kleidung,eine,wurden,sind,wurden,war,Kakao,Tropfen,Rand,gebrauchter,nur,die,"regnete,",Feier,beider,Teilnehmer,fuhren,nur,Tat,keine,Umständen,in,zum,60,101,Tat,jede,Ankunft,wussten,Studium,uns,Kakao,Bürgermeister,schlug,mal,60,Essen,dem,war,die,brauner,das,verbraucht,mal,,,,,,,,,,,,,,,,,,,,,,,4,0,4,0,0,2,2,2,,,,,,,,space,0.445235013962,,,,,,2017_Feb_03_1419,58.6025001362,spr_backupper,001,Do11,
,gedachte,schnell,Größe,las,"sporadisch,",Hemd,große,mit,dem,mit,Berge,Leinwand,der,roter,wurde,Masse,Berge,stand,kann,er,kann,durch,schon,die,dem,wurde,Menge,die,die,dann,königlichen,wir,mit,kann,auf,Fleisch,260.000,Fleischs,Zuckers,wir,werden,Dänemark,Lust,beteiligter,rote,"unterging,",beschuldigten,aus,Größe,Kleidung,des,die,des,mit,bei,große,mit,mit,unter,aus,gehören,königliches,der,Kleidung,kleinere,Masse,hat,gedachte,beteiligten,wurden,mit,kleinere,wissen,Lust,können,Dänemark,Mond,Liter,hält,wissen,Menge,stand,überwiegend,habe,durch,gehören,beschuldigten,"sporadisch,",wieder,Liter,kann,Mann,der,Erlebnisse,Zucker,Auto,260.000,wieder,,,,,,,,,,,,,,,,,,,,,,,4,0,4,0,0,3,3,3,,,,,,,,space,0.551371097565,,,,,,2017_Feb_03_1419,58.6025001362,spr_backupper,001,Do11,
,man,dank,36,ich,obschon,aus,Packung,solch,bekannten,"reichlichem,",schmutzige,aus,Stadt,Farbe,jetzt,mit,schmutziger,ein,ich,"trug,",man,Büschel,bei,Wohnung,schönen,schon,alten,richtige,Wohnung,mit,Bluts,den,"minimalem,",man,warmem,wurden,Kilowattstunden,wurden,sind,den,die,gelegentlich,auf,Fahrer,Farbe,war,die,"wertvollem,",36,landen,bekannten,Stimmung,schönen,"üblichem,",ausreichendem,Packung,dauerhaftem,"sämtlichem,","regelmäßigem,","Japan,",immer,Blut,Stadt,landen,"Delikte,",mit,uns,man,Fahrer,mit,solchen,"Delikte,",wir,auf,Neuwahlen,einen,dauerte,sprudelndes,nicht,wir,alten,ein,"nicht,",ich,Büschel,immer,die,obwohl,viel,sprudelnden,ich,das,vierte,bei,sind,dem,Kilowattstunden,viel,,,,,,,,,,,,,,,,,,,,,,,4,0,4,0,0,4,4,4,,,,,,,,space,1.09085297585,,,,,,2017_Feb_03_1419,58.6025001362,spr_backupper,001,Do11,
,den,täglichem,hätten,mehr,sie,feinem,salzige,unzureichenden,Skandal,purem,Wäsche.,seltenem,liegen,geschleudert.,"nachgewiesen,",einem,Wäsche.,Glas,leider,war,eine,frischen,minimalem,des,Wetter,immer,Kram,"Zeit,",des,"reichem,",hat,roten,sauberen,eine,weichem,serviert.,elektrische,serviert.,auf,roten,Tiere,einen,noch,wurden,geschleudert.,die,Störenfriede,klassischen,würden,im,Skandals,ziemlich,Wetters,harten,monatlichem,salziger,feinem,künftigem,kaltem,die,350,hat,liegen,im,deren,einem,die,der,wurden,zusätzlichem,unzureichenden,derer,von,noch,vor,gelegentlichen,ungefähr,Trinkwasser.,am,um,Krams,Glas,was,mehr,frisches,350,Störenfriede,sie,Lärm,Trinkwassers.,leider,Auto,Bundespräsident.,"frischem,",auf,Mann,elektrischer,Lärm,,,,,,,,,,,,,,,,,,,,,,,4,0,4,0,0,5,5,5,,,,,,,,space,1.70869898796,,,,,,2017_Feb_03_1419,58.6025001362,spr_backupper,001,Do11,
,,,,,,,,,,,,,,,,,,,,,,,,,,,,,,,,,,,,,,,,,,,,,,,,,,,,,,,,,,,,,,,,,,,,,,,,,,,,,,,,,,,,,,,,,,,,,,,,,,,,,,,,,,,,,,,,,,,,,,,,,4,0,4,0,,,,,,,,,,,,,,None,j,3.21759295464,,,2017_Feb_03_1419,58.6025001362,spr_backupper,001,Do11,
,Bei,Ich,Die,In,Die,Er,Ich,Die,Er,Die,Dort,Danach,Am,Es,In,Er,Dort,Bei,Außer,Die,Mit,Wir,Ihr,Die,Sie,Fernab,Wir,Jetzt,Die,Das,Nicht,Im,Wir,Mit,Jungtiere,Beträchtliche,Die,Beträchtliche,100,Im,In,Wir,Sie,Die,Es,Als,Außer,Die,Die,Viele,Er,Es,Sie,Alle,Jugendliche,Ich,Die,Manche,Die,Die,In,Nicht,Am,Viele,Es,Er,Dass,Bei,Die,Die,Die,Es,In,Sie,Unter,Wir,Der,Sie,Die,In,Wir,Bei,Die,In,Wir,In,Außer,Die,Man,Sie,Außer,Wir,Walter,Sie,100,Wir,Die,Man,,,,,,,,,,,,,,,,,,,,,,,5,0,5,0,0,0,0,0,,,,,,,space,space,0.519538164139,,,,1.30862808228,,2017_Feb_03_1419,58.6025001362,spr_backupper,001,Do11,
,der,wurde,Schuhe,meinem,Uhr,hat,nehme,Kinder,wurde,Lösung,türmen,wurde,äußersten,wurden,einer,stellt,türmen,unserer,dem,"Uhr,",dieser,mussten,Blutdruck,Gäste,verlassen,des,haben,ist,Gäste,Tuch,ein,Fernrohr,konnten,dieser,sollten,Stücke,Schule,Stücke,g,Fernrohr,diesem,hatten,hatte,Autos,wurden,die,dem,Stücke,Schuhe,Tonnen,wurde,hat,verlassen,Betten,können,nehme,Eislaufbahnen,Kreditnehmer,Formen,Uhr,den,ein,äußeren,Tonnen,waren,stellt,es,der,Autos,müden,Kinder,waren,der,hatte,keinen,hatten,Flug,verbrauchen,Linie,der,haben,unserer,Teilnehmerinnen,meinem,mussten,den,den,Uhr,machte,verbrauchen,das,übergaben,Scheel,haben,g,übergaben,Schule,machte,,,,,,,,,,,,,,,,,,,,,,,5,0,5,0,0,1,1,1,,,,,,,,space,0.507405996323,,,,,,2017_Feb_03_1419,58.6025001362,spr_backupper,001,Do11,
,Feier,damals,in,Studium,schlug,ein,eine,fuhren,trotz,wird,sich,die,Rand,Eimer,Studie,die,sich,Ankunft,Essen,die,Methode,uns,kann,suchen,wegen,Rummels,jede,genau,suchen,wurde,Tropfen,sahen,dann,Methode,immer,saftiges,verbraucht,saftigen,braunen,sahen,Zirkus,in,keine,beider,Eimer,Sonne,Bürgermeister,wurden,in,gebrauchte,trotz,uns,wegen,wurden,Kleidung,eine,wurden,sind,wurden,war,Kakao,Tropfen,Rand,gebrauchter,nur,die,"regnete,",Feier,beider,Teilnehmer,fuhren,nur,Tat,keine,Umständen,in,zum,60,101,Tat,jede,Ankunft,wussten,Studium,uns,Kakao,Bürgermeister,schlug,mal,60,Essen,dem,war,die,brauner,das,verbraucht,mal,,,,,,,,,,,,,,,,,,,,,,,5,0,5,0,0,2,2,2,,,,,,,,space,0.470290184021,,,,,,2017_Feb_03_1419,58.6025001362,spr_backupper,001,Do11,
,gedachte,schnell,Größe,las,"sporadisch,",Hemd,große,mit,dem,mit,Berge,Leinwand,der,roter,wurde,Masse,Berge,stand,kann,er,kann,durch,schon,die,dem,wurde,Menge,die,die,dann,königlichen,wir,mit,kann,auf,Fleisch,260.000,Fleischs,Zuckers,wir,werden,Dänemark,Lust,beteiligter,rote,"unterging,",beschuldigten,aus,Größe,Kleidung,des,die,des,mit,bei,große,mit,mit,unter,aus,gehören,königliches,der,Kleidung,kleinere,Masse,hat,gedachte,beteiligten,wurden,mit,kleinere,wissen,Lust,können,Dänemark,Mond,Liter,hält,wissen,Menge,stand,überwiegend,habe,durch,gehören,beschuldigten,"sporadisch,",wieder,Liter,kann,Mann,der,Erlebnisse,Zucker,Auto,260.000,wieder,,,,,,,,,,,,,,,,,,,,,,,5,0,5,0,0,3,3,3,,,,,,,,space,0.375904083252,,,,,,2017_Feb_03_1419,58.6025001362,spr_backupper,001,Do11,
,man,dank,36,ich,obschon,aus,Packung,solch,bekannten,"reichlichem,",schmutzige,aus,Stadt,Farbe,jetzt,mit,schmutziger,ein,ich,"trug,",man,Büschel,bei,Wohnung,schönen,schon,alten,richtige,Wohnung,mit,Bluts,den,"minimalem,",man,warmem,wurden,Kilowattstunden,wurden,sind,den,die,gelegentlich,auf,Fahrer,Farbe,war,die,"wertvollem,",36,landen,bekannten,Stimmung,schönen,"üblichem,",ausreichendem,Packung,dauerhaftem,"sämtlichem,","regelmäßigem,","Japan,",immer,Blut,Stadt,landen,"Delikte,",mit,uns,man,Fahrer,mit,solchen,"Delikte,",wir,auf,Neuwahlen,einen,dauerte,sprudelndes,nicht,wir,alten,ein,"nicht,",ich,Büschel,immer,die,obwohl,viel,sprudelnden,ich,das,vierte,bei,sind,dem,Kilowattstunden,viel,,,,,,,,,,,,,,,,,,,,,,,5,0,5,0,0,4,4,4,,,,,,,,space,0.754642009735,,,,,,2017_Feb_03_1419,58.6025001362,spr_backupper,001,Do11,
,den,täglichem,hätten,mehr,sie,feinem,salzige,unzureichenden,Skandal,purem,Wäsche.,seltenem,liegen,geschleudert.,"nachgewiesen,",einem,Wäsche.,Glas,leider,war,eine,frischen,minimalem,des,Wetter,immer,Kram,"Zeit,",des,"reichem,",hat,roten,sauberen,eine,weichem,serviert.,elektrische,serviert.,auf,roten,Tiere,einen,noch,wurden,geschleudert.,die,Störenfriede,klassischen,würden,im,Skandals,ziemlich,Wetters,harten,monatlichem,salziger,feinem,künftigem,kaltem,die,350,hat,liegen,im,deren,einem,die,der,wurden,zusätzlichem,unzureichenden,derer,von,noch,vor,gelegentlichen,ungefähr,Trinkwasser.,am,um,Krams,Glas,was,mehr,frisches,350,Störenfriede,sie,Lärm,Trinkwassers.,leider,Auto,Bundespräsident.,"frischem,",auf,Mann,elektrischer,Lärm,,,,,,,,,,,,,,,,,,,,,,,5,0,5,0,0,5,5,5,,,,,,,,space,0.604718923569,,,,,,2017_Feb_03_1419,58.6025001362,spr_backupper,001,Do11,
,Soldaten,grünen,seiner,als,defekt,dichten,Wurst,Helmen,wiedergewählt.,Alkohol,nan,dichten,die,nan,dass,Esslöffel,nan,köstlichen,nichts,aus,große,Grases,täglichen,Herrn,die,ruhig,aus,um,Herrn,goldenen,den,Planeten,Kraftstoff,große,Untergrund,nan,Energie.,nan,jeden,Planet,artgerecht,Besucher.,eine,verschrottet.,nan,Flut,jeden.,Schmuck,seiner,Müll.,wiedergewählt.,"vermiest,",die,Schaumstoff,Taschengeld,Wurst,Kunsteis,Einkommen,Abduschen,er,ml,den,die,Müll.,sie,Esslöffel,Stimmung,Soldaten,verschrottet.,schwarzem,Helmen,sie,den,eine,Dezember,Besucher.,drei,nan,Hauptbahnhof.,die,aus,köstlicher,Tupperware,als,Gras,ml,jeden.,defekt,um,nan,nichts,mehr,nan,kaltem,jeden,mehr,Energie.,um,,,,,,,,,,,,,,,,,,,,,,,5,0,5,0,0,6,6,6,,,,,,,,space,0.603481054306,,,,,,2017_Feb_03_1419,58.6025001362,spr_backupper,001,Do11,
,des,Tee,Frau,einmal,war.,Stoff,mit,zur,nan,verdünnt.,nan,Gewebe,Slums.,nan,das,warmen,nan,Weins,mitbringen.,Japan.,Menge,zwängen.,Einsatz,Gantenbein.,Wohnung.,diskutiert.,dem,Nadelhölzer,Gantenbeins.,Besatz,Boden,ganz,fahren.,Menge,liegen.,nan,nan,nan,Fall,ganz,gehalten.,nan,Sammlung,nan,nan,zurückgekehrt.,nan,umgearbeitet.,Frau,nan,nan,dass,Wohnung.,gefertigt.,selber,mit,eingesprüht.,haftbar.,gehärtet.,trug.,warmer,Boden,Slums.,nan,überführt,warmem,ziemlich,des,nan,Kaffee,zur,überführt,Problemen,Sammlung,stattfinden.,nan,Tage.,nan,nan,Probleme,dem,Wein,ist.,einmal,zwängen.,warme,nan,war.,jede,nan,mitbringen.,als,nan,Saft,Fall,als,nan,jede,,,,,,,,,,,,,,,,,,,,,,,5,0,5,0,0,7,7,7,,,,,,,,space,1.93686103821,,,,,,2017_Feb_03_1419,58.6025001362,spr_backupper,001,Do11,
,,,,,,,,,,,,,,,,,,,,,,,,,,,,,,,,,,,,,,,,,,,,,,,,,,,,,,,,,,,,,,,,,,,,,,,,,,,,,,,,,,,,,,,,,,,,,,,,,,,,,,,,,,,,,,,,,,,,,,,,,5,0,5,0,,,,,,,,,,,,,,None,n,7.30854201317,,,2017_Feb_03_1419,58.6025001362,spr_backupper,001,Do11,
,Bei,Ich,Die,In,Die,Er,Ich,Die,Er,Die,Dort,Danach,Am,Es,In,Er,Dort,Bei,Außer,Die,Mit,Wir,Ihr,Die,Sie,Fernab,Wir,Jetzt,Die,Das,Nicht,Im,Wir,Mit,Jungtiere,Beträchtliche,Die,Beträchtliche,100,Im,In,Wir,Sie,Die,Es,Als,Außer,Die,Die,Viele,Er,Es,Sie,Alle,Jugendliche,Ich,Die,Manche,Die,Die,In,Nicht,Am,Viele,Es,Er,Dass,Bei,Die,Die,Die,Es,In,Sie,Unter,Wir,Der,Sie,Die,In,Wir,Bei,Die,In,Wir,In,Außer,Die,Man,Sie,Außer,Wir,Walter,Sie,100,Wir,Die,Man,,,,,,,,,,,,,,,,,,,,,,,6,0,6,0,0,0,0,0,,,,,,,None,space,0.851585865021,,,,,,2017_Feb_03_1419,58.6025001362,spr_backupper,001,Do11,
,der,wurde,Schuhe,meinem,Uhr,hat,nehme,Kinder,wurde,Lösung,türmen,wurde,äußersten,wurden,einer,stellt,türmen,unserer,dem,"Uhr,",dieser,mussten,Blutdruck,Gäste,verlassen,des,haben,ist,Gäste,Tuch,ein,Fernrohr,konnten,dieser,sollten,Stücke,Schule,Stücke,g,Fernrohr,diesem,hatten,hatte,Autos,wurden,die,dem,Stücke,Schuhe,Tonnen,wurde,hat,verlassen,Betten,können,nehme,Eislaufbahnen,Kreditnehmer,Formen,Uhr,den,ein,äußeren,Tonnen,waren,stellt,es,der,Autos,müden,Kinder,waren,der,hatte,keinen,hatten,Flug,verbrauchen,Linie,der,haben,unserer,Teilnehmerinnen,meinem,mussten,den,den,Uhr,machte,verbrauchen,das,übergaben,Scheel,haben,g,übergaben,Schule,machte,,,,,,,,,,,,,,,,,,,,,,,6,0,6,0,0,1,1,1,,,,,,,,space,0.424734830856,,,,,,2017_Feb_03_1419,58.6025001362,spr_backupper,001,Do11,
,Feier,damals,in,Studium,schlug,ein,eine,fuhren,trotz,wird,sich,die,Rand,Eimer,Studie,die,sich,Ankunft,Essen,die,Methode,uns,kann,suchen,wegen,Rummels,jede,genau,suchen,wurde,Tropfen,sahen,dann,Methode,immer,saftiges,verbraucht,saftigen,braunen,sahen,Zirkus,in,keine,beider,Eimer,Sonne,Bürgermeister,wurden,in,gebrauchte,trotz,uns,wegen,wurden,Kleidung,eine,wurden,sind,wurden,war,Kakao,Tropfen,Rand,gebrauchter,nur,die,"regnete,",Feier,beider,Teilnehmer,fuhren,nur,Tat,keine,Umständen,in,zum,60,101,Tat,jede,Ankunft,wussten,Studium,uns,Kakao,Bürgermeister,schlug,mal,60,Essen,dem,war,die,brauner,das,verbraucht,mal,,,,,,,,,,,,,,,,,,,,,,,6,0,6,0,0,2,2,2,,,,,,,,space,0.886878967285,,,,,,2017_Feb_03_1419,58.6025001362,spr_backupper,001,Do11,
,gedachte,schnell,Größe,las,"sporadisch,",Hemd,große,mit,dem,mit,Berge,Leinwand,der,roter,wurde,Masse,Berge,stand,kann,er,kann,durch,schon,die,dem,wurde,Menge,die,die,dann,königlichen,wir,mit,kann,auf,Fleisch,260.000,Fleischs,Zuckers,wir,werden,Dänemark,Lust,beteiligter,rote,"unterging,",beschuldigten,aus,Größe,Kleidung,des,die,des,mit,bei,große,mit,mit,unter,aus,gehören,königliches,der,Kleidung,kleinere,Masse,hat,gedachte,beteiligten,wurden,mit,kleinere,wissen,Lust,können,Dänemark,Mond,Liter,hält,wissen,Menge,stand,überwiegend,habe,durch,gehören,beschuldigten,"sporadisch,",wieder,Liter,kann,Mann,der,Erlebnisse,Zucker,Auto,260.000,wieder,,,,,,,,,,,,,,,,,,,,,,,6,0,6,0,0,3,3,3,,,,,,,,space,0.417322158813,,,,,,2017_Feb_03_1419,58.6025001362,spr_backupper,001,Do11,
,man,dank,36,ich,obschon,aus,Packung,solch,bekannten,"reichlichem,",schmutzige,aus,Stadt,Farbe,jetzt,mit,schmutziger,ein,ich,"trug,",man,Büschel,bei,Wohnung,schönen,schon,alten,richtige,Wohnung,mit,Bluts,den,"minimalem,",man,warmem,wurden,Kilowattstunden,wurden,sind,den,die,gelegentlich,auf,Fahrer,Farbe,war,die,"wertvollem,",36,landen,bekannten,Stimmung,schönen,"üblichem,",ausreichendem,Packung,dauerhaftem,"sämtlichem,","regelmäßigem,","Japan,",immer,Blut,Stadt,landen,"Delikte,",mit,uns,man,Fahrer,mit,solchen,"Delikte,",wir,auf,Neuwahlen,einen,dauerte,sprudelndes,nicht,wir,alten,ein,"nicht,",ich,Büschel,immer,die,obwohl,viel,sprudelnden,ich,das,vierte,bei,sind,dem,Kilowattstunden,viel,,,,,,,,,,,,,,,,,,,,,,,6,0,6,0,0,4,4,4,,,,,,,,space,0.686439037323,,,,,,2017_Feb_03_1419,58.6025001362,spr_backupper,001,Do11,
,den,täglichem,hätten,mehr,sie,feinem,salzige,unzureichenden,Skandal,purem,Wäsche.,seltenem,liegen,geschleudert.,"nachgewiesen,",einem,Wäsche.,Glas,leider,war,eine,frischen,minimalem,des,Wetter,immer,Kram,"Zeit,",des,"reichem,",hat,roten,sauberen,eine,weichem,serviert.,elektrische,serviert.,auf,roten,Tiere,einen,noch,wurden,geschleudert.,die,Störenfriede,klassischen,würden,im,Skandals,ziemlich,Wetters,harten,monatlichem,salziger,feinem,künftigem,kaltem,die,350,hat,liegen,im,deren,einem,die,der,wurden,zusätzlichem,unzureichenden,derer,von,noch,vor,gelegentlichen,ungefähr,Trinkwasser.,am,um,Krams,Glas,was,mehr,frisches,350,Störenfriede,sie,Lärm,Trinkwassers.,leider,Auto,Bundespräsident.,"frischem,",auf,Mann,elektrischer,Lärm,,,,,,,,,,,,,,,,,,,,,,,6,0,6,0,0,5,5,5,,,,,,,,space,0.557779788971,,,,,,2017_Feb_03_1419,58.6025001362,spr_backupper,001,Do11,
,Soldaten,grünen,seiner,als,defekt,dichten,Wurst,Helmen,wiedergewählt.,Alkohol,nan,dichten,die,nan,dass,Esslöffel,nan,köstlichen,nichts,aus,große,Grases,täglichen,Herrn,die,ruhig,aus,um,Herrn,goldenen,den,Planeten,Kraftstoff,große,Untergrund,nan,Energie.,nan,jeden,Planet,artgerecht,Besucher.,eine,verschrottet.,nan,Flut,jeden.,Schmuck,seiner,Müll.,wiedergewählt.,"vermiest,",die,Schaumstoff,Taschengeld,Wurst,Kunsteis,Einkommen,Abduschen,er,ml,den,die,Müll.,sie,Esslöffel,Stimmung,Soldaten,verschrottet.,schwarzem,Helmen,sie,den,eine,Dezember,Besucher.,drei,nan,Hauptbahnhof.,die,aus,köstlicher,Tupperware,als,Gras,ml,jeden.,defekt,um,nan,nichts,mehr,nan,kaltem,jeden,mehr,Energie.,um,,,,,,,,,,,,,,,,,,,,,,,6,0,6,0,0,6,6,6,,,,,,,,space,0.957077026367,,,,,,2017_Feb_03_1419,58.6025001362,spr_backupper,001,Do11,
,,,,,,,,,,,,,,,,,,,,,,,,,,,,,,,,,,,,,,,,,,,,,,,,,,,,,,,,,,,,,,,,,,,,,,,,,,,,,,,,,,,,,,,,,,,,,,,,,,,,,,,,,,,,,,,,,,,,,,,,,6,0,6,0,,,,,,,,,,,,,,None,n,3.41171002388,,,2017_Feb_03_1419,58.6025001362,spr_backupper,001,Do11,
,Bei,Ich,Die,In,Die,Er,Ich,Die,Er,Die,Dort,Danach,Am,Es,In,Er,Dort,Bei,Außer,Die,Mit,Wir,Ihr,Die,Sie,Fernab,Wir,Jetzt,Die,Das,Nicht,Im,Wir,Mit,Jungtiere,Beträchtliche,Die,Beträchtliche,100,Im,In,Wir,Sie,Die,Es,Als,Außer,Die,Die,Viele,Er,Es,Sie,Alle,Jugendliche,Ich,Die,Manche,Die,Die,In,Nicht,Am,Viele,Es,Er,Dass,Bei,Die,Die,Die,Es,In,Sie,Unter,Wir,Der,Sie,Die,In,Wir,Bei,Die,In,Wir,In,Außer,Die,Man,Sie,Außer,Wir,Walter,Sie,100,Wir,Die,Man,,,,,,,,,,,,,,,,,,,,,,,7,0,7,0,0,0,0,0,,,,,,,space,space,0.562866926193,,,,0.905028104782,,2017_Feb_03_1419,58.6025001362,spr_backupper,001,Do11,
,der,wurde,Schuhe,meinem,Uhr,hat,nehme,Kinder,wurde,Lösung,türmen,wurde,äußersten,wurden,einer,stellt,türmen,unserer,dem,"Uhr,",dieser,mussten,Blutdruck,Gäste,verlassen,des,haben,ist,Gäste,Tuch,ein,Fernrohr,konnten,dieser,sollten,Stücke,Schule,Stücke,g,Fernrohr,diesem,hatten,hatte,Autos,wurden,die,dem,Stücke,Schuhe,Tonnen,wurde,hat,verlassen,Betten,können,nehme,Eislaufbahnen,Kreditnehmer,Formen,Uhr,den,ein,äußeren,Tonnen,waren,stellt,es,der,Autos,müden,Kinder,waren,der,hatte,keinen,hatten,Flug,verbrauchen,Linie,der,haben,unserer,Teilnehmerinnen,meinem,mussten,den,den,Uhr,machte,verbrauchen,das,übergaben,Scheel,haben,g,übergaben,Schule,machte,,,,,,,,,,,,,,,,,,,,,,,7,0,7,0,0,1,1,1,,,,,,,,space,1.10766291618,,,,,,2017_Feb_03_1419,58.6025001362,spr_backupper,001,Do11,
,Feier,damals,in,Studium,schlug,ein,eine,fuhren,trotz,wird,sich,die,Rand,Eimer,Studie,die,sich,Ankunft,Essen,die,Methode,uns,kann,suchen,wegen,Rummels,jede,genau,suchen,wurde,Tropfen,sahen,dann,Methode,immer,saftiges,verbraucht,saftigen,braunen,sahen,Zirkus,in,keine,beider,Eimer,Sonne,Bürgermeister,wurden,in,gebrauchte,trotz,uns,wegen,wurden,Kleidung,eine,wurden,sind,wurden,war,Kakao,Tropfen,Rand,gebrauchter,nur,die,"regnete,",Feier,beider,Teilnehmer,fuhren,nur,Tat,keine,Umständen,in,zum,60,101,Tat,jede,Ankunft,wussten,Studium,uns,Kakao,Bürgermeister,schlug,mal,60,Essen,dem,war,die,brauner,das,verbraucht,mal,,,,,,,,,,,,,,,,,,,,,,,7,0,7,0,0,2,2,2,,,,,,,,space,0.854751825333,,,,,,2017_Feb_03_1419,58.6025001362,spr_backupper,001,Do11,
,gedachte,schnell,Größe,las,"sporadisch,",Hemd,große,mit,dem,mit,Berge,Leinwand,der,roter,wurde,Masse,Berge,stand,kann,er,kann,durch,schon,die,dem,wurde,Menge,die,die,dann,königlichen,wir,mit,kann,auf,Fleisch,260.000,Fleischs,Zuckers,wir,werden,Dänemark,Lust,beteiligter,rote,"unterging,",beschuldigten,aus,Größe,Kleidung,des,die,des,mit,bei,große,mit,mit,unter,aus,gehören,königliches,der,Kleidung,kleinere,Masse,hat,gedachte,beteiligten,wurden,mit,kleinere,wissen,Lust,können,Dänemark,Mond,Liter,hält,wissen,Menge,stand,überwiegend,habe,durch,gehören,beschuldigten,"sporadisch,",wieder,Liter,kann,Mann,der,Erlebnisse,Zucker,Auto,260.000,wieder,,,,,,,,,,,,,,,,,,,,,,,7,0,7,0,0,3,3,3,,,,,,,,space,0.481020927429,,,,,,2017_Feb_03_1419,58.6025001362,spr_backupper,001,Do11,
,man,dank,36,ich,obschon,aus,Packung,solch,bekannten,"reichlichem,",schmutzige,aus,Stadt,Farbe,jetzt,mit,schmutziger,ein,ich,"trug,",man,Büschel,bei,Wohnung,schönen,schon,alten,richtige,Wohnung,mit,Bluts,den,"minimalem,",man,warmem,wurden,Kilowattstunden,wurden,sind,den,die,gelegentlich,auf,Fahrer,Farbe,war,die,"wertvollem,",36,landen,bekannten,Stimmung,schönen,"üblichem,",ausreichendem,Packung,dauerhaftem,"sämtlichem,","regelmäßigem,","Japan,",immer,Blut,Stadt,landen,"Delikte,",mit,uns,man,Fahrer,mit,solchen,"Delikte,",wir,auf,Neuwahlen,einen,dauerte,sprudelndes,nicht,wir,alten,ein,"nicht,",ich,Büschel,immer,die,obwohl,viel,sprudelnden,ich,das,vierte,bei,sind,dem,Kilowattstunden,viel,,,,,,,,,,,,,,,,,,,,,,,7,0,7,0,0,4,4,4,,,,,,,,space,0.453103065491,,,,,,2017_Feb_03_1419,58.6025001362,spr_backupper,001,Do11,
,den,täglichem,hätten,mehr,sie,feinem,salzige,unzureichenden,Skandal,purem,Wäsche.,seltenem,liegen,geschleudert.,"nachgewiesen,",einem,Wäsche.,Glas,leider,war,eine,frischen,minimalem,des,Wetter,immer,Kram,"Zeit,",des,"reichem,",hat,roten,sauberen,eine,weichem,serviert.,elektrische,serviert.,auf,roten,Tiere,einen,noch,wurden,geschleudert.,die,Störenfriede,klassischen,würden,im,Skandals,ziemlich,Wetters,harten,monatlichem,salziger,feinem,künftigem,kaltem,die,350,hat,liegen,im,deren,einem,die,der,wurden,zusätzlichem,unzureichenden,derer,von,noch,vor,gelegentlichen,ungefähr,Trinkwasser.,am,um,Krams,Glas,was,mehr,frisches,350,Störenfriede,sie,Lärm,Trinkwassers.,leider,Auto,Bundespräsident.,"frischem,",auf,Mann,elektrischer,Lärm,,,,,,,,,,,,,,,,,,,,,,,7,0,7,0,0,5,5,5,,,,,,,,space,0.419726133347,,,,,,2017_Feb_03_1419,58.6025001362,spr_backupper,001,Do11,
,Soldaten,grünen,seiner,als,defekt,dichten,Wurst,Helmen,wiedergewählt.,Alkohol,nan,dichten,die,nan,dass,Esslöffel,nan,köstlichen,nichts,aus,große,Grases,täglichen,Herrn,die,ruhig,aus,um,Herrn,goldenen,den,Planeten,Kraftstoff,große,Untergrund,nan,Energie.,nan,jeden,Planet,artgerecht,Besucher.,eine,verschrottet.,nan,Flut,jeden.,Schmuck,seiner,Müll.,wiedergewählt.,"vermiest,",die,Schaumstoff,Taschengeld,Wurst,Kunsteis,Einkommen,Abduschen,er,ml,den,die,Müll.,sie,Esslöffel,Stimmung,Soldaten,verschrottet.,schwarzem,Helmen,sie,den,eine,Dezember,Besucher.,drei,nan,Hauptbahnhof.,die,aus,köstlicher,Tupperware,als,Gras,ml,jeden.,defekt,um,nan,nichts,mehr,nan,kaltem,jeden,mehr,Energie.,um,,,,,,,,,,,,,,,,,,,,,,,7,0,7,0,0,6,6,6,,,,,,,,space,0.434158802032,,,,,,2017_Feb_03_1419,58.6025001362,spr_backupper,001,Do11,
,des,Tee,Frau,einmal,war.,Stoff,mit,zur,nan,verdünnt.,nan,Gewebe,Slums.,nan,das,warmen,nan,Weins,mitbringen.,Japan.,Menge,zwängen.,Einsatz,Gantenbein.,Wohnung.,diskutiert.,dem,Nadelhölzer,Gantenbeins.,Besatz,Boden,ganz,fahren.,Menge,liegen.,nan,nan,nan,Fall,ganz,gehalten.,nan,Sammlung,nan,nan,zurückgekehrt.,nan,umgearbeitet.,Frau,nan,nan,dass,Wohnung.,gefertigt.,selber,mit,eingesprüht.,haftbar.,gehärtet.,trug.,warmer,Boden,Slums.,nan,überführt,warmem,ziemlich,des,nan,Kaffee,zur,überführt,Problemen,Sammlung,stattfinden.,nan,Tage.,nan,nan,Probleme,dem,Wein,ist.,einmal,zwängen.,warme,nan,war.,jede,nan,mitbringen.,als,nan,Saft,Fall,als,nan,jede,,,,,,,,,,,,,,,,,,,,,,,7,0,7,0,0,7,7,7,,,,,,,,space,0.409649848938,,,,,,2017_Feb_03_1419,58.6025001362,spr_backupper,001,Do11,
,zweiten,wieder,gepasst.,Rilke.,nan,gefertigt.,an,Schule.,nan,nan,nan,wiederhergestellt.,nan,nan,Medikament,Honigs,nan,schon,nan,nan,dunkler,nan,sinken.,nan,nan,nan,Haus,umzusetzen.,nan,rekonstruiert.,berührt.,deutlich.,nan,dunkle,nan,nan,nan,nan,genug.,deutlich.,nan,nan,dummer,nan,nan,nan,nan,nan,gepasst,nan,nan,es,nan,nan,kaufen.,an,nan,nan,nan,nan,Milch.,berührt.,nan,nan,wurden.,Honig,vermiest.,zweiten,nan,wiederbelebt.,Schule.,wurden.,im,dumme,nan,nan,nan,nan,nan,im,Haus,schon,nan,Rilke,nan,Milch.,nan,nan,Menge,nan,nan,gerne.,nan,besprochen.,genug.,gerne.,nan,Menge,,,,,,,,,,,,,,,,,,,,,,,7,0,7,0,0,8,8,8,,,,,,,,space,1.16344594955,,,,,,2017_Feb_03_1419,58.6025001362,spr_backupper,001,Do11,
,,,,,,,,,,,,,,,,,,,,,,,,,,,,,,,,,,,,,,,,,,,,,,,,,,,,,,,,,,,,,,,,,,,,,,,,,,,,,,,,,,,,,,,,,,,,,,,,,,,,,,,,,,,,,,,,,,,,,,,,,7,0,7,0,,,,,,,,,,,,,,None,j,3.09577703476,,,2017_Feb_03_1419,58.6025001362,spr_backupper,001,Do11,
,Bei,Ich,Die,In,Die,Er,Ich,Die,Er,Die,Dort,Danach,Am,Es,In,Er,Dort,Bei,Außer,Die,Mit,Wir,Ihr,Die,Sie,Fernab,Wir,Jetzt,Die,Das,Nicht,Im,Wir,Mit,Jungtiere,Beträchtliche,Die,Beträchtliche,100,Im,In,Wir,Sie,Die,Es,Als,Außer,Die,Die,Viele,Er,Es,Sie,Alle,Jugendliche,Ich,Die,Manche,Die,Die,In,Nicht,Am,Viele,Es,Er,Dass,Bei,Die,Die,Die,Es,In,Sie,Unter,Wir,Der,Sie,Die,In,Wir,Bei,Die,In,Wir,In,Außer,Die,Man,Sie,Außer,Wir,Walter,Sie,100,Wir,Die,Man,,,,,,,,,,,,,,,,,,,,,,,8,0,8,0,0,0,0,0,,,,,,,None,space,0.05029296875,,,,,,2017_Feb_03_1419,58.6025001362,spr_backupper,001,Do11,
,der,wurde,Schuhe,meinem,Uhr,hat,nehme,Kinder,wurde,Lösung,türmen,wurde,äußersten,wurden,einer,stellt,türmen,unserer,dem,"Uhr,",dieser,mussten,Blutdruck,Gäste,verlassen,des,haben,ist,Gäste,Tuch,ein,Fernrohr,konnten,dieser,sollten,Stücke,Schule,Stücke,g,Fernrohr,diesem,hatten,hatte,Autos,wurden,die,dem,Stücke,Schuhe,Tonnen,wurde,hat,verlassen,Betten,können,nehme,Eislaufbahnen,Kreditnehmer,Formen,Uhr,den,ein,äußeren,Tonnen,waren,stellt,es,der,Autos,müden,Kinder,waren,der,hatte,keinen,hatten,Flug,verbrauchen,Linie,der,haben,unserer,Teilnehmerinnen,meinem,mussten,den,den,Uhr,machte,verbrauchen,das,übergaben,Scheel,haben,g,übergaben,Schule,machte,,,,,,,,,,,,,,,,,,,,,,,8,0,8,0,0,1,1,1,,,,,,,,space,1.09020090103,,,,,,2017_Feb_03_1419,58.6025001362,spr_backupper,001,Do11,
,Feier,damals,in,Studium,schlug,ein,eine,fuhren,trotz,wird,sich,die,Rand,Eimer,Studie,die,sich,Ankunft,Essen,die,Methode,uns,kann,suchen,wegen,Rummels,jede,genau,suchen,wurde,Tropfen,sahen,dann,Methode,immer,saftiges,verbraucht,saftigen,braunen,sahen,Zirkus,in,keine,beider,Eimer,Sonne,Bürgermeister,wurden,in,gebrauchte,trotz,uns,wegen,wurden,Kleidung,eine,wurden,sind,wurden,war,Kakao,Tropfen,Rand,gebrauchter,nur,die,"regnete,",Feier,beider,Teilnehmer,fuhren,nur,Tat,keine,Umständen,in,zum,60,101,Tat,jede,Ankunft,wussten,Studium,uns,Kakao,Bürgermeister,schlug,mal,60,Essen,dem,war,die,brauner,das,verbraucht,mal,,,,,,,,,,,,,,,,,,,,,,,8,0,8,0,0,2,2,2,,,,,,,,space,0.711632013321,,,,,,2017_Feb_03_1419,58.6025001362,spr_backupper,001,Do11,
,gedachte,schnell,Größe,las,"sporadisch,",Hemd,große,mit,dem,mit,Berge,Leinwand,der,roter,wurde,Masse,Berge,stand,kann,er,kann,durch,schon,die,dem,wurde,Menge,die,die,dann,königlichen,wir,mit,kann,auf,Fleisch,260.000,Fleischs,Zuckers,wir,werden,Dänemark,Lust,beteiligter,rote,"unterging,",beschuldigten,aus,Größe,Kleidung,des,die,des,mit,bei,große,mit,mit,unter,aus,gehören,königliches,der,Kleidung,kleinere,Masse,hat,gedachte,beteiligten,wurden,mit,kleinere,wissen,Lust,können,Dänemark,Mond,Liter,hält,wissen,Menge,stand,überwiegend,habe,durch,gehören,beschuldigten,"sporadisch,",wieder,Liter,kann,Mann,der,Erlebnisse,Zucker,Auto,260.000,wieder,,,,,,,,,,,,,,,,,,,,,,,8,0,8,0,0,3,3,3,,,,,,,,space,0.547369003296,,,,,,2017_Feb_03_1419,58.6025001362,spr_backupper,001,Do11,
,man,dank,36,ich,obschon,aus,Packung,solch,bekannten,"reichlichem,",schmutzige,aus,Stadt,Farbe,jetzt,mit,schmutziger,ein,ich,"trug,",man,Büschel,bei,Wohnung,schönen,schon,alten,richtige,Wohnung,mit,Bluts,den,"minimalem,",man,warmem,wurden,Kilowattstunden,wurden,sind,den,die,gelegentlich,auf,Fahrer,Farbe,war,die,"wertvollem,",36,landen,bekannten,Stimmung,schönen,"üblichem,",ausreichendem,Packung,dauerhaftem,"sämtlichem,","regelmäßigem,","Japan,",immer,Blut,Stadt,landen,"Delikte,",mit,uns,man,Fahrer,mit,solchen,"Delikte,",wir,auf,Neuwahlen,einen,dauerte,sprudelndes,nicht,wir,alten,ein,"nicht,",ich,Büschel,immer,die,obwohl,viel,sprudelnden,ich,das,vierte,bei,sind,dem,Kilowattstunden,viel,,,,,,,,,,,,,,,,,,,,,,,8,0,8,0,0,4,4,4,,,,,,,,space,0.65470290184,,,,,,2017_Feb_03_1419,58.6025001362,spr_backupper,001,Do11,
,den,täglichem,hätten,mehr,sie,feinem,salzige,unzureichenden,Skandal,purem,Wäsche.,seltenem,liegen,geschleudert.,"nachgewiesen,",einem,Wäsche.,Glas,leider,war,eine,frischen,minimalem,des,Wetter,immer,Kram,"Zeit,",des,"reichem,",hat,roten,sauberen,eine,weichem,serviert.,elektrische,serviert.,auf,roten,Tiere,einen,noch,wurden,geschleudert.,die,Störenfriede,klassischen,würden,im,Skandals,ziemlich,Wetters,harten,monatlichem,salziger,feinem,künftigem,kaltem,die,350,hat,liegen,im,deren,einem,die,der,wurden,zusätzlichem,unzureichenden,derer,von,noch,vor,gelegentlichen,ungefähr,Trinkwasser.,am,um,Krams,Glas,was,mehr,frisches,350,Störenfriede,sie,Lärm,Trinkwassers.,leider,Auto,Bundespräsident.,"frischem,",auf,Mann,elektrischer,Lärm,,,,,,,,,,,,,,,,,,,,,,,8,0,8,0,0,5,5,5,,,,,,,,space,0.493045806885,,,,,,2017_Feb_03_1419,58.6025001362,spr_backupper,001,Do11,
,Soldaten,grünen,seiner,als,defekt,dichten,Wurst,Helmen,wiedergewählt.,Alkohol,nan,dichten,die,nan,dass,Esslöffel,nan,köstlichen,nichts,aus,große,Grases,täglichen,Herrn,die,ruhig,aus,um,Herrn,goldenen,den,Planeten,Kraftstoff,große,Untergrund,nan,Energie.,nan,jeden,Planet,artgerecht,Besucher.,eine,verschrottet.,nan,Flut,jeden.,Schmuck,seiner,Müll.,wiedergewählt.,"vermiest,",die,Schaumstoff,Taschengeld,Wurst,Kunsteis,Einkommen,Abduschen,er,ml,den,die,Müll.,sie,Esslöffel,Stimmung,Soldaten,verschrottet.,schwarzem,Helmen,sie,den,eine,Dezember,Besucher.,drei,nan,Hauptbahnhof.,die,aus,köstlicher,Tupperware,als,Gras,ml,jeden.,defekt,um,nan,nichts,mehr,nan,kaltem,jeden,mehr,Energie.,um,,,,,,,,,,,,,,,,,,,,,,,8,0,8,0,0,6,6,6,,,,,,,,space,0.502043962479,,,,,,2017_Feb_03_1419,58.6025001362,spr_backupper,001,Do11,
,des,Tee,Frau,einmal,war.,Stoff,mit,zur,nan,verdünnt.,nan,Gewebe,Slums.,nan,das,warmen,nan,Weins,mitbringen.,Japan.,Menge,zwängen.,Einsatz,Gantenbein.,Wohnung.,diskutiert.,dem,Nadelhölzer,Gantenbeins.,Besatz,Boden,ganz,fahren.,Menge,liegen.,nan,nan,nan,Fall,ganz,gehalten.,nan,Sammlung,nan,nan,zurückgekehrt.,nan,umgearbeitet.,Frau,nan,nan,dass,Wohnung.,gefertigt.,selber,mit,eingesprüht.,haftbar.,gehärtet.,trug.,warmer,Boden,Slums.,nan,überführt,warmem,ziemlich,des,nan,Kaffee,zur,überführt,Problemen,Sammlung,stattfinden.,nan,Tage.,nan,nan,Probleme,dem,Wein,ist.,einmal,zwängen.,warme,nan,war.,jede,nan,mitbringen.,als,nan,Saft,Fall,als,nan,jede,,,,,,,,,,,,,,,,,,,,,,,8,0,8,0,0,7,7,7,,,,,,,,space,0.419506072998,,,,,,2017_Feb_03_1419,58.6025001362,spr_backupper,001,Do11,
,zweiten,wieder,gepasst.,Rilke.,nan,gefertigt.,an,Schule.,nan,nan,nan,wiederhergestellt.,nan,nan,Medikament,Honigs,nan,schon,nan,nan,dunkler,nan,sinken.,nan,nan,nan,Haus,umzusetzen.,nan,rekonstruiert.,berührt.,deutlich.,nan,dunkle,nan,nan,nan,nan,genug.,deutlich.,nan,nan,dummer,nan,nan,nan,nan,nan,gepasst,nan,nan,es,nan,nan,kaufen.,an,nan,nan,nan,nan,Milch.,berührt.,nan,nan,wurden.,Honig,vermiest.,zweiten,nan,wiederbelebt.,Schule.,wurden.,im,dumme,nan,nan,nan,nan,nan,im,Haus,schon,nan,Rilke,nan,Milch.,nan,nan,Menge,nan,nan,gerne.,nan,besprochen.,genug.,gerne.,nan,Menge,,,,,,,,,,,,,,,,,,,,,,,8,0,8,0,0,8,8,8,,,,,,,,space,0.40299987793,,,,,,2017_Feb_03_1419,58.6025001362,spr_backupper,001,Do11,
,Weltkriegs.,fit.,nan,nan,nan,nan,den,nan,nan,nan,nan,nan,nan,nan,nicht,her.,nan,auf,nan,nan,Materie,nan,nan,nan,nan,nan,geschafft.,nan,nan,nan,nan,nan,nan,Materie,nan,nan,nan,nan,nan,nan,nan,nan,Sprüche.,nan,nan,nan,nan,nan,haben.,nan,nan,regnete.,nan,nan,nan,den,nan,nan,nan,nan,nan,nan,nan,nan,nan,her.,nan,Weltkriegs.,nan,nan,nan,nan,Landkreis.,Sprüche.,nan,nan,nan,nan,nan,Landkreis.,geschafft.,auf,nan,gelesen.,nan,nan,nan,nan,heißer,nan,nan,nan,nan,nan,nan,nan,nan,heiße,,,,,,,,,,,,,,,,,,,,,,,8,0,8,0,0,9,9,9,,,,,,,,space,0.385890960693,,,,,,2017_Feb_03_1419,58.6025001362,spr_backupper,001,Do11,
,,,,,,,,,,,,,,,,,,,,,,,,,,,,,,,,,,,,,,,,,,,,,,,,,,,,,,,,,,,,,,,,,,,,,,,,,,,,,,,,,,,,,,,,,,,,,,,,,,,,,,,,,,,,,,,,,,,,,,,,,8,0,8,0,,,,,,,,,,,,,,None,n,2.1461417675,,,2017_Feb_03_1419,58.6025001362,spr_backupper,001,Do11,
,Bei,Ich,Die,In,Die,Er,Ich,Die,Er,Die,Dort,Danach,Am,Es,In,Er,Dort,Bei,Außer,Die,Mit,Wir,Ihr,Die,Sie,Fernab,Wir,Jetzt,Die,Das,Nicht,Im,Wir,Mit,Jungtiere,Beträchtliche,Die,Beträchtliche,100,Im,In,Wir,Sie,Die,Es,Als,Außer,Die,Die,Viele,Er,Es,Sie,Alle,Jugendliche,Ich,Die,Manche,Die,Die,In,Nicht,Am,Viele,Es,Er,Dass,Bei,Die,Die,Die,Es,In,Sie,Unter,Wir,Der,Sie,Die,In,Wir,Bei,Die,In,Wir,In,Außer,Die,Man,Sie,Außer,Wir,Walter,Sie,100,Wir,Die,Man,,,,,,,,,,,,,,,,,,,,,,,9,0,9,0,0,0,0,0,,,,,,,space,space,0.640161991119,,,,0.855461120605,,2017_Feb_03_1419,58.6025001362,spr_backupper,001,Do11,
,der,wurde,Schuhe,meinem,Uhr,hat,nehme,Kinder,wurde,Lösung,türmen,wurde,äußersten,wurden,einer,stellt,türmen,unserer,dem,"Uhr,",dieser,mussten,Blutdruck,Gäste,verlassen,des,haben,ist,Gäste,Tuch,ein,Fernrohr,konnten,dieser,sollten,Stücke,Schule,Stücke,g,Fernrohr,diesem,hatten,hatte,Autos,wurden,die,dem,Stücke,Schuhe,Tonnen,wurde,hat,verlassen,Betten,können,nehme,Eislaufbahnen,Kreditnehmer,Formen,Uhr,den,ein,äußeren,Tonnen,waren,stellt,es,der,Autos,müden,Kinder,waren,der,hatte,keinen,hatten,Flug,verbrauchen,Linie,der,haben,unserer,Teilnehmerinnen,meinem,mussten,den,den,Uhr,machte,verbrauchen,das,übergaben,Scheel,haben,g,übergaben,Schule,machte,,,,,,,,,,,,,,,,,,,,,,,9,0,9,0,0,1,1,1,,,,,,,,space,0.889717102051,,,,,,2017_Feb_03_1419,58.6025001362,spr_backupper,001,Do11,
,Feier,damals,in,Studium,schlug,ein,eine,fuhren,trotz,wird,sich,die,Rand,Eimer,Studie,die,sich,Ankunft,Essen,die,Methode,uns,kann,suchen,wegen,Rummels,jede,genau,suchen,wurde,Tropfen,sahen,dann,Methode,immer,saftiges,verbraucht,saftigen,braunen,sahen,Zirkus,in,keine,beider,Eimer,Sonne,Bürgermeister,wurden,in,gebrauchte,trotz,uns,wegen,wurden,Kleidung,eine,wurden,sind,wurden,war,Kakao,Tropfen,Rand,gebrauchter,nur,die,"regnete,",Feier,beider,Teilnehmer,fuhren,nur,Tat,keine,Umständen,in,zum,60,101,Tat,jede,Ankunft,wussten,Studium,uns,Kakao,Bürgermeister,schlug,mal,60,Essen,dem,war,die,brauner,das,verbraucht,mal,,,,,,,,,,,,,,,,,,,,,,,9,0,9,0,0,2,2,2,,,,,,,,space,0.427654027939,,,,,,2017_Feb_03_1419,58.6025001362,spr_backupper,001,Do11,
,gedachte,schnell,Größe,las,"sporadisch,",Hemd,große,mit,dem,mit,Berge,Leinwand,der,roter,wurde,Masse,Berge,stand,kann,er,kann,durch,schon,die,dem,wurde,Menge,die,die,dann,königlichen,wir,mit,kann,auf,Fleisch,260.000,Fleischs,Zuckers,wir,werden,Dänemark,Lust,beteiligter,rote,"unterging,",beschuldigten,aus,Größe,Kleidung,des,die,des,mit,bei,große,mit,mit,unter,aus,gehören,königliches,der,Kleidung,kleinere,Masse,hat,gedachte,beteiligten,wurden,mit,kleinere,wissen,Lust,können,Dänemark,Mond,Liter,hält,wissen,Menge,stand,überwiegend,habe,durch,gehören,beschuldigten,"sporadisch,",wieder,Liter,kann,Mann,der,Erlebnisse,Zucker,Auto,260.000,wieder,,,,,,,,,,,,,,,,,,,,,,,9,0,9,0,0,3,3,3,,,,,,,,space,0.428240060806,,,,,,2017_Feb_03_1419,58.6025001362,spr_backupper,001,Do11,
,man,dank,36,ich,obschon,aus,Packung,solch,bekannten,"reichlichem,",schmutzige,aus,Stadt,Farbe,jetzt,mit,schmutziger,ein,ich,"trug,",man,Büschel,bei,Wohnung,schönen,schon,alten,richtige,Wohnung,mit,Bluts,den,"minimalem,",man,warmem,wurden,Kilowattstunden,wurden,sind,den,die,gelegentlich,auf,Fahrer,Farbe,war,die,"wertvollem,",36,landen,bekannten,Stimmung,schönen,"üblichem,",ausreichendem,Packung,dauerhaftem,"sämtlichem,","regelmäßigem,","Japan,",immer,Blut,Stadt,landen,"Delikte,",mit,uns,man,Fahrer,mit,solchen,"Delikte,",wir,auf,Neuwahlen,einen,dauerte,sprudelndes,nicht,wir,alten,ein,"nicht,",ich,Büschel,immer,die,obwohl,viel,sprudelnden,ich,das,vierte,bei,sind,dem,Kilowattstunden,viel,,,,,,,,,,,,,,,,,,,,,,,9,0,9,0,0,4,4,4,,,,,,,,space,0.408740997314,,,,,,2017_Feb_03_1419,58.6025001362,spr_backupper,001,Do11,
,den,täglichem,hätten,mehr,sie,feinem,salzige,unzureichenden,Skandal,purem,Wäsche.,seltenem,liegen,geschleudert.,"nachgewiesen,",einem,Wäsche.,Glas,leider,war,eine,frischen,minimalem,des,Wetter,immer,Kram,"Zeit,",des,"reichem,",hat,roten,sauberen,eine,weichem,serviert.,elektrische,serviert.,auf,roten,Tiere,einen,noch,wurden,geschleudert.,die,Störenfriede,klassischen,würden,im,Skandals,ziemlich,Wetters,harten,monatlichem,salziger,feinem,künftigem,kaltem,die,350,hat,liegen,im,deren,einem,die,der,wurden,zusätzlichem,unzureichenden,derer,von,noch,vor,gelegentlichen,ungefähr,Trinkwasser.,am,um,Krams,Glas,was,mehr,frisches,350,Störenfriede,sie,Lärm,Trinkwassers.,leider,Auto,Bundespräsident.,"frischem,",auf,Mann,elektrischer,Lärm,,,,,,,,,,,,,,,,,,,,,,,9,0,9,0,0,5,5,5,,,,,,,,space,0.397250175476,,,,,,2017_Feb_03_1419,58.6025001362,spr_backupper,001,Do11,
,Soldaten,grünen,seiner,als,defekt,dichten,Wurst,Helmen,wiedergewählt.,Alkohol,nan,dichten,die,nan,dass,Esslöffel,nan,köstlichen,nichts,aus,große,Grases,täglichen,Herrn,die,ruhig,aus,um,Herrn,goldenen,den,Planeten,Kraftstoff,große,Untergrund,nan,Energie.,nan,jeden,Planet,artgerecht,Besucher.,eine,verschrottet.,nan,Flut,jeden.,Schmuck,seiner,Müll.,wiedergewählt.,"vermiest,",die,Schaumstoff,Taschengeld,Wurst,Kunsteis,Einkommen,Abduschen,er,ml,den,die,Müll.,sie,Esslöffel,Stimmung,Soldaten,verschrottet.,schwarzem,Helmen,sie,den,eine,Dezember,Besucher.,drei,nan,Hauptbahnhof.,die,aus,köstlicher,Tupperware,als,Gras,ml,jeden.,defekt,um,nan,nichts,mehr,nan,kaltem,jeden,mehr,Energie.,um,,,,,,,,,,,,,,,,,,,,,,,9,0,9,0,0,6,6,6,,,,,,,,space,0.44075512886,,,,,,2017_Feb_03_1419,58.6025001362,spr_backupper,001,Do11,
,des,Tee,Frau,einmal,war.,Stoff,mit,zur,nan,verdünnt.,nan,Gewebe,Slums.,nan,das,warmen,nan,Weins,mitbringen.,Japan.,Menge,zwängen.,Einsatz,Gantenbein.,Wohnung.,diskutiert.,dem,Nadelhölzer,Gantenbeins.,Besatz,Boden,ganz,fahren.,Menge,liegen.,nan,nan,nan,Fall,ganz,gehalten.,nan,Sammlung,nan,nan,zurückgekehrt.,nan,umgearbeitet.,Frau,nan,nan,dass,Wohnung.,gefertigt.,selber,mit,eingesprüht.,haftbar.,gehärtet.,trug.,warmer,Boden,Slums.,nan,überführt,warmem,ziemlich,des,nan,Kaffee,zur,überführt,Problemen,Sammlung,stattfinden.,nan,Tage.,nan,nan,Probleme,dem,Wein,ist.,einmal,zwängen.,warme,nan,war.,jede,nan,mitbringen.,als,nan,Saft,Fall,als,nan,jede,,,,,,,,,,,,,,,,,,,,,,,9,0,9,0,0,7,7,7,,,,,,,,space,1.29634284973,,,,,,2017_Feb_03_1419,58.6025001362,spr_backupper,001,Do11,
,,,,,,,,,,,,,,,,,,,,,,,,,,,,,,,,,,,,,,,,,,,,,,,,,,,,,,,,,,,,,,,,,,,,,,,,,,,,,,,,,,,,,,,,,,,,,,,,,,,,,,,,,,,,,,,,,,,,,,,,,9,0,9,0,,,,,,,,,,,,,,None,j,2.37292194366,,,2017_Feb_03_1419,58.6025001362,spr_backupper,001,Do11,
,Bei,Ich,Die,In,Die,Er,Ich,Die,Er,Die,Dort,Danach,Am,Es,In,Er,Dort,Bei,Außer,Die,Mit,Wir,Ihr,Die,Sie,Fernab,Wir,Jetzt,Die,Das,Nicht,Im,Wir,Mit,Jungtiere,Beträchtliche,Die,Beträchtliche,100,Im,In,Wir,Sie,Die,Es,Als,Außer,Die,Die,Viele,Er,Es,Sie,Alle,Jugendliche,Ich,Die,Manche,Die,Die,In,Nicht,Am,Viele,Es,Er,Dass,Bei,Die,Die,Die,Es,In,Sie,Unter,Wir,Der,Sie,Die,In,Wir,Bei,Die,In,Wir,In,Außer,Die,Man,Sie,Außer,Wir,Walter,Sie,100,Wir,Die,Man,,,,,,,,,,,,,,,,,,,,,,,10,0,10,0,0,0,0,0,,,,,,,None,space,1.5279238224,,,,,,2017_Feb_03_1419,58.6025001362,spr_backupper,001,Do11,
,der,wurde,Schuhe,meinem,Uhr,hat,nehme,Kinder,wurde,Lösung,türmen,wurde,äußersten,wurden,einer,stellt,türmen,unserer,dem,"Uhr,",dieser,mussten,Blutdruck,Gäste,verlassen,des,haben,ist,Gäste,Tuch,ein,Fernrohr,konnten,dieser,sollten,Stücke,Schule,Stücke,g,Fernrohr,diesem,hatten,hatte,Autos,wurden,die,dem,Stücke,Schuhe,Tonnen,wurde,hat,verlassen,Betten,können,nehme,Eislaufbahnen,Kreditnehmer,Formen,Uhr,den,ein,äußeren,Tonnen,waren,stellt,es,der,Autos,müden,Kinder,waren,der,hatte,keinen,hatten,Flug,verbrauchen,Linie,der,haben,unserer,Teilnehmerinnen,meinem,mussten,den,den,Uhr,machte,verbrauchen,das,übergaben,Scheel,haben,g,übergaben,Schule,machte,,,,,,,,,,,,,,,,,,,,,,,10,0,10,0,0,1,1,1,,,,,,,,space,0.658461093903,,,,,,2017_Feb_03_1419,58.6025001362,spr_backupper,001,Do11,
,Feier,damals,in,Studium,schlug,ein,eine,fuhren,trotz,wird,sich,die,Rand,Eimer,Studie,die,sich,Ankunft,Essen,die,Methode,uns,kann,suchen,wegen,Rummels,jede,genau,suchen,wurde,Tropfen,sahen,dann,Methode,immer,saftiges,verbraucht,saftigen,braunen,sahen,Zirkus,in,keine,beider,Eimer,Sonne,Bürgermeister,wurden,in,gebrauchte,trotz,uns,wegen,wurden,Kleidung,eine,wurden,sind,wurden,war,Kakao,Tropfen,Rand,gebrauchter,nur,die,"regnete,",Feier,beider,Teilnehmer,fuhren,nur,Tat,keine,Umständen,in,zum,60,101,Tat,jede,Ankunft,wussten,Studium,uns,Kakao,Bürgermeister,schlug,mal,60,Essen,dem,war,die,brauner,das,verbraucht,mal,,,,,,,,,,,,,,,,,,,,,,,10,0,10,0,0,2,2,2,,,,,,,,space,0.436116933823,,,,,,2017_Feb_03_1419,58.6025001362,spr_backupper,001,Do11,
,gedachte,schnell,Größe,las,"sporadisch,",Hemd,große,mit,dem,mit,Berge,Leinwand,der,roter,wurde,Masse,Berge,stand,kann,er,kann,durch,schon,die,dem,wurde,Menge,die,die,dann,königlichen,wir,mit,kann,auf,Fleisch,260.000,Fleischs,Zuckers,wir,werden,Dänemark,Lust,beteiligter,rote,"unterging,",beschuldigten,aus,Größe,Kleidung,des,die,des,mit,bei,große,mit,mit,unter,aus,gehören,königliches,der,Kleidung,kleinere,Masse,hat,gedachte,beteiligten,wurden,mit,kleinere,wissen,Lust,können,Dänemark,Mond,Liter,hält,wissen,Menge,stand,überwiegend,habe,durch,gehören,beschuldigten,"sporadisch,",wieder,Liter,kann,Mann,der,Erlebnisse,Zucker,Auto,260.000,wieder,,,,,,,,,,,,,,,,,,,,,,,10,0,10,0,0,3,3,3,,,,,,,,space,0.409028053284,,,,,,2017_Feb_03_1419,58.6025001362,spr_backupper,001,Do11,
,man,dank,36,ich,obschon,aus,Packung,solch,bekannten,"reichlichem,",schmutzige,aus,Stadt,Farbe,jetzt,mit,schmutziger,ein,ich,"trug,",man,Büschel,bei,Wohnung,schönen,schon,alten,richtige,Wohnung,mit,Bluts,den,"minimalem,",man,warmem,wurden,Kilowattstunden,wurden,sind,den,die,gelegentlich,auf,Fahrer,Farbe,war,die,"wertvollem,",36,landen,bekannten,Stimmung,schönen,"üblichem,",ausreichendem,Packung,dauerhaftem,"sämtlichem,","regelmäßigem,","Japan,",immer,Blut,Stadt,landen,"Delikte,",mit,uns,man,Fahrer,mit,solchen,"Delikte,",wir,auf,Neuwahlen,einen,dauerte,sprudelndes,nicht,wir,alten,ein,"nicht,",ich,Büschel,immer,die,obwohl,viel,sprudelnden,ich,das,vierte,bei,sind,dem,Kilowattstunden,viel,,,,,,,,,,,,,,,,,,,,,,,10,0,10,0,0,4,4,4,,,,,,,,space,0.45291519165,,,,,,2017_Feb_03_1419,58.6025001362,spr_backupper,001,Do11,
,den,täglichem,hätten,mehr,sie,feinem,salzige,unzureichenden,Skandal,purem,Wäsche.,seltenem,liegen,geschleudert.,"nachgewiesen,",einem,Wäsche.,Glas,leider,war,eine,frischen,minimalem,des,Wetter,immer,Kram,"Zeit,",des,"reichem,",hat,roten,sauberen,eine,weichem,serviert.,elektrische,serviert.,auf,roten,Tiere,einen,noch,wurden,geschleudert.,die,Störenfriede,klassischen,würden,im,Skandals,ziemlich,Wetters,harten,monatlichem,salziger,feinem,künftigem,kaltem,die,350,hat,liegen,im,deren,einem,die,der,wurden,zusätzlichem,unzureichenden,derer,von,noch,vor,gelegentlichen,ungefähr,Trinkwasser.,am,um,Krams,Glas,was,mehr,frisches,350,Störenfriede,sie,Lärm,Trinkwassers.,leider,Auto,Bundespräsident.,"frischem,",auf,Mann,elektrischer,Lärm,,,,,,,,,,,,,,,,,,,,,,,10,0,10,0,0,5,5,5,,,,,,,,space,0.654873132706,,,,,,2017_Feb_03_1419,58.6025001362,spr_backupper,001,Do11,
,Soldaten,grünen,seiner,als,defekt,dichten,Wurst,Helmen,wiedergewählt.,Alkohol,nan,dichten,die,nan,dass,Esslöffel,nan,köstlichen,nichts,aus,große,Grases,täglichen,Herrn,die,ruhig,aus,um,Herrn,goldenen,den,Planeten,Kraftstoff,große,Untergrund,nan,Energie.,nan,jeden,Planet,artgerecht,Besucher.,eine,verschrottet.,nan,Flut,jeden.,Schmuck,seiner,Müll.,wiedergewählt.,"vermiest,",die,Schaumstoff,Taschengeld,Wurst,Kunsteis,Einkommen,Abduschen,er,ml,den,die,Müll.,sie,Esslöffel,Stimmung,Soldaten,verschrottet.,schwarzem,Helmen,sie,den,eine,Dezember,Besucher.,drei,nan,Hauptbahnhof.,die,aus,köstlicher,Tupperware,als,Gras,ml,jeden.,defekt,um,nan,nichts,mehr,nan,kaltem,jeden,mehr,Energie.,um,,,,,,,,,,,,,,,,,,,,,,,10,0,10,0,0,6,6,6,,,,,,,,space,0.582471132278,,,,,,2017_Feb_03_1419,58.6025001362,spr_backupper,001,Do11,
,des,Tee,Frau,einmal,war.,Stoff,mit,zur,nan,verdünnt.,nan,Gewebe,Slums.,nan,das,warmen,nan,Weins,mitbringen.,Japan.,Menge,zwängen.,Einsatz,Gantenbein.,Wohnung.,diskutiert.,dem,Nadelhölzer,Gantenbeins.,Besatz,Boden,ganz,fahren.,Menge,liegen.,nan,nan,nan,Fall,ganz,gehalten.,nan,Sammlung,nan,nan,zurückgekehrt.,nan,umgearbeitet.,Frau,nan,nan,dass,Wohnung.,gefertigt.,selber,mit,eingesprüht.,haftbar.,gehärtet.,trug.,warmer,Boden,Slums.,nan,überführt,warmem,ziemlich,des,nan,Kaffee,zur,überführt,Problemen,Sammlung,stattfinden.,nan,Tage.,nan,nan,Probleme,dem,Wein,ist.,einmal,zwängen.,warme,nan,war.,jede,nan,mitbringen.,als,nan,Saft,Fall,als,nan,jede,,,,,,,,,,,,,,,,,,,,,,,10,0,10,0,0,7,7,7,,,,,,,,space,0.474488019943,,,,,,2017_Feb_03_1419,58.6025001362,spr_backupper,001,Do11,
,zweiten,wieder,gepasst.,Rilke.,nan,gefertigt.,an,Schule.,nan,nan,nan,wiederhergestellt.,nan,nan,Medikament,Honigs,nan,schon,nan,nan,dunkler,nan,sinken.,nan,nan,nan,Haus,umzusetzen.,nan,rekonstruiert.,berührt.,deutlich.,nan,dunkle,nan,nan,nan,nan,genug.,deutlich.,nan,nan,dummer,nan,nan,nan,nan,nan,gepasst,nan,nan,es,nan,nan,kaufen.,an,nan,nan,nan,nan,Milch.,berührt.,nan,nan,wurden.,Honig,vermiest.,zweiten,nan,wiederbelebt.,Schule.,wurden.,im,dumme,nan,nan,nan,nan,nan,im,Haus,schon,nan,Rilke,nan,Milch.,nan,nan,Menge,nan,nan,gerne.,nan,besprochen.,genug.,gerne.,nan,Menge,,,,,,,,,,,,,,,,,,,,,,,10,0,10,0,0,8,8,8,,,,,,,,space,0.503540992737,,,,,,2017_Feb_03_1419,58.6025001362,spr_backupper,001,Do11,
,,,,,,,,,,,,,,,,,,,,,,,,,,,,,,,,,,,,,,,,,,,,,,,,,,,,,,,,,,,,,,,,,,,,,,,,,,,,,,,,,,,,,,,,,,,,,,,,,,,,,,,,,,,,,,,,,,,,,,,,,10,0,10,0,,,,,,,,,,,,,,None,j,3.55347204208,,,2017_Feb_03_1419,58.6025001362,spr_backupper,001,Do11,
,Bei,Ich,Die,In,Die,Er,Ich,Die,Er,Die,Dort,Danach,Am,Es,In,Er,Dort,Bei,Außer,Die,Mit,Wir,Ihr,Die,Sie,Fernab,Wir,Jetzt,Die,Das,Nicht,Im,Wir,Mit,Jungtiere,Beträchtliche,Die,Beträchtliche,100,Im,In,Wir,Sie,Die,Es,Als,Außer,Die,Die,Viele,Er,Es,Sie,Alle,Jugendliche,Ich,Die,Manche,Die,Die,In,Nicht,Am,Viele,Es,Er,Dass,Bei,Die,Die,Die,Es,In,Sie,Unter,Wir,Der,Sie,Die,In,Wir,Bei,Die,In,Wir,In,Außer,Die,Man,Sie,Außer,Wir,Walter,Sie,100,Wir,Die,Man,,,,,,,,,,,,,,,,,,,,,,,11,0,11,0,0,0,0,0,,,,,,,space,space,0.503981113434,,,,1.27427387238,,2017_Feb_03_1419,58.6025001362,spr_backupper,001,Do11,
,der,wurde,Schuhe,meinem,Uhr,hat,nehme,Kinder,wurde,Lösung,türmen,wurde,äußersten,wurden,einer,stellt,türmen,unserer,dem,"Uhr,",dieser,mussten,Blutdruck,Gäste,verlassen,des,haben,ist,Gäste,Tuch,ein,Fernrohr,konnten,dieser,sollten,Stücke,Schule,Stücke,g,Fernrohr,diesem,hatten,hatte,Autos,wurden,die,dem,Stücke,Schuhe,Tonnen,wurde,hat,verlassen,Betten,können,nehme,Eislaufbahnen,Kreditnehmer,Formen,Uhr,den,ein,äußeren,Tonnen,waren,stellt,es,der,Autos,müden,Kinder,waren,der,hatte,keinen,hatten,Flug,verbrauchen,Linie,der,haben,unserer,Teilnehmerinnen,meinem,mussten,den,den,Uhr,machte,verbrauchen,das,übergaben,Scheel,haben,g,übergaben,Schule,machte,,,,,,,,,,,,,,,,,,,,,,,11,0,11,0,0,1,1,1,,,,,,,,space,1.24111509323,,,,,,2017_Feb_03_1419,58.6025001362,spr_backupper,001,Do11,
,Feier,damals,in,Studium,schlug,ein,eine,fuhren,trotz,wird,sich,die,Rand,Eimer,Studie,die,sich,Ankunft,Essen,die,Methode,uns,kann,suchen,wegen,Rummels,jede,genau,suchen,wurde,Tropfen,sahen,dann,Methode,immer,saftiges,verbraucht,saftigen,braunen,sahen,Zirkus,in,keine,beider,Eimer,Sonne,Bürgermeister,wurden,in,gebrauchte,trotz,uns,wegen,wurden,Kleidung,eine,wurden,sind,wurden,war,Kakao,Tropfen,Rand,gebrauchter,nur,die,"regnete,",Feier,beider,Teilnehmer,fuhren,nur,Tat,keine,Umständen,in,zum,60,101,Tat,jede,Ankunft,wussten,Studium,uns,Kakao,Bürgermeister,schlug,mal,60,Essen,dem,war,die,brauner,das,verbraucht,mal,,,,,,,,,,,,,,,,,,,,,,,11,0,11,0,0,2,2,2,,,,,,,,space,0.520885944366,,,,,,2017_Feb_03_1419,58.6025001362,spr_backupper,001,Do11,
,gedachte,schnell,Größe,las,"sporadisch,",Hemd,große,mit,dem,mit,Berge,Leinwand,der,roter,wurde,Masse,Berge,stand,kann,er,kann,durch,schon,die,dem,wurde,Menge,die,die,dann,königlichen,wir,mit,kann,auf,Fleisch,260.000,Fleischs,Zuckers,wir,werden,Dänemark,Lust,beteiligter,rote,"unterging,",beschuldigten,aus,Größe,Kleidung,des,die,des,mit,bei,große,mit,mit,unter,aus,gehören,königliches,der,Kleidung,kleinere,Masse,hat,gedachte,beteiligten,wurden,mit,kleinere,wissen,Lust,können,Dänemark,Mond,Liter,hält,wissen,Menge,stand,überwiegend,habe,durch,gehören,beschuldigten,"sporadisch,",wieder,Liter,kann,Mann,der,Erlebnisse,Zucker,Auto,260.000,wieder,,,,,,,,,,,,,,,,,,,,,,,11,0,11,0,0,3,3,3,,,,,,,,space,0.435344934464,,,,,,2017_Feb_03_1419,58.6025001362,spr_backupper,001,Do11,
,man,dank,36,ich,obschon,aus,Packung,solch,bekannten,"reichlichem,",schmutzige,aus,Stadt,Farbe,jetzt,mit,schmutziger,ein,ich,"trug,",man,Büschel,bei,Wohnung,schönen,schon,alten,richtige,Wohnung,mit,Bluts,den,"minimalem,",man,warmem,wurden,Kilowattstunden,wurden,sind,den,die,gelegentlich,auf,Fahrer,Farbe,war,die,"wertvollem,",36,landen,bekannten,Stimmung,schönen,"üblichem,",ausreichendem,Packung,dauerhaftem,"sämtlichem,","regelmäßigem,","Japan,",immer,Blut,Stadt,landen,"Delikte,",mit,uns,man,Fahrer,mit,solchen,"Delikte,",wir,auf,Neuwahlen,einen,dauerte,sprudelndes,nicht,wir,alten,ein,"nicht,",ich,Büschel,immer,die,obwohl,viel,sprudelnden,ich,das,vierte,bei,sind,dem,Kilowattstunden,viel,,,,,,,,,,,,,,,,,,,,,,,11,0,11,0,0,4,4,4,,,,,,,,space,0.437464952469,,,,,,2017_Feb_03_1419,58.6025001362,spr_backupper,001,Do11,
,den,täglichem,hätten,mehr,sie,feinem,salzige,unzureichenden,Skandal,purem,Wäsche.,seltenem,liegen,geschleudert.,"nachgewiesen,",einem,Wäsche.,Glas,leider,war,eine,frischen,minimalem,des,Wetter,immer,Kram,"Zeit,",des,"reichem,",hat,roten,sauberen,eine,weichem,serviert.,elektrische,serviert.,auf,roten,Tiere,einen,noch,wurden,geschleudert.,die,Störenfriede,klassischen,würden,im,Skandals,ziemlich,Wetters,harten,monatlichem,salziger,feinem,künftigem,kaltem,die,350,hat,liegen,im,deren,einem,die,der,wurden,zusätzlichem,unzureichenden,derer,von,noch,vor,gelegentlichen,ungefähr,Trinkwasser.,am,um,Krams,Glas,was,mehr,frisches,350,Störenfriede,sie,Lärm,Trinkwassers.,leider,Auto,Bundespräsident.,"frischem,",auf,Mann,elektrischer,Lärm,,,,,,,,,,,,,,,,,,,,,,,11,0,11,0,0,5,5,5,,,,,,,,space,0.424354076385,,,,,,2017_Feb_03_1419,58.6025001362,spr_backupper,001,Do11,
,Soldaten,grünen,seiner,als,defekt,dichten,Wurst,Helmen,wiedergewählt.,Alkohol,nan,dichten,die,nan,dass,Esslöffel,nan,köstlichen,nichts,aus,große,Grases,täglichen,Herrn,die,ruhig,aus,um,Herrn,goldenen,den,Planeten,Kraftstoff,große,Untergrund,nan,Energie.,nan,jeden,Planet,artgerecht,Besucher.,eine,verschrottet.,nan,Flut,jeden.,Schmuck,seiner,Müll.,wiedergewählt.,"vermiest,",die,Schaumstoff,Taschengeld,Wurst,Kunsteis,Einkommen,Abduschen,er,ml,den,die,Müll.,sie,Esslöffel,Stimmung,Soldaten,verschrottet.,schwarzem,Helmen,sie,den,eine,Dezember,Besucher.,drei,nan,Hauptbahnhof.,die,aus,köstlicher,Tupperware,als,Gras,ml,jeden.,defekt,um,nan,nichts,mehr,nan,kaltem,jeden,mehr,Energie.,um,,,,,,,,,,,,,,,,,,,,,,,11,0,11,0,0,6,6,6,,,,,,,,space,0.490597963333,,,,,,2017_Feb_03_1419,58.6025001362,spr_backupper,001,Do11,
,des,Tee,Frau,einmal,war.,Stoff,mit,zur,nan,verdünnt.,nan,Gewebe,Slums.,nan,das,warmen,nan,Weins,mitbringen.,Japan.,Menge,zwängen.,Einsatz,Gantenbein.,Wohnung.,diskutiert.,dem,Nadelhölzer,Gantenbeins.,Besatz,Boden,ganz,fahren.,Menge,liegen.,nan,nan,nan,Fall,ganz,gehalten.,nan,Sammlung,nan,nan,zurückgekehrt.,nan,umgearbeitet.,Frau,nan,nan,dass,Wohnung.,gefertigt.,selber,mit,eingesprüht.,haftbar.,gehärtet.,trug.,warmer,Boden,Slums.,nan,überführt,warmem,ziemlich,des,nan,Kaffee,zur,überführt,Problemen,Sammlung,stattfinden.,nan,Tage.,nan,nan,Probleme,dem,Wein,ist.,einmal,zwängen.,warme,nan,war.,jede,nan,mitbringen.,als,nan,Saft,Fall,als,nan,jede,,,,,,,,,,,,,,,,,,,,,,,11,0,11,0,0,7,7,7,,,,,,,,space,0.866027116776,,,,,,2017_Feb_03_1419,58.6025001362,spr_backupper,001,Do11,
,,,,,,,,,,,,,,,,,,,,,,,,,,,,,,,,,,,,,,,,,,,,,,,,,,,,,,,,,,,,,,,,,,,,,,,,,,,,,,,,,,,,,,,,,,,,,,,,,,,,,,,,,,,,,,,,,,,,,,,,,11,0,11,0,,,,,,,,,,,,,,None,n,8.17748093605,,,2017_Feb_03_1419,58.6025001362,spr_backupper,001,Do11,
,Bei,Ich,Die,In,Die,Er,Ich,Die,Er,Die,Dort,Danach,Am,Es,In,Er,Dort,Bei,Außer,Die,Mit,Wir,Ihr,Die,Sie,Fernab,Wir,Jetzt,Die,Das,Nicht,Im,Wir,Mit,Jungtiere,Beträchtliche,Die,Beträchtliche,100,Im,In,Wir,Sie,Die,Es,Als,Außer,Die,Die,Viele,Er,Es,Sie,Alle,Jugendliche,Ich,Die,Manche,Die,Die,In,Nicht,Am,Viele,Es,Er,Dass,Bei,Die,Die,Die,Es,In,Sie,Unter,Wir,Der,Sie,Die,In,Wir,Bei,Die,In,Wir,In,Außer,Die,Man,Sie,Außer,Wir,Walter,Sie,100,Wir,Die,Man,,,,,,,,,,,,,,,,,,,,,,,12,0,12,0,0,0,0,0,,,,,,,space,space,0.489346981049,,,,1.02329587936,,2017_Feb_03_1419,58.6025001362,spr_backupper,001,Do11,
,der,wurde,Schuhe,meinem,Uhr,hat,nehme,Kinder,wurde,Lösung,türmen,wurde,äußersten,wurden,einer,stellt,türmen,unserer,dem,"Uhr,",dieser,mussten,Blutdruck,Gäste,verlassen,des,haben,ist,Gäste,Tuch,ein,Fernrohr,konnten,dieser,sollten,Stücke,Schule,Stücke,g,Fernrohr,diesem,hatten,hatte,Autos,wurden,die,dem,Stücke,Schuhe,Tonnen,wurde,hat,verlassen,Betten,können,nehme,Eislaufbahnen,Kreditnehmer,Formen,Uhr,den,ein,äußeren,Tonnen,waren,stellt,es,der,Autos,müden,Kinder,waren,der,hatte,keinen,hatten,Flug,verbrauchen,Linie,der,haben,unserer,Teilnehmerinnen,meinem,mussten,den,den,Uhr,machte,verbrauchen,das,übergaben,Scheel,haben,g,übergaben,Schule,machte,,,,,,,,,,,,,,,,,,,,,,,12,0,12,0,0,1,1,1,,,,,,,,space,1.10048508644,,,,,,2017_Feb_03_1419,58.6025001362,spr_backupper,001,Do11,
,Feier,damals,in,Studium,schlug,ein,eine,fuhren,trotz,wird,sich,die,Rand,Eimer,Studie,die,sich,Ankunft,Essen,die,Methode,uns,kann,suchen,wegen,Rummels,jede,genau,suchen,wurde,Tropfen,sahen,dann,Methode,immer,saftiges,verbraucht,saftigen,braunen,sahen,Zirkus,in,keine,beider,Eimer,Sonne,Bürgermeister,wurden,in,gebrauchte,trotz,uns,wegen,wurden,Kleidung,eine,wurden,sind,wurden,war,Kakao,Tropfen,Rand,gebrauchter,nur,die,"regnete,",Feier,beider,Teilnehmer,fuhren,nur,Tat,keine,Umständen,in,zum,60,101,Tat,jede,Ankunft,wussten,Studium,uns,Kakao,Bürgermeister,schlug,mal,60,Essen,dem,war,die,brauner,das,verbraucht,mal,,,,,,,,,,,,,,,,,,,,,,,12,0,12,0,0,2,2,2,,,,,,,,space,0.537551164627,,,,,,2017_Feb_03_1419,58.6025001362,spr_backupper,001,Do11,
,gedachte,schnell,Größe,las,"sporadisch,",Hemd,große,mit,dem,mit,Berge,Leinwand,der,roter,wurde,Masse,Berge,stand,kann,er,kann,durch,schon,die,dem,wurde,Menge,die,die,dann,königlichen,wir,mit,kann,auf,Fleisch,260.000,Fleischs,Zuckers,wir,werden,Dänemark,Lust,beteiligter,rote,"unterging,",beschuldigten,aus,Größe,Kleidung,des,die,des,mit,bei,große,mit,mit,unter,aus,gehören,königliches,der,Kleidung,kleinere,Masse,hat,gedachte,beteiligten,wurden,mit,kleinere,wissen,Lust,können,Dänemark,Mond,Liter,hält,wissen,Menge,stand,überwiegend,habe,durch,gehören,beschuldigten,"sporadisch,",wieder,Liter,kann,Mann,der,Erlebnisse,Zucker,Auto,260.000,wieder,,,,,,,,,,,,,,,,,,,,,,,12,0,12,0,0,3,3,3,,,,,,,,space,0.419451951981,,,,,,2017_Feb_03_1419,58.6025001362,spr_backupper,001,Do11,
,man,dank,36,ich,obschon,aus,Packung,solch,bekannten,"reichlichem,",schmutzige,aus,Stadt,Farbe,jetzt,mit,schmutziger,ein,ich,"trug,",man,Büschel,bei,Wohnung,schönen,schon,alten,richtige,Wohnung,mit,Bluts,den,"minimalem,",man,warmem,wurden,Kilowattstunden,wurden,sind,den,die,gelegentlich,auf,Fahrer,Farbe,war,die,"wertvollem,",36,landen,bekannten,Stimmung,schönen,"üblichem,",ausreichendem,Packung,dauerhaftem,"sämtlichem,","regelmäßigem,","Japan,",immer,Blut,Stadt,landen,"Delikte,",mit,uns,man,Fahrer,mit,solchen,"Delikte,",wir,auf,Neuwahlen,einen,dauerte,sprudelndes,nicht,wir,alten,ein,"nicht,",ich,Büschel,immer,die,obwohl,viel,sprudelnden,ich,das,vierte,bei,sind,dem,Kilowattstunden,viel,,,,,,,,,,,,,,,,,,,,,,,12,0,12,0,0,4,4,4,,,,,,,,space,0.351533889771,,,,,,2017_Feb_03_1419,58.6025001362,spr_backupper,001,Do11,
,den,täglichem,hätten,mehr,sie,feinem,salzige,unzureichenden,Skandal,purem,Wäsche.,seltenem,liegen,geschleudert.,"nachgewiesen,",einem,Wäsche.,Glas,leider,war,eine,frischen,minimalem,des,Wetter,immer,Kram,"Zeit,",des,"reichem,",hat,roten,sauberen,eine,weichem,serviert.,elektrische,serviert.,auf,roten,Tiere,einen,noch,wurden,geschleudert.,die,Störenfriede,klassischen,würden,im,Skandals,ziemlich,Wetters,harten,monatlichem,salziger,feinem,künftigem,kaltem,die,350,hat,liegen,im,deren,einem,die,der,wurden,zusätzlichem,unzureichenden,derer,von,noch,vor,gelegentlichen,ungefähr,Trinkwasser.,am,um,Krams,Glas,was,mehr,frisches,350,Störenfriede,sie,Lärm,Trinkwassers.,leider,Auto,Bundespräsident.,"frischem,",auf,Mann,elektrischer,Lärm,,,,,,,,,,,,,,,,,,,,,,,12,0,12,0,0,5,5,5,,,,,,,,space,0.368319034576,,,,,,2017_Feb_03_1419,58.6025001362,spr_backupper,001,Do11,
,Soldaten,grünen,seiner,als,defekt,dichten,Wurst,Helmen,wiedergewählt.,Alkohol,nan,dichten,die,nan,dass,Esslöffel,nan,köstlichen,nichts,aus,große,Grases,täglichen,Herrn,die,ruhig,aus,um,Herrn,goldenen,den,Planeten,Kraftstoff,große,Untergrund,nan,Energie.,nan,jeden,Planet,artgerecht,Besucher.,eine,verschrottet.,nan,Flut,jeden.,Schmuck,seiner,Müll.,wiedergewählt.,"vermiest,",die,Schaumstoff,Taschengeld,Wurst,Kunsteis,Einkommen,Abduschen,er,ml,den,die,Müll.,sie,Esslöffel,Stimmung,Soldaten,verschrottet.,schwarzem,Helmen,sie,den,eine,Dezember,Besucher.,drei,nan,Hauptbahnhof.,die,aus,köstlicher,Tupperware,als,Gras,ml,jeden.,defekt,um,nan,nichts,mehr,nan,kaltem,jeden,mehr,Energie.,um,,,,,,,,,,,,,,,,,,,,,,,12,0,12,0,0,6,6,6,,,,,,,,space,0.365903139114,,,,,,2017_Feb_03_1419,58.6025001362,spr_backupper,001,Do11,
,des,Tee,Frau,einmal,war.,Stoff,mit,zur,nan,verdünnt.,nan,Gewebe,Slums.,nan,das,warmen,nan,Weins,mitbringen.,Japan.,Menge,zwängen.,Einsatz,Gantenbein.,Wohnung.,diskutiert.,dem,Nadelhölzer,Gantenbeins.,Besatz,Boden,ganz,fahren.,Menge,liegen.,nan,nan,nan,Fall,ganz,gehalten.,nan,Sammlung,nan,nan,zurückgekehrt.,nan,umgearbeitet.,Frau,nan,nan,dass,Wohnung.,gefertigt.,selber,mit,eingesprüht.,haftbar.,gehärtet.,trug.,warmer,Boden,Slums.,nan,überführt,warmem,ziemlich,des,nan,Kaffee,zur,überführt,Problemen,Sammlung,stattfinden.,nan,Tage.,nan,nan,Probleme,dem,Wein,ist.,einmal,zwängen.,warme,nan,war.,jede,nan,mitbringen.,als,nan,Saft,Fall,als,nan,jede,,,,,,,,,,,,,,,,,,,,,,,12,0,12,0,0,7,7,7,,,,,,,,space,0.353405952454,,,,,,2017_Feb_03_1419,58.6025001362,spr_backupper,001,Do11,
,zweiten,wieder,gepasst.,Rilke.,nan,gefertigt.,an,Schule.,nan,nan,nan,wiederhergestellt.,nan,nan,Medikament,Honigs,nan,schon,nan,nan,dunkler,nan,sinken.,nan,nan,nan,Haus,umzusetzen.,nan,rekonstruiert.,berührt.,deutlich.,nan,dunkle,nan,nan,nan,nan,genug.,deutlich.,nan,nan,dummer,nan,nan,nan,nan,nan,gepasst,nan,nan,es,nan,nan,kaufen.,an,nan,nan,nan,nan,Milch.,berührt.,nan,nan,wurden.,Honig,vermiest.,zweiten,nan,wiederbelebt.,Schule.,wurden.,im,dumme,nan,nan,nan,nan,nan,im,Haus,schon,nan,Rilke,nan,Milch.,nan,nan,Menge,nan,nan,gerne.,nan,besprochen.,genug.,gerne.,nan,Menge,,,,,,,,,,,,,,,,,,,,,,,12,0,12,0,0,8,8,8,,,,,,,,space,0.394706010818,,,,,,2017_Feb_03_1419,58.6025001362,spr_backupper,001,Do11,
,Weltkriegs.,fit.,nan,nan,nan,nan,den,nan,nan,nan,nan,nan,nan,nan,nicht,her.,nan,auf,nan,nan,Materie,nan,nan,nan,nan,nan,geschafft.,nan,nan,nan,nan,nan,nan,Materie,nan,nan,nan,nan,nan,nan,nan,nan,Sprüche.,nan,nan,nan,nan,nan,haben.,nan,nan,regnete.,nan,nan,nan,den,nan,nan,nan,nan,nan,nan,nan,nan,nan,her.,nan,Weltkriegs.,nan,nan,nan,nan,Landkreis.,Sprüche.,nan,nan,nan,nan,nan,Landkreis.,geschafft.,auf,nan,gelesen.,nan,nan,nan,nan,heißer,nan,nan,nan,nan,nan,nan,nan,nan,heiße,,,,,,,,,,,,,,,,,,,,,,,12,0,12,0,0,9,9,9,,,,,,,,space,0.3863530159,,,,,,2017_Feb_03_1419,58.6025001362,spr_backupper,001,Do11,
,nan,nan,nan,nan,nan,nan,See.,nan,nan,nan,nan,nan,nan,nan,wirkt.,nan,nan,dem,nan,nan,erzeugen.,nan,nan,nan,nan,nan,nan,nan,nan,nan,nan,nan,nan,erzeugen.,nan,nan,nan,nan,nan,nan,nan,nan,nan,nan,nan,nan,nan,nan,nan,nan,nan,nan,nan,nan,nan,See.,nan,nan,nan,nan,nan,nan,nan,nan,nan,nan,nan,nan,nan,nan,nan,nan,nan,nan,nan,nan,nan,nan,nan,nan,nan,dem,nan,nan,nan,nan,nan,nan,Luft.,nan,nan,nan,nan,nan,nan,nan,nan,Luft.,,,,,,,,,,,,,,,,,,,,,,,12,0,12,0,0,10,10,10,,,,,,,,space,0.625831127167,,,,,,2017_Feb_03_1419,58.6025001362,spr_backupper,001,Do11,
,,,,,,,,,,,,,,,,,,,,,,,,,,,,,,,,,,,,,,,,,,,,,,,,,,,,,,,,,,,,,,,,,,,,,,,,,,,,,,,,,,,,,,,,,,,,,,,,,,,,,,,,,,,,,,,,,,,,,,,,,12,0,12,0,,,,,,,,,,,,,,None,j,2.91840076447,,,2017_Feb_03_1419,58.6025001362,spr_backupper,001,Do11,
,Bei,Ich,Die,In,Die,Er,Ich,Die,Er,Die,Dort,Danach,Am,Es,In,Er,Dort,Bei,Außer,Die,Mit,Wir,Ihr,Die,Sie,Fernab,Wir,Jetzt,Die,Das,Nicht,Im,Wir,Mit,Jungtiere,Beträchtliche,Die,Beträchtliche,100,Im,In,Wir,Sie,Die,Es,Als,Außer,Die,Die,Viele,Er,Es,Sie,Alle,Jugendliche,Ich,Die,Manche,Die,Die,In,Nicht,Am,Viele,Es,Er,Dass,Bei,Die,Die,Die,Es,In,Sie,Unter,Wir,Der,Sie,Die,In,Wir,Bei,Die,In,Wir,In,Außer,Die,Man,Sie,Außer,Wir,Walter,Sie,100,Wir,Die,Man,,,,,,,,,,,,,,,,,,,,,,,13,0,13,0,0,0,0,0,,,,,,,None,space,0.605126142502,,,,,,2017_Feb_03_1419,58.6025001362,spr_backupper,001,Do11,
,der,wurde,Schuhe,meinem,Uhr,hat,nehme,Kinder,wurde,Lösung,türmen,wurde,äußersten,wurden,einer,stellt,türmen,unserer,dem,"Uhr,",dieser,mussten,Blutdruck,Gäste,verlassen,des,haben,ist,Gäste,Tuch,ein,Fernrohr,konnten,dieser,sollten,Stücke,Schule,Stücke,g,Fernrohr,diesem,hatten,hatte,Autos,wurden,die,dem,Stücke,Schuhe,Tonnen,wurde,hat,verlassen,Betten,können,nehme,Eislaufbahnen,Kreditnehmer,Formen,Uhr,den,ein,äußeren,Tonnen,waren,stellt,es,der,Autos,müden,Kinder,waren,der,hatte,keinen,hatten,Flug,verbrauchen,Linie,der,haben,unserer,Teilnehmerinnen,meinem,mussten,den,den,Uhr,machte,verbrauchen,das,übergaben,Scheel,haben,g,übergaben,Schule,machte,,,,,,,,,,,,,,,,,,,,,,,13,0,13,0,0,1,1,1,,,,,,,,space,0.38633108139,,,,,,2017_Feb_03_1419,58.6025001362,spr_backupper,001,Do11,
,Feier,damals,in,Studium,schlug,ein,eine,fuhren,trotz,wird,sich,die,Rand,Eimer,Studie,die,sich,Ankunft,Essen,die,Methode,uns,kann,suchen,wegen,Rummels,jede,genau,suchen,wurde,Tropfen,sahen,dann,Methode,immer,saftiges,verbraucht,saftigen,braunen,sahen,Zirkus,in,keine,beider,Eimer,Sonne,Bürgermeister,wurden,in,gebrauchte,trotz,uns,wegen,wurden,Kleidung,eine,wurden,sind,wurden,war,Kakao,Tropfen,Rand,gebrauchter,nur,die,"regnete,",Feier,beider,Teilnehmer,fuhren,nur,Tat,keine,Umständen,in,zum,60,101,Tat,jede,Ankunft,wussten,Studium,uns,Kakao,Bürgermeister,schlug,mal,60,Essen,dem,war,die,brauner,das,verbraucht,mal,,,,,,,,,,,,,,,,,,,,,,,13,0,13,0,0,2,2,2,,,,,,,,space,0.382722854614,,,,,,2017_Feb_03_1419,58.6025001362,spr_backupper,001,Do11,
,gedachte,schnell,Größe,las,"sporadisch,",Hemd,große,mit,dem,mit,Berge,Leinwand,der,roter,wurde,Masse,Berge,stand,kann,er,kann,durch,schon,die,dem,wurde,Menge,die,die,dann,königlichen,wir,mit,kann,auf,Fleisch,260.000,Fleischs,Zuckers,wir,werden,Dänemark,Lust,beteiligter,rote,"unterging,",beschuldigten,aus,Größe,Kleidung,des,die,des,mit,bei,große,mit,mit,unter,aus,gehören,königliches,der,Kleidung,kleinere,Masse,hat,gedachte,beteiligten,wurden,mit,kleinere,wissen,Lust,können,Dänemark,Mond,Liter,hält,wissen,Menge,stand,überwiegend,habe,durch,gehören,beschuldigten,"sporadisch,",wieder,Liter,kann,Mann,der,Erlebnisse,Zucker,Auto,260.000,wieder,,,,,,,,,,,,,,,,,,,,,,,13,0,13,0,0,3,3,3,,,,,,,,space,0.353121042252,,,,,,2017_Feb_03_1419,58.6025001362,spr_backupper,001,Do11,
,man,dank,36,ich,obschon,aus,Packung,solch,bekannten,"reichlichem,",schmutzige,aus,Stadt,Farbe,jetzt,mit,schmutziger,ein,ich,"trug,",man,Büschel,bei,Wohnung,schönen,schon,alten,richtige,Wohnung,mit,Bluts,den,"minimalem,",man,warmem,wurden,Kilowattstunden,wurden,sind,den,die,gelegentlich,auf,Fahrer,Farbe,war,die,"wertvollem,",36,landen,bekannten,Stimmung,schönen,"üblichem,",ausreichendem,Packung,dauerhaftem,"sämtlichem,","regelmäßigem,","Japan,",immer,Blut,Stadt,landen,"Delikte,",mit,uns,man,Fahrer,mit,solchen,"Delikte,",wir,auf,Neuwahlen,einen,dauerte,sprudelndes,nicht,wir,alten,ein,"nicht,",ich,Büschel,immer,die,obwohl,viel,sprudelnden,ich,das,vierte,bei,sind,dem,Kilowattstunden,viel,,,,,,,,,,,,,,,,,,,,,,,13,0,13,0,0,4,4,4,,,,,,,,space,0.34766292572,,,,,,2017_Feb_03_1419,58.6025001362,spr_backupper,001,Do11,
,den,täglichem,hätten,mehr,sie,feinem,salzige,unzureichenden,Skandal,purem,Wäsche.,seltenem,liegen,geschleudert.,"nachgewiesen,",einem,Wäsche.,Glas,leider,war,eine,frischen,minimalem,des,Wetter,immer,Kram,"Zeit,",des,"reichem,",hat,roten,sauberen,eine,weichem,serviert.,elektrische,serviert.,auf,roten,Tiere,einen,noch,wurden,geschleudert.,die,Störenfriede,klassischen,würden,im,Skandals,ziemlich,Wetters,harten,monatlichem,salziger,feinem,künftigem,kaltem,die,350,hat,liegen,im,deren,einem,die,der,wurden,zusätzlichem,unzureichenden,derer,von,noch,vor,gelegentlichen,ungefähr,Trinkwasser.,am,um,Krams,Glas,was,mehr,frisches,350,Störenfriede,sie,Lärm,Trinkwassers.,leider,Auto,Bundespräsident.,"frischem,",auf,Mann,elektrischer,Lärm,,,,,,,,,,,,,,,,,,,,,,,13,0,13,0,0,5,5,5,,,,,,,,space,0.639867067337,,,,,,2017_Feb_03_1419,58.6025001362,spr_backupper,001,Do11,
,Soldaten,grünen,seiner,als,defekt,dichten,Wurst,Helmen,wiedergewählt.,Alkohol,nan,dichten,die,nan,dass,Esslöffel,nan,köstlichen,nichts,aus,große,Grases,täglichen,Herrn,die,ruhig,aus,um,Herrn,goldenen,den,Planeten,Kraftstoff,große,Untergrund,nan,Energie.,nan,jeden,Planet,artgerecht,Besucher.,eine,verschrottet.,nan,Flut,jeden.,Schmuck,seiner,Müll.,wiedergewählt.,"vermiest,",die,Schaumstoff,Taschengeld,Wurst,Kunsteis,Einkommen,Abduschen,er,ml,den,die,Müll.,sie,Esslöffel,Stimmung,Soldaten,verschrottet.,schwarzem,Helmen,sie,den,eine,Dezember,Besucher.,drei,nan,Hauptbahnhof.,die,aus,köstlicher,Tupperware,als,Gras,ml,jeden.,defekt,um,nan,nichts,mehr,nan,kaltem,jeden,mehr,Energie.,um,,,,,,,,,,,,,,,,,,,,,,,13,0,13,0,0,6,6,6,,,,,,,,space,0.453116893768,,,,,,2017_Feb_03_1419,58.6025001362,spr_backupper,001,Do11,
