text,sent48,sent9,sent8,sent15,sent3,sent2,sent1,sent14,sent7,sent6,sent5,sent4,sent57,sent56,sent55,sent54,sent53,sent52,sent51,sent50,sent13,sent12,sent11,sent10,sent17,sent16,sent59,sent58,sent93,sent92,sent91,sent90,sent97,sent96,sent95,sent94,sent98,sent22,sent23,sent20,sent21,sent26,sent27,sent24,sent25,sent28,sent29,sent68,sent69,sent66,sent67,sent64,sent65,sent62,sent63,sent60,sent61,sent31,sent30,sent33,sent32,sent35,sent34,sent37,sent36,sent39,sent38,sent79,sent78,sent75,sent74,sent77,sent76,sent71,sent70,sent73,sent72,sent19,sent49,sent18,sent44,sent45,sent84,sent85,sent86,sent87,sent80,sent81,sent82,sent83,sent40,sent41,sent42,sent43,sent88,sent89,sent46,sent47,intros.thisRepN,intros.thisTrialN,intros.thisN,intros.thisIndex,trials.thisRepN,trials.thisTrialN,trials.thisN,trials.thisIndex,testWords.thisRepN,testWords.thisTrialN,testWords.thisN,testWords.thisIndex,test1,test3,test2,test5,test4,test7,test6,test9,test8,test10,realTrials.thisRepN,realTrials.thisTrialN,realTrials.thisN,realTrials.thisIndex,words.thisRepN,words.thisTrialN,words.thisN,words.thisIndex,key_resp_3.keys,key_resp_3.rt,key_resp_8.keys,key_resp_10.keys,key_resp_10.rt,key_resp_6.keys,wordRead.keys,wordRead.rt,key_resp_5.keys,questAnswer.keys,questAnswer.rt,key_resp_6.rt,key_resp_5.rt,date,frameRate,expName,session,participant,
"Vielen Dank, dass Sie an diesem Experiment teilnehmen. Vor dem eigentlichen Experiment sehen Sie nun zuerst eine kurze Erläuterung, und Sie absolvieren ein kurze Übungsphase.

Das Experiment dauert insgesamt nicht mehr als 45 Minuten.",,,,,,,,,,,,,,,,,,,,,,,,,,,,,,,,,,,,,,,,,,,,,,,,,,,,,,,,,,,,,,,,,,,,,,,,,,,,,,,,,,,,,,,,,,,,,,,,,,,0,0,0,0,,,,,,,,,,,,,,,,,,,,,,,,,,,,,,,,,,,,,,,,2017_Jan_26_1148,59.8329819316,spr_backupper,001,Do12,
"In diesem Experiment lesen Sie deutsche Sätze, indem Sie sich von Wort zu Wort mit der Leertaste durch den Satz klicken.",,,,,,,,,,,,,,,,,,,,,,,,,,,,,,,,,,,,,,,,,,,,,,,,,,,,,,,,,,,,,,,,,,,,,,,,,,,,,,,,,,,,,,,,,,,,,,,,,,,0,1,1,1,,,,,,,,,,,,,,,,,,,,,,,,,,,,,,,,,,,,,,,,2017_Jan_26_1148,59.8329819316,spr_backupper,001,Do12,
"Sie sehen dabei immer nur das aktuelle Wort. Die Lesegeschwindigkeit bestimmen Sie vollständig selber. Vor jedem Satz sehen Sie in der Bildschirmmitte für zwei Sekunden ein + an der Stelle, an der dann die Wörter erscheinen.",,,,,,,,,,,,,,,,,,,,,,,,,,,,,,,,,,,,,,,,,,,,,,,,,,,,,,,,,,,,,,,,,,,,,,,,,,,,,,,,,,,,,,,,,,,,,,,,,,,0,2,2,2,,,,,,,,,,,,,,,,,,,,,,,,,,,,,,,,,,,,,,,,2017_Jan_26_1148,59.8329819316,spr_backupper,001,Do12,
"Nach jedem Satz wird Ihnen eine Ja/Nein-Verständnisfrage zum zuvor gelesenen Satz gestellt, die Sie mit der J-Taste für "Ja" und der N-Taste für "Nein" beantworten. Antworten Sie möglichst spontan und ohne lange Nachzudenken.",,,,,,,,,,,,,,,,,,,,,,,,,,,,,,,,,,,,,,,,,,,,,,,,,,,,,,,,,,,,,,,,,,,,,,,,,,,,,,,,,,,,,,,,,,,,,,,,,,,0,3,3,3,,,,,,,,,,,,,,,,,,,,,,,,,,,,,,,,,,,,,,,,2017_Jan_26_1148,59.8329819316,spr_backupper,001,Do12,
"Unterbrechen Sie das Experiment bitte auf keinen Fall, stellen Sie den ExperimentatorInnen nach dem Experimentbeginn keine Fragen, und lassen Sie sich nicht durch Umgebungsgeräusche ablenken.",,,,,,,,,,,,,,,,,,,,,,,,,,,,,,,,,,,,,,,,,,,,,,,,,,,,,,,,,,,,,,,,,,,,,,,,,,,,,,,,,,,,,,,,,,,,,,,,,,,0,4,4,4,,,,,,,,,,,,,,,,,,,,,,,,,,,,,,,,,,,,,,,,2017_Jan_26_1148,59.8329819316,spr_backupper,001,Do12,
"Im nächsten Schritt beantworten Sie bitte eine Frage zu Ihren Deutschkenntnissen. Danach beginnt eine Übungseinheit, mit der Sie sich an die Art der Durchführung dieses Experiments gewöhnen können.",,,,,,,,,,,,,,,,,,,,,,,,,,,,,,,,,,,,,,,,,,,,,,,,,,,,,,,,,,,,,,,,,,,,,,,,,,,,,,,,,,,,,,,,,,,,,,,,,,,0,5,5,5,,,,,,,,,,,,,,,,,,,,,,,,,,,,,,,,,,,,,,,,2017_Jan_26_1148,59.8329819316,spr_backupper,001,Do12,
,,,,,,,,,,,,,,,,,,,,,,,,,,,,,,,,,,,,,,,,,,,,,,,,,,,,,,,,,,,,,,,,,,,,,,,,,,,,,,,,,,,,,,,,,,,,,,,,,,,,,,,,,,,,,,,,,,,,,,,,,,,,,,,,,j,7.66479086876,,,,,,,,,,,,2017_Jan_26_1148,59.8329819316,spr_backupper,001,Do12,
,,,,,,,,,,,,,,,,,,,,,,,,,,,,,,,,,,,,,,,,,,,,,,,,,,,,,,,,,,,,,,,,,,,,,,,,,,,,,,,,,,,,,,,,,,,,,,,,,,,,,,,0,0,0,0,,,,,,,,,,,,,,,,,,,,,,,,,None,,,,,,,,,,,2017_Jan_26_1148,59.8329819316,spr_backupper,001,Do12,
,,,,,,,,,,,,,,,,,,,,,,,,,,,,,,,,,,,,,,,,,,,,,,,,,,,,,,,,,,,,,,,,,,,,,,,,,,,,,,,,,,,,,,,,,,,,,,,,,,,,,,,1,0,1,0,,,,,,,,,,,,,,,,,,,,,,,,,None,,,,,,,,,,,2017_Jan_26_1148,59.8329819316,spr_backupper,001,Do12,
,,,,,,,,,,,,,,,,,,,,,,,,,,,,,,,,,,,,,,,,,,,,,,,,,,,,,,,,,,,,,,,,,,,,,,,,,,,,,,,,,,,,,,,,,,,,,,,,,,,,,,,2,0,2,0,,,,,,,,,,,,,,,,,,,,,,,,,None,,,,,,,,,,,2017_Jan_26_1148,59.8329819316,spr_backupper,001,Do12,
,,,,,,,,,,,,,,,,,,,,,,,,,,,,,,,,,,,,,,,,,,,,,,,,,,,,,,,,,,,,,,,,,,,,,,,,,,,,,,,,,,,,,,,,,,,,,,,,,,,,,,,3,0,3,0,,,,,,,,,,,,,,,,,,,,,,,,,None,,,,,,,,,,,2017_Jan_26_1148,59.8329819316,spr_backupper,001,Do12,
,,,,,,,,,,,,,,,,,,,,,,,,,,,,,,,,,,,,,,,,,,,,,,,,,,,,,,,,,,,,,,,,,,,,,,,,,,,,,,,,,,,,,,,,,,,,,,,,,,,,,,,4,0,4,0,,,,,,,,,,,,,,,,,,,,,,,,,None,,,,,,,,,,,2017_Jan_26_1148,59.8329819316,spr_backupper,001,Do12,
,,,,,,,,,,,,,,,,,,,,,,,,,,,,,,,,,,,,,,,,,,,,,,,,,,,,,,,,,,,,,,,,,,,,,,,,,,,,,,,,,,,,,,,,,,,,,,,,,,,,,,,5,0,5,0,,,,,,,,,,,,,,,,,,,,,,,,,None,,,,,,,,,,,2017_Jan_26_1148,59.8329819316,spr_backupper,001,Do12,
,,,,,,,,,,,,,,,,,,,,,,,,,,,,,,,,,,,,,,,,,,,,,,,,,,,,,,,,,,,,,,,,,,,,,,,,,,,,,,,,,,,,,,,,,,,,,,,,,,,,,,,6,0,6,0,,,,,,,,,,,,,,,,,,,,,,,,,None,,,,,,,,,,,2017_Jan_26_1148,59.8329819316,spr_backupper,001,Do12,
,,,,,,,,,,,,,,,,,,,,,,,,,,,,,,,,,,,,,,,,,,,,,,,,,,,,,,,,,,,,,,,,,,,,,,,,,,,,,,,,,,,,,,,,,,,,,,,,,,,,,,,7,0,7,0,,,,,,,,,,,,,,,,,,,,,,,,,None,,,,,,,,,,,2017_Jan_26_1148,59.8329819316,spr_backupper,001,Do12,
,,,,,,,,,,,,,,,,,,,,,,,,,,,,,,,,,,,,,,,,,,,,,,,,,,,,,,,,,,,,,,,,,,,,,,,,,,,,,,,,,,,,,,,,,,,,,,,,,,,,,,,8,0,8,0,,,,,,,,,,,,,,,,,,,,,,,,,None,,,,,,,,,,,2017_Jan_26_1148,59.8329819316,spr_backupper,001,Do12,
,,,,,,,,,,,,,,,,,,,,,,,,,,,,,,,,,,,,,,,,,,,,,,,,,,,,,,,,,,,,,,,,,,,,,,,,,,,,,,,,,,,,,,,,,,,,,,,,,,,,,,,9,0,9,0,,,,,,,,,,,,,,,,,,,,,,,,,None,,,,,,,,,,,2017_Jan_26_1148,59.8329819316,spr_backupper,001,Do12,
,,,,,,,,,,,,,,,,,,,,,,,,,,,,,,,,,,,,,,,,,,,,,,,,,,,,,,,,,,,,,,,,,,,,,,,,,,,,,,,,,,,,,,,,,,,,,,,,,,,,,,,,,,,,,,,,,,,,,,,,,,,,,,,,,,,,space,4.67931413651,,,,,,,,,2017_Jan_26_1148,59.8329819316,spr_backupper,001,Do12,
,Die,Jetzt,Außer,In,In,Die,Die,Wir,In,Es,Es,Jungtiere,Die,Er,In,In,Außer,Sie,Dort,Wir,Wir,Die,Die,100,Er,Die,Nicht,Die,In,Wir,Die,Sie,Wir,100,Er,Viele,Es,Ich,Jugendliche,Sie,Die,Unter,Alle,Dort,Beträchtliche,Bei,Viele,Walter,Manche,Sie,Ich,Danach,Dass,Die,Bei,Er,Die,Die,Wir,Wir,In,Es,Die,Sie,Die,Sie,Die,Die,Mit,Man,Bei,Ich,Wir,Außer,Am,Die,Die,Man,Nicht,Das,Er,Bei,In,Die,Ihr,Im,Die,Es,Fernab,Beträchtliche,Wir,Im,Außer,Mit,Sie,Als,Am,Der,,,,,,,,,,,,,,,,,,,,,,,0,0,0,0,0,0,0,0,,,,,,None,space,1.5735039711,,,,,,2017_Jan_26_1148,59.8329819316,spr_backupper,001,Do12,
,"Uhr,",ist,den,meinem,der,Teilnehmerinnen,Gäste,übergaben,einer,waren,hat,sollten,Uhr,wurde,den,meinem,dem,verbrauchen,türmen,mussten,konnten,Schuhe,Schule,g,wurde,Stücke,ein,Autos,diesem,übergaben,Kinder,haben,hatten,g,hat,Tonnen,wurden,nehme,können,verlassen,müden,keinen,Betten,türmen,Stücke,unserer,Tonnen,Scheel,Kreditnehmer,hatte,wurde,wurde,es,Gäste,der,stellt,Lösung,Uhr,hatten,haben,den,wurden,Autos,verbrauchen,Kinder,hatte,Eislaufbahnen,Formen,dieser,machte,unserer,nehme,haben,das,äußeren,Uhr,Schuhe,machte,ein,Tuch,stellt,der,der,Linie,Blutdruck,Fernrohr,Schule,waren,des,Stücke,mussten,Fernrohr,dem,dieser,verlassen,die,äußersten,Flug,,,,,,,,,,,,,,,,,,,,,,,0,0,0,0,0,1,1,1,,,,,,,space,1.9162569046,,,,,,2017_Jan_26_1148,59.8329819316,spr_backupper,001,Do12,
,die,genau,Bürgermeister,Studium,Tat,wussten,suchen,das,Studie,nur,uns,immer,war,trotz,Kakao,Studium,Bürgermeister,60,sich,uns,dann,in,verbraucht,brauner,trotz,wurden,Tropfen,beider,Zirkus,dem,fuhren,die,in,braunen,ein,gebrauchter,Eimer,eine,Kleidung,wegen,Teilnehmer,Umständen,wurden,sich,saftiges,Ankunft,gebrauchte,war,sind,keine,damals,die,"regnete,",suchen,Feier,die,wird,schlug,in,jede,Kakao,Eimer,beider,60,fuhren,keine,wurden,wurden,Methode,mal,Ankunft,eine,jede,Essen,Rand,schlug,in,mal,Tropfen,wurde,die,Feier,Tat,101,kann,sahen,verbraucht,nur,Rummels,saftigen,uns,sahen,Essen,Methode,wegen,Sonne,Rand,zum,,,,,,,,,,,,,,,,,,,,,,,0,0,0,0,0,2,2,2,,,,,,,space,1.57676005363,,,,,,2017_Jan_26_1148,59.8329819316,spr_backupper,001,Do12,
,er,die,beschuldigten,habe,wissen,überwiegend,die,Auto,wurde,kleinere,die,auf,aus,dem,gehören,las,beschuldigten,Liter,Berge,durch,mit,Größe,260.000,Zucker,des,aus,königliches,beteiligter,werden,Mann,mit,Erlebnisse,Dänemark,Zuckers,Hemd,Kleidung,rote,große,bei,des,wurden,können,mit,Berge,Fleisch,stand,Kleidung,der,mit,Lust,schnell,Leinwand,hat,die,gedachte,Masse,mit,"sporadisch,",Dänemark,Menge,gehören,roter,beteiligten,Liter,mit,Lust,mit,unter,kann,wieder,stand,große,Menge,kann,der,"sporadisch,",Größe,wieder,königlichen,dann,Masse,gedachte,wissen,hält,schon,wir,260.000,kleinere,wurde,Fleischs,durch,wir,kann,kann,dem,"unterging,",der,Mond,,,,,,,,,,,,,,,,,,,,,,,0,0,0,0,0,3,3,3,,,,,,,space,1.49350905418,,,,,,2017_Jan_26_1148,59.8329819316,spr_backupper,001,Do12,
,"trug,",richtige,die,ich,wir,"nicht,",Wohnung,dem,jetzt,"Delikte,",Stimmung,warmem,"Japan,",bekannten,immer,ich,die,sprudelndes,schmutzige,Büschel,"minimalem,",36,Kilowattstunden,sind,bekannten,"wertvollem,",Blut,Fahrer,die,das,solch,bei,gelegentlich,sind,aus,landen,Farbe,Packung,ausreichendem,schönen,mit,Neuwahlen,"üblichem,",schmutziger,wurden,ein,landen,vierte,"sämtlichem,",auf,dank,aus,uns,Wohnung,man,mit,"reichlichem,",obwohl,einen,alten,immer,Farbe,Fahrer,sprudelnden,solchen,auf,dauerhaftem,"regelmäßigem,",man,viel,ein,Packung,alten,ich,Stadt,obschon,36,viel,Bluts,mit,mit,man,wir,nicht,bei,den,Kilowattstunden,"Delikte,",schon,wurden,Büschel,den,ich,man,schönen,war,Stadt,dauerte,,,,,,,,,,,,,,,,,,,,,,,0,0,0,0,0,4,4,4,,,,,,,space,0.905263900757,,,,,,2017_Jan_26_1148,59.8329819316,spr_backupper,001,Do12,
,war,"Zeit,",Störenfriede,mehr,von,was,des,Mann,"nachgewiesen,",derer,ziemlich,weichem,die,Skandal,350,mehr,Störenfriede,Trinkwasser.,Wäsche.,frischen,sauberen,würden,elektrische,auf,Skandals,klassischen,hat,wurden,Tiere,Auto,unzureichenden,"frischem,",einen,auf,feinem,im,geschleudert.,salziger,monatlichem,Wetters,zusätzlichem,vor,harten,Wäsche.,serviert.,Glas,im,Bundespräsident.,künftigem,noch,täglichem,seltenem,die,des,den,einem,purem,sie,gelegentlichen,Kram,350,geschleudert.,wurden,Trinkwassers.,unzureichenden,noch,feinem,kaltem,eine,Lärm,Glas,salzige,Krams,leider,liegen,sie,hätten,Lärm,hat,"reichem,",einem,der,um,am,minimalem,roten,elektrischer,deren,immer,serviert.,frisches,roten,leider,eine,Wetter,die,liegen,ungefähr,,,,,,,,,,,,,,,,,,,,,,,0,0,0,0,0,5,5,5,,,,,,,space,1.44238400459,,,,,,2017_Jan_26_1148,59.8329819316,spr_backupper,001,Do12,
,aus,um,jeden.,als,den,Tupperware,Herrn,mehr,dass,sie,"vermiest,",Untergrund,er,wiedergewählt.,ml,als,jeden.,nan,nan,Grases,Kraftstoff,seiner,Energie.,jeden,wiedergewählt.,Schmuck,den,verschrottet.,artgerecht,mehr,Helmen,kaltem,Besucher.,jeden,dichten,Müll.,nan,Wurst,Taschengeld,die,schwarzem,Dezember,Schaumstoff,nan,nan,köstlichen,Müll.,nan,Einkommen,eine,grünen,dichten,Stimmung,Herrn,Soldaten,Esslöffel,Alkohol,defekt,Besucher.,aus,ml,nan,verschrottet.,nan,Helmen,eine,Kunsteis,Abduschen,große,um,köstlicher,Wurst,aus,nichts,die,defekt,seiner,um,den,goldenen,Esslöffel,Soldaten,die,Hauptbahnhof.,täglichen,Planet,Energie.,sie,ruhig,nan,Gras,Planeten,nichts,große,die,Flut,die,drei,,,,,,,,,,,,,,,,,,,,,,,0,0,0,0,0,6,6,6,,,,,,,space,0.873239994049,,,,,,2017_Jan_26_1148,59.8329819316,spr_backupper,001,Do12,
,Japan.,Nadelhölzer,nan,einmal,Problemen,ist.,Gantenbeins.,als,das,überführt,dass,liegen.,trug.,nan,warmer,einmal,nan,nan,nan,zwängen.,fahren.,Frau,nan,Fall,nan,umgearbeitet.,Boden,nan,gehalten.,als,zur,Saft,nan,Fall,Stoff,nan,nan,mit,selber,Wohnung.,Kaffee,stattfinden.,gefertigt.,nan,nan,Weins,nan,nan,haftbar.,Sammlung,Tee,Gewebe,ziemlich,Gantenbein.,des,warmem,verdünnt.,war.,nan,dem,warme,nan,nan,nan,zur,Sammlung,eingesprüht.,gehärtet.,Menge,jede,Wein,mit,dem,mitbringen.,Slums.,war.,Frau,jede,Boden,Besatz,warmen,des,Probleme,nan,Einsatz,ganz,nan,überführt,diskutiert.,nan,zwängen.,ganz,mitbringen.,Menge,Wohnung.,zurückgekehrt.,Slums.,Tage.,,,,,,,,,,,,,,,,,,,,,,,0,0,0,0,0,7,7,7,,,,,,,space,1.76447701454,,,,,,2017_Jan_26_1148,59.8329819316,spr_backupper,001,Do12,
,,,,,,,,,,,,,,,,,,,,,,,,,,,,,,,,,,,,,,,,,,,,,,,,,,,,,,,,,,,,,,,,,,,,,,,,,,,,,,,,,,,,,,,,,,,,,,,,,,,,,,,,,,,,,,,,,,,,,,,,,0,0,0,0,,,,,,,,,,,,,None,n,2.19424510002,,,2017_Jan_26_1148,59.8329819316,spr_backupper,001,Do12,
,Die,Jetzt,Außer,In,In,Die,Die,Wir,In,Es,Es,Jungtiere,Die,Er,In,In,Außer,Sie,Dort,Wir,Wir,Die,Die,100,Er,Die,Nicht,Die,In,Wir,Die,Sie,Wir,100,Er,Viele,Es,Ich,Jugendliche,Sie,Die,Unter,Alle,Dort,Beträchtliche,Bei,Viele,Walter,Manche,Sie,Ich,Danach,Dass,Die,Bei,Er,Die,Die,Wir,Wir,In,Es,Die,Sie,Die,Sie,Die,Die,Mit,Man,Bei,Ich,Wir,Außer,Am,Die,Die,Man,Nicht,Das,Er,Bei,In,Die,Ihr,Im,Die,Es,Fernab,Beträchtliche,Wir,Im,Außer,Mit,Sie,Als,Am,Der,,,,,,,,,,,,,,,,,,,,,,,1,0,1,0,0,0,0,0,,,,,,space,space,1.30543804169,,,,1.12338685989,,2017_Jan_26_1148,59.8329819316,spr_backupper,001,Do12,
,"Uhr,",ist,den,meinem,der,Teilnehmerinnen,Gäste,übergaben,einer,waren,hat,sollten,Uhr,wurde,den,meinem,dem,verbrauchen,türmen,mussten,konnten,Schuhe,Schule,g,wurde,Stücke,ein,Autos,diesem,übergaben,Kinder,haben,hatten,g,hat,Tonnen,wurden,nehme,können,verlassen,müden,keinen,Betten,türmen,Stücke,unserer,Tonnen,Scheel,Kreditnehmer,hatte,wurde,wurde,es,Gäste,der,stellt,Lösung,Uhr,hatten,haben,den,wurden,Autos,verbrauchen,Kinder,hatte,Eislaufbahnen,Formen,dieser,machte,unserer,nehme,haben,das,äußeren,Uhr,Schuhe,machte,ein,Tuch,stellt,der,der,Linie,Blutdruck,Fernrohr,Schule,waren,des,Stücke,mussten,Fernrohr,dem,dieser,verlassen,die,äußersten,Flug,,,,,,,,,,,,,,,,,,,,,,,1,0,1,0,0,1,1,1,,,,,,,space,1.27207803726,,,,,,2017_Jan_26_1148,59.8329819316,spr_backupper,001,Do12,
,die,genau,Bürgermeister,Studium,Tat,wussten,suchen,das,Studie,nur,uns,immer,war,trotz,Kakao,Studium,Bürgermeister,60,sich,uns,dann,in,verbraucht,brauner,trotz,wurden,Tropfen,beider,Zirkus,dem,fuhren,die,in,braunen,ein,gebrauchter,Eimer,eine,Kleidung,wegen,Teilnehmer,Umständen,wurden,sich,saftiges,Ankunft,gebrauchte,war,sind,keine,damals,die,"regnete,",suchen,Feier,die,wird,schlug,in,jede,Kakao,Eimer,beider,60,fuhren,keine,wurden,wurden,Methode,mal,Ankunft,eine,jede,Essen,Rand,schlug,in,mal,Tropfen,wurde,die,Feier,Tat,101,kann,sahen,verbraucht,nur,Rummels,saftigen,uns,sahen,Essen,Methode,wegen,Sonne,Rand,zum,,,,,,,,,,,,,,,,,,,,,,,1,0,1,0,0,2,2,2,,,,,,,space,1.23122787476,,,,,,2017_Jan_26_1148,59.8329819316,spr_backupper,001,Do12,
,er,die,beschuldigten,habe,wissen,überwiegend,die,Auto,wurde,kleinere,die,auf,aus,dem,gehören,las,beschuldigten,Liter,Berge,durch,mit,Größe,260.000,Zucker,des,aus,königliches,beteiligter,werden,Mann,mit,Erlebnisse,Dänemark,Zuckers,Hemd,Kleidung,rote,große,bei,des,wurden,können,mit,Berge,Fleisch,stand,Kleidung,der,mit,Lust,schnell,Leinwand,hat,die,gedachte,Masse,mit,"sporadisch,",Dänemark,Menge,gehören,roter,beteiligten,Liter,mit,Lust,mit,unter,kann,wieder,stand,große,Menge,kann,der,"sporadisch,",Größe,wieder,königlichen,dann,Masse,gedachte,wissen,hält,schon,wir,260.000,kleinere,wurde,Fleischs,durch,wir,kann,kann,dem,"unterging,",der,Mond,,,,,,,,,,,,,,,,,,,,,,,1,0,1,0,0,3,3,3,,,,,,,space,1.39753699303,,,,,,2017_Jan_26_1148,59.8329819316,spr_backupper,001,Do12,
,"trug,",richtige,die,ich,wir,"nicht,",Wohnung,dem,jetzt,"Delikte,",Stimmung,warmem,"Japan,",bekannten,immer,ich,die,sprudelndes,schmutzige,Büschel,"minimalem,",36,Kilowattstunden,sind,bekannten,"wertvollem,",Blut,Fahrer,die,das,solch,bei,gelegentlich,sind,aus,landen,Farbe,Packung,ausreichendem,schönen,mit,Neuwahlen,"üblichem,",schmutziger,wurden,ein,landen,vierte,"sämtlichem,",auf,dank,aus,uns,Wohnung,man,mit,"reichlichem,",obwohl,einen,alten,immer,Farbe,Fahrer,sprudelnden,solchen,auf,dauerhaftem,"regelmäßigem,",man,viel,ein,Packung,alten,ich,Stadt,obschon,36,viel,Bluts,mit,mit,man,wir,nicht,bei,den,Kilowattstunden,"Delikte,",schon,wurden,Büschel,den,ich,man,schönen,war,Stadt,dauerte,,,,,,,,,,,,,,,,,,,,,,,1,0,1,0,0,4,4,4,,,,,,,space,1.61640906334,,,,,,2017_Jan_26_1148,59.8329819316,spr_backupper,001,Do12,
,war,"Zeit,",Störenfriede,mehr,von,was,des,Mann,"nachgewiesen,",derer,ziemlich,weichem,die,Skandal,350,mehr,Störenfriede,Trinkwasser.,Wäsche.,frischen,sauberen,würden,elektrische,auf,Skandals,klassischen,hat,wurden,Tiere,Auto,unzureichenden,"frischem,",einen,auf,feinem,im,geschleudert.,salziger,monatlichem,Wetters,zusätzlichem,vor,harten,Wäsche.,serviert.,Glas,im,Bundespräsident.,künftigem,noch,täglichem,seltenem,die,des,den,einem,purem,sie,gelegentlichen,Kram,350,geschleudert.,wurden,Trinkwassers.,unzureichenden,noch,feinem,kaltem,eine,Lärm,Glas,salzige,Krams,leider,liegen,sie,hätten,Lärm,hat,"reichem,",einem,der,um,am,minimalem,roten,elektrischer,deren,immer,serviert.,frisches,roten,leider,eine,Wetter,die,liegen,ungefähr,,,,,,,,,,,,,,,,,,,,,,,1,0,1,0,0,5,5,5,,,,,,,space,1.68557214737,,,,,,2017_Jan_26_1148,59.8329819316,spr_backupper,001,Do12,
,aus,um,jeden.,als,den,Tupperware,Herrn,mehr,dass,sie,"vermiest,",Untergrund,er,wiedergewählt.,ml,als,jeden.,nan,nan,Grases,Kraftstoff,seiner,Energie.,jeden,wiedergewählt.,Schmuck,den,verschrottet.,artgerecht,mehr,Helmen,kaltem,Besucher.,jeden,dichten,Müll.,nan,Wurst,Taschengeld,die,schwarzem,Dezember,Schaumstoff,nan,nan,köstlichen,Müll.,nan,Einkommen,eine,grünen,dichten,Stimmung,Herrn,Soldaten,Esslöffel,Alkohol,defekt,Besucher.,aus,ml,nan,verschrottet.,nan,Helmen,eine,Kunsteis,Abduschen,große,um,köstlicher,Wurst,aus,nichts,die,defekt,seiner,um,den,goldenen,Esslöffel,Soldaten,die,Hauptbahnhof.,täglichen,Planet,Energie.,sie,ruhig,nan,Gras,Planeten,nichts,große,die,Flut,die,drei,,,,,,,,,,,,,,,,,,,,,,,1,0,1,0,0,6,6,6,,,,,,,space,1.13729190826,,,,,,2017_Jan_26_1148,59.8329819316,spr_backupper,001,Do12,
,Japan.,Nadelhölzer,nan,einmal,Problemen,ist.,Gantenbeins.,als,das,überführt,dass,liegen.,trug.,nan,warmer,einmal,nan,nan,nan,zwängen.,fahren.,Frau,nan,Fall,nan,umgearbeitet.,Boden,nan,gehalten.,als,zur,Saft,nan,Fall,Stoff,nan,nan,mit,selber,Wohnung.,Kaffee,stattfinden.,gefertigt.,nan,nan,Weins,nan,nan,haftbar.,Sammlung,Tee,Gewebe,ziemlich,Gantenbein.,des,warmem,verdünnt.,war.,nan,dem,warme,nan,nan,nan,zur,Sammlung,eingesprüht.,gehärtet.,Menge,jede,Wein,mit,dem,mitbringen.,Slums.,war.,Frau,jede,Boden,Besatz,warmen,des,Probleme,nan,Einsatz,ganz,nan,überführt,diskutiert.,nan,zwängen.,ganz,mitbringen.,Menge,Wohnung.,zurückgekehrt.,Slums.,Tage.,,,,,,,,,,,,,,,,,,,,,,,1,0,1,0,0,7,7,7,,,,,,,space,1.40007400513,,,,,,2017_Jan_26_1148,59.8329819316,spr_backupper,001,Do12,
,,,,,,,,,,,,,,,,,,,,,,,,,,,,,,,,,,,,,,,,,,,,,,,,,,,,,,,,,,,,,,,,,,,,,,,,,,,,,,,,,,,,,,,,,,,,,,,,,,,,,,,,,,,,,,,,,,,,,,,,,1,0,1,0,,,,,,,,,,,,,None,n,4.50638699532,,,2017_Jan_26_1148,59.8329819316,spr_backupper,001,Do12,
,Die,Jetzt,Außer,In,In,Die,Die,Wir,In,Es,Es,Jungtiere,Die,Er,In,In,Außer,Sie,Dort,Wir,Wir,Die,Die,100,Er,Die,Nicht,Die,In,Wir,Die,Sie,Wir,100,Er,Viele,Es,Ich,Jugendliche,Sie,Die,Unter,Alle,Dort,Beträchtliche,Bei,Viele,Walter,Manche,Sie,Ich,Danach,Dass,Die,Bei,Er,Die,Die,Wir,Wir,In,Es,Die,Sie,Die,Sie,Die,Die,Mit,Man,Bei,Ich,Wir,Außer,Am,Die,Die,Man,Nicht,Das,Er,Bei,In,Die,Ihr,Im,Die,Es,Fernab,Beträchtliche,Wir,Im,Außer,Mit,Sie,Als,Am,Der,,,,,,,,,,,,,,,,,,,,,,,2,0,2,0,0,0,0,0,,,,,,space,space,1.3560359478,,,,1.47540187836,,2017_Jan_26_1148,59.8329819316,spr_backupper,001,Do12,
,"Uhr,",ist,den,meinem,der,Teilnehmerinnen,Gäste,übergaben,einer,waren,hat,sollten,Uhr,wurde,den,meinem,dem,verbrauchen,türmen,mussten,konnten,Schuhe,Schule,g,wurde,Stücke,ein,Autos,diesem,übergaben,Kinder,haben,hatten,g,hat,Tonnen,wurden,nehme,können,verlassen,müden,keinen,Betten,türmen,Stücke,unserer,Tonnen,Scheel,Kreditnehmer,hatte,wurde,wurde,es,Gäste,der,stellt,Lösung,Uhr,hatten,haben,den,wurden,Autos,verbrauchen,Kinder,hatte,Eislaufbahnen,Formen,dieser,machte,unserer,nehme,haben,das,äußeren,Uhr,Schuhe,machte,ein,Tuch,stellt,der,der,Linie,Blutdruck,Fernrohr,Schule,waren,des,Stücke,mussten,Fernrohr,dem,dieser,verlassen,die,äußersten,Flug,,,,,,,,,,,,,,,,,,,,,,,2,0,2,0,0,1,1,1,,,,,,,space,0.872013807297,,,,,,2017_Jan_26_1148,59.8329819316,spr_backupper,001,Do12,
,die,genau,Bürgermeister,Studium,Tat,wussten,suchen,das,Studie,nur,uns,immer,war,trotz,Kakao,Studium,Bürgermeister,60,sich,uns,dann,in,verbraucht,brauner,trotz,wurden,Tropfen,beider,Zirkus,dem,fuhren,die,in,braunen,ein,gebrauchter,Eimer,eine,Kleidung,wegen,Teilnehmer,Umständen,wurden,sich,saftiges,Ankunft,gebrauchte,war,sind,keine,damals,die,"regnete,",suchen,Feier,die,wird,schlug,in,jede,Kakao,Eimer,beider,60,fuhren,keine,wurden,wurden,Methode,mal,Ankunft,eine,jede,Essen,Rand,schlug,in,mal,Tropfen,wurde,die,Feier,Tat,101,kann,sahen,verbraucht,nur,Rummels,saftigen,uns,sahen,Essen,Methode,wegen,Sonne,Rand,zum,,,,,,,,,,,,,,,,,,,,,,,2,0,2,0,0,2,2,2,,,,,,,space,1.00680780411,,,,,,2017_Jan_26_1148,59.8329819316,spr_backupper,001,Do12,
,er,die,beschuldigten,habe,wissen,überwiegend,die,Auto,wurde,kleinere,die,auf,aus,dem,gehören,las,beschuldigten,Liter,Berge,durch,mit,Größe,260.000,Zucker,des,aus,königliches,beteiligter,werden,Mann,mit,Erlebnisse,Dänemark,Zuckers,Hemd,Kleidung,rote,große,bei,des,wurden,können,mit,Berge,Fleisch,stand,Kleidung,der,mit,Lust,schnell,Leinwand,hat,die,gedachte,Masse,mit,"sporadisch,",Dänemark,Menge,gehören,roter,beteiligten,Liter,mit,Lust,mit,unter,kann,wieder,stand,große,Menge,kann,der,"sporadisch,",Größe,wieder,königlichen,dann,Masse,gedachte,wissen,hält,schon,wir,260.000,kleinere,wurde,Fleischs,durch,wir,kann,kann,dem,"unterging,",der,Mond,,,,,,,,,,,,,,,,,,,,,,,2,0,2,0,0,3,3,3,,,,,,,space,0.946120023727,,,,,,2017_Jan_26_1148,59.8329819316,spr_backupper,001,Do12,
,"trug,",richtige,die,ich,wir,"nicht,",Wohnung,dem,jetzt,"Delikte,",Stimmung,warmem,"Japan,",bekannten,immer,ich,die,sprudelndes,schmutzige,Büschel,"minimalem,",36,Kilowattstunden,sind,bekannten,"wertvollem,",Blut,Fahrer,die,das,solch,bei,gelegentlich,sind,aus,landen,Farbe,Packung,ausreichendem,schönen,mit,Neuwahlen,"üblichem,",schmutziger,wurden,ein,landen,vierte,"sämtlichem,",auf,dank,aus,uns,Wohnung,man,mit,"reichlichem,",obwohl,einen,alten,immer,Farbe,Fahrer,sprudelnden,solchen,auf,dauerhaftem,"regelmäßigem,",man,viel,ein,Packung,alten,ich,Stadt,obschon,36,viel,Bluts,mit,mit,man,wir,nicht,bei,den,Kilowattstunden,"Delikte,",schon,wurden,Büschel,den,ich,man,schönen,war,Stadt,dauerte,,,,,,,,,,,,,,,,,,,,,,,2,0,2,0,0,4,4,4,,,,,,,space,1.30922198296,,,,,,2017_Jan_26_1148,59.8329819316,spr_backupper,001,Do12,
,war,"Zeit,",Störenfriede,mehr,von,was,des,Mann,"nachgewiesen,",derer,ziemlich,weichem,die,Skandal,350,mehr,Störenfriede,Trinkwasser.,Wäsche.,frischen,sauberen,würden,elektrische,auf,Skandals,klassischen,hat,wurden,Tiere,Auto,unzureichenden,"frischem,",einen,auf,feinem,im,geschleudert.,salziger,monatlichem,Wetters,zusätzlichem,vor,harten,Wäsche.,serviert.,Glas,im,Bundespräsident.,künftigem,noch,täglichem,seltenem,die,des,den,einem,purem,sie,gelegentlichen,Kram,350,geschleudert.,wurden,Trinkwassers.,unzureichenden,noch,feinem,kaltem,eine,Lärm,Glas,salzige,Krams,leider,liegen,sie,hätten,Lärm,hat,"reichem,",einem,der,um,am,minimalem,roten,elektrischer,deren,immer,serviert.,frisches,roten,leider,eine,Wetter,die,liegen,ungefähr,,,,,,,,,,,,,,,,,,,,,,,2,0,2,0,0,5,5,5,,,,,,,space,0.583917856216,,,,,,2017_Jan_26_1148,59.8329819316,spr_backupper,001,Do12,
,aus,um,jeden.,als,den,Tupperware,Herrn,mehr,dass,sie,"vermiest,",Untergrund,er,wiedergewählt.,ml,als,jeden.,nan,nan,Grases,Kraftstoff,seiner,Energie.,jeden,wiedergewählt.,Schmuck,den,verschrottet.,artgerecht,mehr,Helmen,kaltem,Besucher.,jeden,dichten,Müll.,nan,Wurst,Taschengeld,die,schwarzem,Dezember,Schaumstoff,nan,nan,köstlichen,Müll.,nan,Einkommen,eine,grünen,dichten,Stimmung,Herrn,Soldaten,Esslöffel,Alkohol,defekt,Besucher.,aus,ml,nan,verschrottet.,nan,Helmen,eine,Kunsteis,Abduschen,große,um,köstlicher,Wurst,aus,nichts,die,defekt,seiner,um,den,goldenen,Esslöffel,Soldaten,die,Hauptbahnhof.,täglichen,Planet,Energie.,sie,ruhig,nan,Gras,Planeten,nichts,große,die,Flut,die,drei,,,,,,,,,,,,,,,,,,,,,,,2,0,2,0,0,6,6,6,,,,,,,space,1.16659092903,,,,,,2017_Jan_26_1148,59.8329819316,spr_backupper,001,Do12,
,Japan.,Nadelhölzer,nan,einmal,Problemen,ist.,Gantenbeins.,als,das,überführt,dass,liegen.,trug.,nan,warmer,einmal,nan,nan,nan,zwängen.,fahren.,Frau,nan,Fall,nan,umgearbeitet.,Boden,nan,gehalten.,als,zur,Saft,nan,Fall,Stoff,nan,nan,mit,selber,Wohnung.,Kaffee,stattfinden.,gefertigt.,nan,nan,Weins,nan,nan,haftbar.,Sammlung,Tee,Gewebe,ziemlich,Gantenbein.,des,warmem,verdünnt.,war.,nan,dem,warme,nan,nan,nan,zur,Sammlung,eingesprüht.,gehärtet.,Menge,jede,Wein,mit,dem,mitbringen.,Slums.,war.,Frau,jede,Boden,Besatz,warmen,des,Probleme,nan,Einsatz,ganz,nan,überführt,diskutiert.,nan,zwängen.,ganz,mitbringen.,Menge,Wohnung.,zurückgekehrt.,Slums.,Tage.,,,,,,,,,,,,,,,,,,,,,,,2,0,2,0,0,7,7,7,,,,,,,space,1.65950107574,,,,,,2017_Jan_26_1148,59.8329819316,spr_backupper,001,Do12,
,nan,umzusetzen.,nan,Rilke,im,nan,nan,gerne.,Medikament,wurden.,es,nan,nan,nan,Milch.,Rilke.,nan,nan,nan,nan,nan,gepasst,nan,genug.,nan,nan,berührt.,nan,nan,gerne.,Schule.,besprochen.,nan,genug.,gefertigt.,nan,nan,an,kaufen.,nan,wiederbelebt.,nan,nan,nan,nan,schon,nan,nan,nan,dummer,wieder,wiederhergestellt.,vermiest.,nan,zweiten,Honig,nan,nan,nan,Haus,Milch.,nan,nan,nan,Schule.,dumme,nan,nan,dunkler,Menge,schon,an,Haus,nan,nan,nan,gepasst.,Menge,berührt.,rekonstruiert.,Honigs,zweiten,im,nan,sinken.,deutlich.,nan,wurden.,nan,nan,nan,deutlich.,nan,dunkle,nan,nan,nan,nan,,,,,,,,,,,,,,,,,,,,,,,2,0,2,0,0,8,8,8,,,,,,,space,1.59433817863,,,,,,2017_Jan_26_1148,59.8329819316,spr_backupper,001,Do12,
,nan,nan,nan,gelesen.,Landkreis.,nan,nan,nan,nicht,nan,regnete.,nan,nan,nan,nan,nan,nan,nan,nan,nan,nan,haben.,nan,nan,nan,nan,nan,nan,nan,nan,nan,nan,nan,nan,nan,nan,nan,den,nan,nan,nan,nan,nan,nan,nan,auf,nan,nan,nan,Sprüche.,fit.,nan,nan,nan,Weltkriegs.,her.,nan,nan,nan,geschafft.,nan,nan,nan,nan,nan,Sprüche.,nan,nan,Materie,heiße,auf,den,geschafft.,nan,nan,nan,nan,heißer,nan,nan,her.,Weltkriegs.,Landkreis.,nan,nan,nan,nan,nan,nan,nan,nan,nan,nan,Materie,nan,nan,nan,nan,,,,,,,,,,,,,,,,,,,,,,,2,0,2,0,0,9,9,9,,,,,,,space,1.15764904022,,,,,,2017_Jan_26_1148,59.8329819316,spr_backupper,001,Do12,
,,,,,,,,,,,,,,,,,,,,,,,,,,,,,,,,,,,,,,,,,,,,,,,,,,,,,,,,,,,,,,,,,,,,,,,,,,,,,,,,,,,,,,,,,,,,,,,,,,,,,,,,,,,,,,,,,,,,,,,,,2,0,2,0,,,,,,,,,,,,,None,j,1.85461497307,,,2017_Jan_26_1148,59.8329819316,spr_backupper,001,Do12,
,Die,Jetzt,Außer,In,In,Die,Die,Wir,In,Es,Es,Jungtiere,Die,Er,In,In,Außer,Sie,Dort,Wir,Wir,Die,Die,100,Er,Die,Nicht,Die,In,Wir,Die,Sie,Wir,100,Er,Viele,Es,Ich,Jugendliche,Sie,Die,Unter,Alle,Dort,Beträchtliche,Bei,Viele,Walter,Manche,Sie,Ich,Danach,Dass,Die,Bei,Er,Die,Die,Wir,Wir,In,Es,Die,Sie,Die,Sie,Die,Die,Mit,Man,Bei,Ich,Wir,Außer,Am,Die,Die,Man,Nicht,Das,Er,Bei,In,Die,Ihr,Im,Die,Es,Fernab,Beträchtliche,Wir,Im,Außer,Mit,Sie,Als,Am,Der,,,,,,,,,,,,,,,,,,,,,,,3,0,3,0,0,0,0,0,,,,,,space,space,0.992406845093,,,,1.12356090546,,2017_Jan_26_1148,59.8329819316,spr_backupper,001,Do12,
,"Uhr,",ist,den,meinem,der,Teilnehmerinnen,Gäste,übergaben,einer,waren,hat,sollten,Uhr,wurde,den,meinem,dem,verbrauchen,türmen,mussten,konnten,Schuhe,Schule,g,wurde,Stücke,ein,Autos,diesem,übergaben,Kinder,haben,hatten,g,hat,Tonnen,wurden,nehme,können,verlassen,müden,keinen,Betten,türmen,Stücke,unserer,Tonnen,Scheel,Kreditnehmer,hatte,wurde,wurde,es,Gäste,der,stellt,Lösung,Uhr,hatten,haben,den,wurden,Autos,verbrauchen,Kinder,hatte,Eislaufbahnen,Formen,dieser,machte,unserer,nehme,haben,das,äußeren,Uhr,Schuhe,machte,ein,Tuch,stellt,der,der,Linie,Blutdruck,Fernrohr,Schule,waren,des,Stücke,mussten,Fernrohr,dem,dieser,verlassen,die,äußersten,Flug,,,,,,,,,,,,,,,,,,,,,,,3,0,3,0,0,1,1,1,,,,,,,space,0.994489908218,,,,,,2017_Jan_26_1148,59.8329819316,spr_backupper,001,Do12,
,die,genau,Bürgermeister,Studium,Tat,wussten,suchen,das,Studie,nur,uns,immer,war,trotz,Kakao,Studium,Bürgermeister,60,sich,uns,dann,in,verbraucht,brauner,trotz,wurden,Tropfen,beider,Zirkus,dem,fuhren,die,in,braunen,ein,gebrauchter,Eimer,eine,Kleidung,wegen,Teilnehmer,Umständen,wurden,sich,saftiges,Ankunft,gebrauchte,war,sind,keine,damals,die,"regnete,",suchen,Feier,die,wird,schlug,in,jede,Kakao,Eimer,beider,60,fuhren,keine,wurden,wurden,Methode,mal,Ankunft,eine,jede,Essen,Rand,schlug,in,mal,Tropfen,wurde,die,Feier,Tat,101,kann,sahen,verbraucht,nur,Rummels,saftigen,uns,sahen,Essen,Methode,wegen,Sonne,Rand,zum,,,,,,,,,,,,,,,,,,,,,,,3,0,3,0,0,2,2,2,,,,,,,space,1.69492411613,,,,,,2017_Jan_26_1148,59.8329819316,spr_backupper,001,Do12,
,er,die,beschuldigten,habe,wissen,überwiegend,die,Auto,wurde,kleinere,die,auf,aus,dem,gehören,las,beschuldigten,Liter,Berge,durch,mit,Größe,260.000,Zucker,des,aus,königliches,beteiligter,werden,Mann,mit,Erlebnisse,Dänemark,Zuckers,Hemd,Kleidung,rote,große,bei,des,wurden,können,mit,Berge,Fleisch,stand,Kleidung,der,mit,Lust,schnell,Leinwand,hat,die,gedachte,Masse,mit,"sporadisch,",Dänemark,Menge,gehören,roter,beteiligten,Liter,mit,Lust,mit,unter,kann,wieder,stand,große,Menge,kann,der,"sporadisch,",Größe,wieder,königlichen,dann,Masse,gedachte,wissen,hält,schon,wir,260.000,kleinere,wurde,Fleischs,durch,wir,kann,kann,dem,"unterging,",der,Mond,,,,,,,,,,,,,,,,,,,,,,,3,0,3,0,0,3,3,3,,,,,,,space,1.12029314041,,,,,,2017_Jan_26_1148,59.8329819316,spr_backupper,001,Do12,
,"trug,",richtige,die,ich,wir,"nicht,",Wohnung,dem,jetzt,"Delikte,",Stimmung,warmem,"Japan,",bekannten,immer,ich,die,sprudelndes,schmutzige,Büschel,"minimalem,",36,Kilowattstunden,sind,bekannten,"wertvollem,",Blut,Fahrer,die,das,solch,bei,gelegentlich,sind,aus,landen,Farbe,Packung,ausreichendem,schönen,mit,Neuwahlen,"üblichem,",schmutziger,wurden,ein,landen,vierte,"sämtlichem,",auf,dank,aus,uns,Wohnung,man,mit,"reichlichem,",obwohl,einen,alten,immer,Farbe,Fahrer,sprudelnden,solchen,auf,dauerhaftem,"regelmäßigem,",man,viel,ein,Packung,alten,ich,Stadt,obschon,36,viel,Bluts,mit,mit,man,wir,nicht,bei,den,Kilowattstunden,"Delikte,",schon,wurden,Büschel,den,ich,man,schönen,war,Stadt,dauerte,,,,,,,,,,,,,,,,,,,,,,,3,0,3,0,0,4,4,4,,,,,,,space,2.19176292419,,,,,,2017_Jan_26_1148,59.8329819316,spr_backupper,001,Do12,
,war,"Zeit,",Störenfriede,mehr,von,was,des,Mann,"nachgewiesen,",derer,ziemlich,weichem,die,Skandal,350,mehr,Störenfriede,Trinkwasser.,Wäsche.,frischen,sauberen,würden,elektrische,auf,Skandals,klassischen,hat,wurden,Tiere,Auto,unzureichenden,"frischem,",einen,auf,feinem,im,geschleudert.,salziger,monatlichem,Wetters,zusätzlichem,vor,harten,Wäsche.,serviert.,Glas,im,Bundespräsident.,künftigem,noch,täglichem,seltenem,die,des,den,einem,purem,sie,gelegentlichen,Kram,350,geschleudert.,wurden,Trinkwassers.,unzureichenden,noch,feinem,kaltem,eine,Lärm,Glas,salzige,Krams,leider,liegen,sie,hätten,Lärm,hat,"reichem,",einem,der,um,am,minimalem,roten,elektrischer,deren,immer,serviert.,frisches,roten,leider,eine,Wetter,die,liegen,ungefähr,,,,,,,,,,,,,,,,,,,,,,,3,0,3,0,0,5,5,5,,,,,,,space,1.42600989342,,,,,,2017_Jan_26_1148,59.8329819316,spr_backupper,001,Do12,
,aus,um,jeden.,als,den,Tupperware,Herrn,mehr,dass,sie,"vermiest,",Untergrund,er,wiedergewählt.,ml,als,jeden.,nan,nan,Grases,Kraftstoff,seiner,Energie.,jeden,wiedergewählt.,Schmuck,den,verschrottet.,artgerecht,mehr,Helmen,kaltem,Besucher.,jeden,dichten,Müll.,nan,Wurst,Taschengeld,die,schwarzem,Dezember,Schaumstoff,nan,nan,köstlichen,Müll.,nan,Einkommen,eine,grünen,dichten,Stimmung,Herrn,Soldaten,Esslöffel,Alkohol,defekt,Besucher.,aus,ml,nan,verschrottet.,nan,Helmen,eine,Kunsteis,Abduschen,große,um,köstlicher,Wurst,aus,nichts,die,defekt,seiner,um,den,goldenen,Esslöffel,Soldaten,die,Hauptbahnhof.,täglichen,Planet,Energie.,sie,ruhig,nan,Gras,Planeten,nichts,große,die,Flut,die,drei,,,,,,,,,,,,,,,,,,,,,,,3,0,3,0,0,6,6,6,,,,,,,space,0.989243030548,,,,,,2017_Jan_26_1148,59.8329819316,spr_backupper,001,Do12,
,Japan.,Nadelhölzer,nan,einmal,Problemen,ist.,Gantenbeins.,als,das,überführt,dass,liegen.,trug.,nan,warmer,einmal,nan,nan,nan,zwängen.,fahren.,Frau,nan,Fall,nan,umgearbeitet.,Boden,nan,gehalten.,als,zur,Saft,nan,Fall,Stoff,nan,nan,mit,selber,Wohnung.,Kaffee,stattfinden.,gefertigt.,nan,nan,Weins,nan,nan,haftbar.,Sammlung,Tee,Gewebe,ziemlich,Gantenbein.,des,warmem,verdünnt.,war.,nan,dem,warme,nan,nan,nan,zur,Sammlung,eingesprüht.,gehärtet.,Menge,jede,Wein,mit,dem,mitbringen.,Slums.,war.,Frau,jede,Boden,Besatz,warmen,des,Probleme,nan,Einsatz,ganz,nan,überführt,diskutiert.,nan,zwängen.,ganz,mitbringen.,Menge,Wohnung.,zurückgekehrt.,Slums.,Tage.,,,,,,,,,,,,,,,,,,,,,,,3,0,3,0,0,7,7,7,,,,,,,space,0.855895042419,,,,,,2017_Jan_26_1148,59.8329819316,spr_backupper,001,Do12,
,,,,,,,,,,,,,,,,,,,,,,,,,,,,,,,,,,,,,,,,,,,,,,,,,,,,,,,,,,,,,,,,,,,,,,,,,,,,,,,,,,,,,,,,,,,,,,,,,,,,,,,,,,,,,,,,,,,,,,,,,3,0,3,0,,,,,,,,,,,,,None,n,2.14676499367,,,2017_Jan_26_1148,59.8329819316,spr_backupper,001,Do12,
,Die,Jetzt,Außer,In,In,Die,Die,Wir,In,Es,Es,Jungtiere,Die,Er,In,In,Außer,Sie,Dort,Wir,Wir,Die,Die,100,Er,Die,Nicht,Die,In,Wir,Die,Sie,Wir,100,Er,Viele,Es,Ich,Jugendliche,Sie,Die,Unter,Alle,Dort,Beträchtliche,Bei,Viele,Walter,Manche,Sie,Ich,Danach,Dass,Die,Bei,Er,Die,Die,Wir,Wir,In,Es,Die,Sie,Die,Sie,Die,Die,Mit,Man,Bei,Ich,Wir,Außer,Am,Die,Die,Man,Nicht,Das,Er,Bei,In,Die,Ihr,Im,Die,Es,Fernab,Beträchtliche,Wir,Im,Außer,Mit,Sie,Als,Am,Der,,,,,,,,,,,,,,,,,,,,,,,4,0,4,0,0,0,0,0,,,,,,space,space,0.75036907196,,,,1.09126710892,,2017_Jan_26_1148,59.8329819316,spr_backupper,001,Do12,
,"Uhr,",ist,den,meinem,der,Teilnehmerinnen,Gäste,übergaben,einer,waren,hat,sollten,Uhr,wurde,den,meinem,dem,verbrauchen,türmen,mussten,konnten,Schuhe,Schule,g,wurde,Stücke,ein,Autos,diesem,übergaben,Kinder,haben,hatten,g,hat,Tonnen,wurden,nehme,können,verlassen,müden,keinen,Betten,türmen,Stücke,unserer,Tonnen,Scheel,Kreditnehmer,hatte,wurde,wurde,es,Gäste,der,stellt,Lösung,Uhr,hatten,haben,den,wurden,Autos,verbrauchen,Kinder,hatte,Eislaufbahnen,Formen,dieser,machte,unserer,nehme,haben,das,äußeren,Uhr,Schuhe,machte,ein,Tuch,stellt,der,der,Linie,Blutdruck,Fernrohr,Schule,waren,des,Stücke,mussten,Fernrohr,dem,dieser,verlassen,die,äußersten,Flug,,,,,,,,,,,,,,,,,,,,,,,4,0,4,0,0,1,1,1,,,,,,,space,1.55581712723,,,,,,2017_Jan_26_1148,59.8329819316,spr_backupper,001,Do12,
,die,genau,Bürgermeister,Studium,Tat,wussten,suchen,das,Studie,nur,uns,immer,war,trotz,Kakao,Studium,Bürgermeister,60,sich,uns,dann,in,verbraucht,brauner,trotz,wurden,Tropfen,beider,Zirkus,dem,fuhren,die,in,braunen,ein,gebrauchter,Eimer,eine,Kleidung,wegen,Teilnehmer,Umständen,wurden,sich,saftiges,Ankunft,gebrauchte,war,sind,keine,damals,die,"regnete,",suchen,Feier,die,wird,schlug,in,jede,Kakao,Eimer,beider,60,fuhren,keine,wurden,wurden,Methode,mal,Ankunft,eine,jede,Essen,Rand,schlug,in,mal,Tropfen,wurde,die,Feier,Tat,101,kann,sahen,verbraucht,nur,Rummels,saftigen,uns,sahen,Essen,Methode,wegen,Sonne,Rand,zum,,,,,,,,,,,,,,,,,,,,,,,4,0,4,0,0,2,2,2,,,,,,,space,0.972920179367,,,,,,2017_Jan_26_1148,59.8329819316,spr_backupper,001,Do12,
,er,die,beschuldigten,habe,wissen,überwiegend,die,Auto,wurde,kleinere,die,auf,aus,dem,gehören,las,beschuldigten,Liter,Berge,durch,mit,Größe,260.000,Zucker,des,aus,königliches,beteiligter,werden,Mann,mit,Erlebnisse,Dänemark,Zuckers,Hemd,Kleidung,rote,große,bei,des,wurden,können,mit,Berge,Fleisch,stand,Kleidung,der,mit,Lust,schnell,Leinwand,hat,die,gedachte,Masse,mit,"sporadisch,",Dänemark,Menge,gehören,roter,beteiligten,Liter,mit,Lust,mit,unter,kann,wieder,stand,große,Menge,kann,der,"sporadisch,",Größe,wieder,königlichen,dann,Masse,gedachte,wissen,hält,schon,wir,260.000,kleinere,wurde,Fleischs,durch,wir,kann,kann,dem,"unterging,",der,Mond,,,,,,,,,,,,,,,,,,,,,,,4,0,4,0,0,3,3,3,,,,,,,space,1.64435791969,,,,,,2017_Jan_26_1148,59.8329819316,spr_backupper,001,Do12,
,"trug,",richtige,die,ich,wir,"nicht,",Wohnung,dem,jetzt,"Delikte,",Stimmung,warmem,"Japan,",bekannten,immer,ich,die,sprudelndes,schmutzige,Büschel,"minimalem,",36,Kilowattstunden,sind,bekannten,"wertvollem,",Blut,Fahrer,die,das,solch,bei,gelegentlich,sind,aus,landen,Farbe,Packung,ausreichendem,schönen,mit,Neuwahlen,"üblichem,",schmutziger,wurden,ein,landen,vierte,"sämtlichem,",auf,dank,aus,uns,Wohnung,man,mit,"reichlichem,",obwohl,einen,alten,immer,Farbe,Fahrer,sprudelnden,solchen,auf,dauerhaftem,"regelmäßigem,",man,viel,ein,Packung,alten,ich,Stadt,obschon,36,viel,Bluts,mit,mit,man,wir,nicht,bei,den,Kilowattstunden,"Delikte,",schon,wurden,Büschel,den,ich,man,schönen,war,Stadt,dauerte,,,,,,,,,,,,,,,,,,,,,,,4,0,4,0,0,4,4,4,,,,,,,space,0.887281894684,,,,,,2017_Jan_26_1148,59.8329819316,spr_backupper,001,Do12,
,war,"Zeit,",Störenfriede,mehr,von,was,des,Mann,"nachgewiesen,",derer,ziemlich,weichem,die,Skandal,350,mehr,Störenfriede,Trinkwasser.,Wäsche.,frischen,sauberen,würden,elektrische,auf,Skandals,klassischen,hat,wurden,Tiere,Auto,unzureichenden,"frischem,",einen,auf,feinem,im,geschleudert.,salziger,monatlichem,Wetters,zusätzlichem,vor,harten,Wäsche.,serviert.,Glas,im,Bundespräsident.,künftigem,noch,täglichem,seltenem,die,des,den,einem,purem,sie,gelegentlichen,Kram,350,geschleudert.,wurden,Trinkwassers.,unzureichenden,noch,feinem,kaltem,eine,Lärm,Glas,salzige,Krams,leider,liegen,sie,hätten,Lärm,hat,"reichem,",einem,der,um,am,minimalem,roten,elektrischer,deren,immer,serviert.,frisches,roten,leider,eine,Wetter,die,liegen,ungefähr,,,,,,,,,,,,,,,,,,,,,,,4,0,4,0,0,5,5,5,,,,,,,space,0.970811843872,,,,,,2017_Jan_26_1148,59.8329819316,spr_backupper,001,Do12,
,aus,um,jeden.,als,den,Tupperware,Herrn,mehr,dass,sie,"vermiest,",Untergrund,er,wiedergewählt.,ml,als,jeden.,nan,nan,Grases,Kraftstoff,seiner,Energie.,jeden,wiedergewählt.,Schmuck,den,verschrottet.,artgerecht,mehr,Helmen,kaltem,Besucher.,jeden,dichten,Müll.,nan,Wurst,Taschengeld,die,schwarzem,Dezember,Schaumstoff,nan,nan,köstlichen,Müll.,nan,Einkommen,eine,grünen,dichten,Stimmung,Herrn,Soldaten,Esslöffel,Alkohol,defekt,Besucher.,aus,ml,nan,verschrottet.,nan,Helmen,eine,Kunsteis,Abduschen,große,um,köstlicher,Wurst,aus,nichts,die,defekt,seiner,um,den,goldenen,Esslöffel,Soldaten,die,Hauptbahnhof.,täglichen,Planet,Energie.,sie,ruhig,nan,Gras,Planeten,nichts,große,die,Flut,die,drei,,,,,,,,,,,,,,,,,,,,,,,4,0,4,0,0,6,6,6,,,,,,,space,1.06137299538,,,,,,2017_Jan_26_1148,59.8329819316,spr_backupper,001,Do12,
,Japan.,Nadelhölzer,nan,einmal,Problemen,ist.,Gantenbeins.,als,das,überführt,dass,liegen.,trug.,nan,warmer,einmal,nan,nan,nan,zwängen.,fahren.,Frau,nan,Fall,nan,umgearbeitet.,Boden,nan,gehalten.,als,zur,Saft,nan,Fall,Stoff,nan,nan,mit,selber,Wohnung.,Kaffee,stattfinden.,gefertigt.,nan,nan,Weins,nan,nan,haftbar.,Sammlung,Tee,Gewebe,ziemlich,Gantenbein.,des,warmem,verdünnt.,war.,nan,dem,warme,nan,nan,nan,zur,Sammlung,eingesprüht.,gehärtet.,Menge,jede,Wein,mit,dem,mitbringen.,Slums.,war.,Frau,jede,Boden,Besatz,warmen,des,Probleme,nan,Einsatz,ganz,nan,überführt,diskutiert.,nan,zwängen.,ganz,mitbringen.,Menge,Wohnung.,zurückgekehrt.,Slums.,Tage.,,,,,,,,,,,,,,,,,,,,,,,4,0,4,0,0,7,7,7,,,,,,,space,0.74520778656,,,,,,2017_Jan_26_1148,59.8329819316,spr_backupper,001,Do12,
,nan,umzusetzen.,nan,Rilke,im,nan,nan,gerne.,Medikament,wurden.,es,nan,nan,nan,Milch.,Rilke.,nan,nan,nan,nan,nan,gepasst,nan,genug.,nan,nan,berührt.,nan,nan,gerne.,Schule.,besprochen.,nan,genug.,gefertigt.,nan,nan,an,kaufen.,nan,wiederbelebt.,nan,nan,nan,nan,schon,nan,nan,nan,dummer,wieder,wiederhergestellt.,vermiest.,nan,zweiten,Honig,nan,nan,nan,Haus,Milch.,nan,nan,nan,Schule.,dumme,nan,nan,dunkler,Menge,schon,an,Haus,nan,nan,nan,gepasst.,Menge,berührt.,rekonstruiert.,Honigs,zweiten,im,nan,sinken.,deutlich.,nan,wurden.,nan,nan,nan,deutlich.,nan,dunkle,nan,nan,nan,nan,,,,,,,,,,,,,,,,,,,,,,,4,0,4,0,0,8,8,8,,,,,,,space,0.832131147385,,,,,,2017_Jan_26_1148,59.8329819316,spr_backupper,001,Do12,
,nan,nan,nan,gelesen.,Landkreis.,nan,nan,nan,nicht,nan,regnete.,nan,nan,nan,nan,nan,nan,nan,nan,nan,nan,haben.,nan,nan,nan,nan,nan,nan,nan,nan,nan,nan,nan,nan,nan,nan,nan,den,nan,nan,nan,nan,nan,nan,nan,auf,nan,nan,nan,Sprüche.,fit.,nan,nan,nan,Weltkriegs.,her.,nan,nan,nan,geschafft.,nan,nan,nan,nan,nan,Sprüche.,nan,nan,Materie,heiße,auf,den,geschafft.,nan,nan,nan,nan,heißer,nan,nan,her.,Weltkriegs.,Landkreis.,nan,nan,nan,nan,nan,nan,nan,nan,nan,nan,Materie,nan,nan,nan,nan,,,,,,,,,,,,,,,,,,,,,,,4,0,4,0,0,9,9,9,,,,,,,space,0.954287052155,,,,,,2017_Jan_26_1148,59.8329819316,spr_backupper,001,Do12,
,,,,,,,,,,,,,,,,,,,,,,,,,,,,,,,,,,,,,,,,,,,,,,,,,,,,,,,,,,,,,,,,,,,,,,,,,,,,,,,,,,,,,,,,,,,,,,,,,,,,,,,,,,,,,,,,,,,,,,,,,4,0,4,0,,,,,,,,,,,,,None,j,1.90653800964,,,2017_Jan_26_1148,59.8329819316,spr_backupper,001,Do12,
,Die,Jetzt,Außer,In,In,Die,Die,Wir,In,Es,Es,Jungtiere,Die,Er,In,In,Außer,Sie,Dort,Wir,Wir,Die,Die,100,Er,Die,Nicht,Die,In,Wir,Die,Sie,Wir,100,Er,Viele,Es,Ich,Jugendliche,Sie,Die,Unter,Alle,Dort,Beträchtliche,Bei,Viele,Walter,Manche,Sie,Ich,Danach,Dass,Die,Bei,Er,Die,Die,Wir,Wir,In,Es,Die,Sie,Die,Sie,Die,Die,Mit,Man,Bei,Ich,Wir,Außer,Am,Die,Die,Man,Nicht,Das,Er,Bei,In,Die,Ihr,Im,Die,Es,Fernab,Beträchtliche,Wir,Im,Außer,Mit,Sie,Als,Am,Der,,,,,,,,,,,,,,,,,,,,,,,5,0,5,0,0,0,0,0,,,,,,space,space,0.635569095612,,,,0.822210073471,,2017_Jan_26_1148,59.8329819316,spr_backupper,001,Do12,
,"Uhr,",ist,den,meinem,der,Teilnehmerinnen,Gäste,übergaben,einer,waren,hat,sollten,Uhr,wurde,den,meinem,dem,verbrauchen,türmen,mussten,konnten,Schuhe,Schule,g,wurde,Stücke,ein,Autos,diesem,übergaben,Kinder,haben,hatten,g,hat,Tonnen,wurden,nehme,können,verlassen,müden,keinen,Betten,türmen,Stücke,unserer,Tonnen,Scheel,Kreditnehmer,hatte,wurde,wurde,es,Gäste,der,stellt,Lösung,Uhr,hatten,haben,den,wurden,Autos,verbrauchen,Kinder,hatte,Eislaufbahnen,Formen,dieser,machte,unserer,nehme,haben,das,äußeren,Uhr,Schuhe,machte,ein,Tuch,stellt,der,der,Linie,Blutdruck,Fernrohr,Schule,waren,des,Stücke,mussten,Fernrohr,dem,dieser,verlassen,die,äußersten,Flug,,,,,,,,,,,,,,,,,,,,,,,5,0,5,0,0,1,1,1,,,,,,,space,1.54410004616,,,,,,2017_Jan_26_1148,59.8329819316,spr_backupper,001,Do12,
,die,genau,Bürgermeister,Studium,Tat,wussten,suchen,das,Studie,nur,uns,immer,war,trotz,Kakao,Studium,Bürgermeister,60,sich,uns,dann,in,verbraucht,brauner,trotz,wurden,Tropfen,beider,Zirkus,dem,fuhren,die,in,braunen,ein,gebrauchter,Eimer,eine,Kleidung,wegen,Teilnehmer,Umständen,wurden,sich,saftiges,Ankunft,gebrauchte,war,sind,keine,damals,die,"regnete,",suchen,Feier,die,wird,schlug,in,jede,Kakao,Eimer,beider,60,fuhren,keine,wurden,wurden,Methode,mal,Ankunft,eine,jede,Essen,Rand,schlug,in,mal,Tropfen,wurde,die,Feier,Tat,101,kann,sahen,verbraucht,nur,Rummels,saftigen,uns,sahen,Essen,Methode,wegen,Sonne,Rand,zum,,,,,,,,,,,,,,,,,,,,,,,5,0,5,0,0,2,2,2,,,,,,,space,0.695185899734,,,,,,2017_Jan_26_1148,59.8329819316,spr_backupper,001,Do12,
,er,die,beschuldigten,habe,wissen,überwiegend,die,Auto,wurde,kleinere,die,auf,aus,dem,gehören,las,beschuldigten,Liter,Berge,durch,mit,Größe,260.000,Zucker,des,aus,königliches,beteiligter,werden,Mann,mit,Erlebnisse,Dänemark,Zuckers,Hemd,Kleidung,rote,große,bei,des,wurden,können,mit,Berge,Fleisch,stand,Kleidung,der,mit,Lust,schnell,Leinwand,hat,die,gedachte,Masse,mit,"sporadisch,",Dänemark,Menge,gehören,roter,beteiligten,Liter,mit,Lust,mit,unter,kann,wieder,stand,große,Menge,kann,der,"sporadisch,",Größe,wieder,königlichen,dann,Masse,gedachte,wissen,hält,schon,wir,260.000,kleinere,wurde,Fleischs,durch,wir,kann,kann,dem,"unterging,",der,Mond,,,,,,,,,,,,,,,,,,,,,,,5,0,5,0,0,3,3,3,,,,,,,space,0.918786048889,,,,,,2017_Jan_26_1148,59.8329819316,spr_backupper,001,Do12,
,"trug,",richtige,die,ich,wir,"nicht,",Wohnung,dem,jetzt,"Delikte,",Stimmung,warmem,"Japan,",bekannten,immer,ich,die,sprudelndes,schmutzige,Büschel,"minimalem,",36,Kilowattstunden,sind,bekannten,"wertvollem,",Blut,Fahrer,die,das,solch,bei,gelegentlich,sind,aus,landen,Farbe,Packung,ausreichendem,schönen,mit,Neuwahlen,"üblichem,",schmutziger,wurden,ein,landen,vierte,"sämtlichem,",auf,dank,aus,uns,Wohnung,man,mit,"reichlichem,",obwohl,einen,alten,immer,Farbe,Fahrer,sprudelnden,solchen,auf,dauerhaftem,"regelmäßigem,",man,viel,ein,Packung,alten,ich,Stadt,obschon,36,viel,Bluts,mit,mit,man,wir,nicht,bei,den,Kilowattstunden,"Delikte,",schon,wurden,Büschel,den,ich,man,schönen,war,Stadt,dauerte,,,,,,,,,,,,,,,,,,,,,,,5,0,5,0,0,4,4,4,,,,,,,space,1.0906329155,,,,,,2017_Jan_26_1148,59.8329819316,spr_backupper,001,Do12,
,war,"Zeit,",Störenfriede,mehr,von,was,des,Mann,"nachgewiesen,",derer,ziemlich,weichem,die,Skandal,350,mehr,Störenfriede,Trinkwasser.,Wäsche.,frischen,sauberen,würden,elektrische,auf,Skandals,klassischen,hat,wurden,Tiere,Auto,unzureichenden,"frischem,",einen,auf,feinem,im,geschleudert.,salziger,monatlichem,Wetters,zusätzlichem,vor,harten,Wäsche.,serviert.,Glas,im,Bundespräsident.,künftigem,noch,täglichem,seltenem,die,des,den,einem,purem,sie,gelegentlichen,Kram,350,geschleudert.,wurden,Trinkwassers.,unzureichenden,noch,feinem,kaltem,eine,Lärm,Glas,salzige,Krams,leider,liegen,sie,hätten,Lärm,hat,"reichem,",einem,der,um,am,minimalem,roten,elektrischer,deren,immer,serviert.,frisches,roten,leider,eine,Wetter,die,liegen,ungefähr,,,,,,,,,,,,,,,,,,,,,,,5,0,5,0,0,5,5,5,,,,,,,space,1.0167889595,,,,,,2017_Jan_26_1148,59.8329819316,spr_backupper,001,Do12,
,aus,um,jeden.,als,den,Tupperware,Herrn,mehr,dass,sie,"vermiest,",Untergrund,er,wiedergewählt.,ml,als,jeden.,nan,nan,Grases,Kraftstoff,seiner,Energie.,jeden,wiedergewählt.,Schmuck,den,verschrottet.,artgerecht,mehr,Helmen,kaltem,Besucher.,jeden,dichten,Müll.,nan,Wurst,Taschengeld,die,schwarzem,Dezember,Schaumstoff,nan,nan,köstlichen,Müll.,nan,Einkommen,eine,grünen,dichten,Stimmung,Herrn,Soldaten,Esslöffel,Alkohol,defekt,Besucher.,aus,ml,nan,verschrottet.,nan,Helmen,eine,Kunsteis,Abduschen,große,um,köstlicher,Wurst,aus,nichts,die,defekt,seiner,um,den,goldenen,Esslöffel,Soldaten,die,Hauptbahnhof.,täglichen,Planet,Energie.,sie,ruhig,nan,Gras,Planeten,nichts,große,die,Flut,die,drei,,,,,,,,,,,,,,,,,,,,,,,5,0,5,0,0,6,6,6,,,,,,,space,0.770703077316,,,,,,2017_Jan_26_1148,59.8329819316,spr_backupper,001,Do12,
,Japan.,Nadelhölzer,nan,einmal,Problemen,ist.,Gantenbeins.,als,das,überführt,dass,liegen.,trug.,nan,warmer,einmal,nan,nan,nan,zwängen.,fahren.,Frau,nan,Fall,nan,umgearbeitet.,Boden,nan,gehalten.,als,zur,Saft,nan,Fall,Stoff,nan,nan,mit,selber,Wohnung.,Kaffee,stattfinden.,gefertigt.,nan,nan,Weins,nan,nan,haftbar.,Sammlung,Tee,Gewebe,ziemlich,Gantenbein.,des,warmem,verdünnt.,war.,nan,dem,warme,nan,nan,nan,zur,Sammlung,eingesprüht.,gehärtet.,Menge,jede,Wein,mit,dem,mitbringen.,Slums.,war.,Frau,jede,Boden,Besatz,warmen,des,Probleme,nan,Einsatz,ganz,nan,überführt,diskutiert.,nan,zwängen.,ganz,mitbringen.,Menge,Wohnung.,zurückgekehrt.,Slums.,Tage.,,,,,,,,,,,,,,,,,,,,,,,5,0,5,0,0,7,7,7,,,,,,,space,1.10786700249,,,,,,2017_Jan_26_1148,59.8329819316,spr_backupper,001,Do12,
,nan,umzusetzen.,nan,Rilke,im,nan,nan,gerne.,Medikament,wurden.,es,nan,nan,nan,Milch.,Rilke.,nan,nan,nan,nan,nan,gepasst,nan,genug.,nan,nan,berührt.,nan,nan,gerne.,Schule.,besprochen.,nan,genug.,gefertigt.,nan,nan,an,kaufen.,nan,wiederbelebt.,nan,nan,nan,nan,schon,nan,nan,nan,dummer,wieder,wiederhergestellt.,vermiest.,nan,zweiten,Honig,nan,nan,nan,Haus,Milch.,nan,nan,nan,Schule.,dumme,nan,nan,dunkler,Menge,schon,an,Haus,nan,nan,nan,gepasst.,Menge,berührt.,rekonstruiert.,Honigs,zweiten,im,nan,sinken.,deutlich.,nan,wurden.,nan,nan,nan,deutlich.,nan,dunkle,nan,nan,nan,nan,,,,,,,,,,,,,,,,,,,,,,,5,0,5,0,0,8,8,8,,,,,,,space,1.25046992302,,,,,,2017_Jan_26_1148,59.8329819316,spr_backupper,001,Do12,
,,,,,,,,,,,,,,,,,,,,,,,,,,,,,,,,,,,,,,,,,,,,,,,,,,,,,,,,,,,,,,,,,,,,,,,,,,,,,,,,,,,,,,,,,,,,,,,,,,,,,,,,,,,,,,,,,,,,,,,,,5,0,5,0,,,,,,,,,,,,,None,j,2.82149100304,,,2017_Jan_26_1148,59.8329819316,spr_backupper,001,Do12,
,Die,Jetzt,Außer,In,In,Die,Die,Wir,In,Es,Es,Jungtiere,Die,Er,In,In,Außer,Sie,Dort,Wir,Wir,Die,Die,100,Er,Die,Nicht,Die,In,Wir,Die,Sie,Wir,100,Er,Viele,Es,Ich,Jugendliche,Sie,Die,Unter,Alle,Dort,Beträchtliche,Bei,Viele,Walter,Manche,Sie,Ich,Danach,Dass,Die,Bei,Er,Die,Die,Wir,Wir,In,Es,Die,Sie,Die,Sie,Die,Die,Mit,Man,Bei,Ich,Wir,Außer,Am,Die,Die,Man,Nicht,Das,Er,Bei,In,Die,Ihr,Im,Die,Es,Fernab,Beträchtliche,Wir,Im,Außer,Mit,Sie,Als,Am,Der,,,,,,,,,,,,,,,,,,,,,,,6,0,6,0,0,0,0,0,,,,,,space,space,0.932646989822,,,,0.821901798248,,2017_Jan_26_1148,59.8329819316,spr_backupper,001,Do12,
,"Uhr,",ist,den,meinem,der,Teilnehmerinnen,Gäste,übergaben,einer,waren,hat,sollten,Uhr,wurde,den,meinem,dem,verbrauchen,türmen,mussten,konnten,Schuhe,Schule,g,wurde,Stücke,ein,Autos,diesem,übergaben,Kinder,haben,hatten,g,hat,Tonnen,wurden,nehme,können,verlassen,müden,keinen,Betten,türmen,Stücke,unserer,Tonnen,Scheel,Kreditnehmer,hatte,wurde,wurde,es,Gäste,der,stellt,Lösung,Uhr,hatten,haben,den,wurden,Autos,verbrauchen,Kinder,hatte,Eislaufbahnen,Formen,dieser,machte,unserer,nehme,haben,das,äußeren,Uhr,Schuhe,machte,ein,Tuch,stellt,der,der,Linie,Blutdruck,Fernrohr,Schule,waren,des,Stücke,mussten,Fernrohr,dem,dieser,verlassen,die,äußersten,Flug,,,,,,,,,,,,,,,,,,,,,,,6,0,6,0,0,1,1,1,,,,,,,space,1.39139008522,,,,,,2017_Jan_26_1148,59.8329819316,spr_backupper,001,Do12,
,die,genau,Bürgermeister,Studium,Tat,wussten,suchen,das,Studie,nur,uns,immer,war,trotz,Kakao,Studium,Bürgermeister,60,sich,uns,dann,in,verbraucht,brauner,trotz,wurden,Tropfen,beider,Zirkus,dem,fuhren,die,in,braunen,ein,gebrauchter,Eimer,eine,Kleidung,wegen,Teilnehmer,Umständen,wurden,sich,saftiges,Ankunft,gebrauchte,war,sind,keine,damals,die,"regnete,",suchen,Feier,die,wird,schlug,in,jede,Kakao,Eimer,beider,60,fuhren,keine,wurden,wurden,Methode,mal,Ankunft,eine,jede,Essen,Rand,schlug,in,mal,Tropfen,wurde,die,Feier,Tat,101,kann,sahen,verbraucht,nur,Rummels,saftigen,uns,sahen,Essen,Methode,wegen,Sonne,Rand,zum,,,,,,,,,,,,,,,,,,,,,,,6,0,6,0,0,2,2,2,,,,,,,space,0.80571103096,,,,,,2017_Jan_26_1148,59.8329819316,spr_backupper,001,Do12,
,er,die,beschuldigten,habe,wissen,überwiegend,die,Auto,wurde,kleinere,die,auf,aus,dem,gehören,las,beschuldigten,Liter,Berge,durch,mit,Größe,260.000,Zucker,des,aus,königliches,beteiligter,werden,Mann,mit,Erlebnisse,Dänemark,Zuckers,Hemd,Kleidung,rote,große,bei,des,wurden,können,mit,Berge,Fleisch,stand,Kleidung,der,mit,Lust,schnell,Leinwand,hat,die,gedachte,Masse,mit,"sporadisch,",Dänemark,Menge,gehören,roter,beteiligten,Liter,mit,Lust,mit,unter,kann,wieder,stand,große,Menge,kann,der,"sporadisch,",Größe,wieder,königlichen,dann,Masse,gedachte,wissen,hält,schon,wir,260.000,kleinere,wurde,Fleischs,durch,wir,kann,kann,dem,"unterging,",der,Mond,,,,,,,,,,,,,,,,,,,,,,,6,0,6,0,0,3,3,3,,,,,,,space,0.568574905396,,,,,,2017_Jan_26_1148,59.8329819316,spr_backupper,001,Do12,
,"trug,",richtige,die,ich,wir,"nicht,",Wohnung,dem,jetzt,"Delikte,",Stimmung,warmem,"Japan,",bekannten,immer,ich,die,sprudelndes,schmutzige,Büschel,"minimalem,",36,Kilowattstunden,sind,bekannten,"wertvollem,",Blut,Fahrer,die,das,solch,bei,gelegentlich,sind,aus,landen,Farbe,Packung,ausreichendem,schönen,mit,Neuwahlen,"üblichem,",schmutziger,wurden,ein,landen,vierte,"sämtlichem,",auf,dank,aus,uns,Wohnung,man,mit,"reichlichem,",obwohl,einen,alten,immer,Farbe,Fahrer,sprudelnden,solchen,auf,dauerhaftem,"regelmäßigem,",man,viel,ein,Packung,alten,ich,Stadt,obschon,36,viel,Bluts,mit,mit,man,wir,nicht,bei,den,Kilowattstunden,"Delikte,",schon,wurden,Büschel,den,ich,man,schönen,war,Stadt,dauerte,,,,,,,,,,,,,,,,,,,,,,,6,0,6,0,0,4,4,4,,,,,,,space,0.510291814804,,,,,,2017_Jan_26_1148,59.8329819316,spr_backupper,001,Do12,
,war,"Zeit,",Störenfriede,mehr,von,was,des,Mann,"nachgewiesen,",derer,ziemlich,weichem,die,Skandal,350,mehr,Störenfriede,Trinkwasser.,Wäsche.,frischen,sauberen,würden,elektrische,auf,Skandals,klassischen,hat,wurden,Tiere,Auto,unzureichenden,"frischem,",einen,auf,feinem,im,geschleudert.,salziger,monatlichem,Wetters,zusätzlichem,vor,harten,Wäsche.,serviert.,Glas,im,Bundespräsident.,künftigem,noch,täglichem,seltenem,die,des,den,einem,purem,sie,gelegentlichen,Kram,350,geschleudert.,wurden,Trinkwassers.,unzureichenden,noch,feinem,kaltem,eine,Lärm,Glas,salzige,Krams,leider,liegen,sie,hätten,Lärm,hat,"reichem,",einem,der,um,am,minimalem,roten,elektrischer,deren,immer,serviert.,frisches,roten,leider,eine,Wetter,die,liegen,ungefähr,,,,,,,,,,,,,,,,,,,,,,,6,0,6,0,0,5,5,5,,,,,,,space,1.39577794075,,,,,,2017_Jan_26_1148,59.8329819316,spr_backupper,001,Do12,
,aus,um,jeden.,als,den,Tupperware,Herrn,mehr,dass,sie,"vermiest,",Untergrund,er,wiedergewählt.,ml,als,jeden.,nan,nan,Grases,Kraftstoff,seiner,Energie.,jeden,wiedergewählt.,Schmuck,den,verschrottet.,artgerecht,mehr,Helmen,kaltem,Besucher.,jeden,dichten,Müll.,nan,Wurst,Taschengeld,die,schwarzem,Dezember,Schaumstoff,nan,nan,köstlichen,Müll.,nan,Einkommen,eine,grünen,dichten,Stimmung,Herrn,Soldaten,Esslöffel,Alkohol,defekt,Besucher.,aus,ml,nan,verschrottet.,nan,Helmen,eine,Kunsteis,Abduschen,große,um,köstlicher,Wurst,aus,nichts,die,defekt,seiner,um,den,goldenen,Esslöffel,Soldaten,die,Hauptbahnhof.,täglichen,Planet,Energie.,sie,ruhig,nan,Gras,Planeten,nichts,große,die,Flut,die,drei,,,,,,,,,,,,,,,,,,,,,,,6,0,6,0,0,6,6,6,,,,,,,space,0.668015956879,,,,,,2017_Jan_26_1148,59.8329819316,spr_backupper,001,Do12,
,Japan.,Nadelhölzer,nan,einmal,Problemen,ist.,Gantenbeins.,als,das,überführt,dass,liegen.,trug.,nan,warmer,einmal,nan,nan,nan,zwängen.,fahren.,Frau,nan,Fall,nan,umgearbeitet.,Boden,nan,gehalten.,als,zur,Saft,nan,Fall,Stoff,nan,nan,mit,selber,Wohnung.,Kaffee,stattfinden.,gefertigt.,nan,nan,Weins,nan,nan,haftbar.,Sammlung,Tee,Gewebe,ziemlich,Gantenbein.,des,warmem,verdünnt.,war.,nan,dem,warme,nan,nan,nan,zur,Sammlung,eingesprüht.,gehärtet.,Menge,jede,Wein,mit,dem,mitbringen.,Slums.,war.,Frau,jede,Boden,Besatz,warmen,des,Probleme,nan,Einsatz,ganz,nan,überführt,diskutiert.,nan,zwängen.,ganz,mitbringen.,Menge,Wohnung.,zurückgekehrt.,Slums.,Tage.,,,,,,,,,,,,,,,,,,,,,,,6,0,6,0,0,7,7,7,,,,,,,space,0.734884023666,,,,,,2017_Jan_26_1148,59.8329819316,spr_backupper,001,Do12,
,nan,umzusetzen.,nan,Rilke,im,nan,nan,gerne.,Medikament,wurden.,es,nan,nan,nan,Milch.,Rilke.,nan,nan,nan,nan,nan,gepasst,nan,genug.,nan,nan,berührt.,nan,nan,gerne.,Schule.,besprochen.,nan,genug.,gefertigt.,nan,nan,an,kaufen.,nan,wiederbelebt.,nan,nan,nan,nan,schon,nan,nan,nan,dummer,wieder,wiederhergestellt.,vermiest.,nan,zweiten,Honig,nan,nan,nan,Haus,Milch.,nan,nan,nan,Schule.,dumme,nan,nan,dunkler,Menge,schon,an,Haus,nan,nan,nan,gepasst.,Menge,berührt.,rekonstruiert.,Honigs,zweiten,im,nan,sinken.,deutlich.,nan,wurden.,nan,nan,nan,deutlich.,nan,dunkle,nan,nan,nan,nan,,,,,,,,,,,,,,,,,,,,,,,6,0,6,0,0,8,8,8,,,,,,,space,1.10647296906,,,,,,2017_Jan_26_1148,59.8329819316,spr_backupper,001,Do12,
,nan,nan,nan,gelesen.,Landkreis.,nan,nan,nan,nicht,nan,regnete.,nan,nan,nan,nan,nan,nan,nan,nan,nan,nan,haben.,nan,nan,nan,nan,nan,nan,nan,nan,nan,nan,nan,nan,nan,nan,nan,den,nan,nan,nan,nan,nan,nan,nan,auf,nan,nan,nan,Sprüche.,fit.,nan,nan,nan,Weltkriegs.,her.,nan,nan,nan,geschafft.,nan,nan,nan,nan,nan,Sprüche.,nan,nan,Materie,heiße,auf,den,geschafft.,nan,nan,nan,nan,heißer,nan,nan,her.,Weltkriegs.,Landkreis.,nan,nan,nan,nan,nan,nan,nan,nan,nan,nan,Materie,nan,nan,nan,nan,,,,,,,,,,,,,,,,,,,,,,,6,0,6,0,0,9,9,9,,,,,,,space,0.621479034424,,,,,,2017_Jan_26_1148,59.8329819316,spr_backupper,001,Do12,
,nan,nan,nan,nan,nan,nan,nan,nan,wirkt.,nan,nan,nan,nan,nan,nan,nan,nan,nan,nan,nan,nan,nan,nan,nan,nan,nan,nan,nan,nan,nan,nan,nan,nan,nan,nan,nan,nan,See.,nan,nan,nan,nan,nan,nan,nan,dem,nan,nan,nan,nan,nan,nan,nan,nan,nan,nan,nan,nan,nan,nan,nan,nan,nan,nan,nan,nan,nan,nan,erzeugen.,Luft.,dem,See.,nan,nan,nan,nan,nan,Luft.,nan,nan,nan,nan,nan,nan,nan,nan,nan,nan,nan,nan,nan,nan,nan,erzeugen.,nan,nan,nan,nan,,,,,,,,,,,,,,,,,,,,,,,6,0,6,0,0,10,10,10,,,,,,,space,0.745104074478,,,,,,2017_Jan_26_1148,59.8329819316,spr_backupper,001,Do12,
,,,,,,,,,,,,,,,,,,,,,,,,,,,,,,,,,,,,,,,,,,,,,,,,,,,,,,,,,,,,,,,,,,,,,,,,,,,,,,,,,,,,,,,,,,,,,,,,,,,,,,,,,,,,,,,,,,,,,,,,,6,0,6,0,,,,,,,,,,,,,None,n,1.83413481712,,,2017_Jan_26_1148,59.8329819316,spr_backupper,001,Do12,
,Die,Jetzt,Außer,In,In,Die,Die,Wir,In,Es,Es,Jungtiere,Die,Er,In,In,Außer,Sie,Dort,Wir,Wir,Die,Die,100,Er,Die,Nicht,Die,In,Wir,Die,Sie,Wir,100,Er,Viele,Es,Ich,Jugendliche,Sie,Die,Unter,Alle,Dort,Beträchtliche,Bei,Viele,Walter,Manche,Sie,Ich,Danach,Dass,Die,Bei,Er,Die,Die,Wir,Wir,In,Es,Die,Sie,Die,Sie,Die,Die,Mit,Man,Bei,Ich,Wir,Außer,Am,Die,Die,Man,Nicht,Das,Er,Bei,In,Die,Ihr,Im,Die,Es,Fernab,Beträchtliche,Wir,Im,Außer,Mit,Sie,Als,Am,Der,,,,,,,,,,,,,,,,,,,,,,,7,0,7,0,0,0,0,0,,,,,,space,space,0.624766111374,,,,0.940877914429,,2017_Jan_26_1148,59.8329819316,spr_backupper,001,Do12,
,"Uhr,",ist,den,meinem,der,Teilnehmerinnen,Gäste,übergaben,einer,waren,hat,sollten,Uhr,wurde,den,meinem,dem,verbrauchen,türmen,mussten,konnten,Schuhe,Schule,g,wurde,Stücke,ein,Autos,diesem,übergaben,Kinder,haben,hatten,g,hat,Tonnen,wurden,nehme,können,verlassen,müden,keinen,Betten,türmen,Stücke,unserer,Tonnen,Scheel,Kreditnehmer,hatte,wurde,wurde,es,Gäste,der,stellt,Lösung,Uhr,hatten,haben,den,wurden,Autos,verbrauchen,Kinder,hatte,Eislaufbahnen,Formen,dieser,machte,unserer,nehme,haben,das,äußeren,Uhr,Schuhe,machte,ein,Tuch,stellt,der,der,Linie,Blutdruck,Fernrohr,Schule,waren,des,Stücke,mussten,Fernrohr,dem,dieser,verlassen,die,äußersten,Flug,,,,,,,,,,,,,,,,,,,,,,,7,0,7,0,0,1,1,1,,,,,,,space,0.854954957962,,,,,,2017_Jan_26_1148,59.8329819316,spr_backupper,001,Do12,
,die,genau,Bürgermeister,Studium,Tat,wussten,suchen,das,Studie,nur,uns,immer,war,trotz,Kakao,Studium,Bürgermeister,60,sich,uns,dann,in,verbraucht,brauner,trotz,wurden,Tropfen,beider,Zirkus,dem,fuhren,die,in,braunen,ein,gebrauchter,Eimer,eine,Kleidung,wegen,Teilnehmer,Umständen,wurden,sich,saftiges,Ankunft,gebrauchte,war,sind,keine,damals,die,"regnete,",suchen,Feier,die,wird,schlug,in,jede,Kakao,Eimer,beider,60,fuhren,keine,wurden,wurden,Methode,mal,Ankunft,eine,jede,Essen,Rand,schlug,in,mal,Tropfen,wurde,die,Feier,Tat,101,kann,sahen,verbraucht,nur,Rummels,saftigen,uns,sahen,Essen,Methode,wegen,Sonne,Rand,zum,,,,,,,,,,,,,,,,,,,,,,,7,0,7,0,0,2,2,2,,,,,,,space,1.04316210747,,,,,,2017_Jan_26_1148,59.8329819316,spr_backupper,001,Do12,
,er,die,beschuldigten,habe,wissen,überwiegend,die,Auto,wurde,kleinere,die,auf,aus,dem,gehören,las,beschuldigten,Liter,Berge,durch,mit,Größe,260.000,Zucker,des,aus,königliches,beteiligter,werden,Mann,mit,Erlebnisse,Dänemark,Zuckers,Hemd,Kleidung,rote,große,bei,des,wurden,können,mit,Berge,Fleisch,stand,Kleidung,der,mit,Lust,schnell,Leinwand,hat,die,gedachte,Masse,mit,"sporadisch,",Dänemark,Menge,gehören,roter,beteiligten,Liter,mit,Lust,mit,unter,kann,wieder,stand,große,Menge,kann,der,"sporadisch,",Größe,wieder,königlichen,dann,Masse,gedachte,wissen,hält,schon,wir,260.000,kleinere,wurde,Fleischs,durch,wir,kann,kann,dem,"unterging,",der,Mond,,,,,,,,,,,,,,,,,,,,,,,7,0,7,0,0,3,3,3,,,,,,,space,1.27333688736,,,,,,2017_Jan_26_1148,59.8329819316,spr_backupper,001,Do12,
,"trug,",richtige,die,ich,wir,"nicht,",Wohnung,dem,jetzt,"Delikte,",Stimmung,warmem,"Japan,",bekannten,immer,ich,die,sprudelndes,schmutzige,Büschel,"minimalem,",36,Kilowattstunden,sind,bekannten,"wertvollem,",Blut,Fahrer,die,das,solch,bei,gelegentlich,sind,aus,landen,Farbe,Packung,ausreichendem,schönen,mit,Neuwahlen,"üblichem,",schmutziger,wurden,ein,landen,vierte,"sämtlichem,",auf,dank,aus,uns,Wohnung,man,mit,"reichlichem,",obwohl,einen,alten,immer,Farbe,Fahrer,sprudelnden,solchen,auf,dauerhaftem,"regelmäßigem,",man,viel,ein,Packung,alten,ich,Stadt,obschon,36,viel,Bluts,mit,mit,man,wir,nicht,bei,den,Kilowattstunden,"Delikte,",schon,wurden,Büschel,den,ich,man,schönen,war,Stadt,dauerte,,,,,,,,,,,,,,,,,,,,,,,7,0,7,0,0,4,4,4,,,,,,,space,1.09920191765,,,,,,2017_Jan_26_1148,59.8329819316,spr_backupper,001,Do12,
,war,"Zeit,",Störenfriede,mehr,von,was,des,Mann,"nachgewiesen,",derer,ziemlich,weichem,die,Skandal,350,mehr,Störenfriede,Trinkwasser.,Wäsche.,frischen,sauberen,würden,elektrische,auf,Skandals,klassischen,hat,wurden,Tiere,Auto,unzureichenden,"frischem,",einen,auf,feinem,im,geschleudert.,salziger,monatlichem,Wetters,zusätzlichem,vor,harten,Wäsche.,serviert.,Glas,im,Bundespräsident.,künftigem,noch,täglichem,seltenem,die,des,den,einem,purem,sie,gelegentlichen,Kram,350,geschleudert.,wurden,Trinkwassers.,unzureichenden,noch,feinem,kaltem,eine,Lärm,Glas,salzige,Krams,leider,liegen,sie,hätten,Lärm,hat,"reichem,",einem,der,um,am,minimalem,roten,elektrischer,deren,immer,serviert.,frisches,roten,leider,eine,Wetter,die,liegen,ungefähr,,,,,,,,,,,,,,,,,,,,,,,7,0,7,0,0,5,5,5,,,,,,,space,1.43576383591,,,,,,2017_Jan_26_1148,59.8329819316,spr_backupper,001,Do12,
,aus,um,jeden.,als,den,Tupperware,Herrn,mehr,dass,sie,"vermiest,",Untergrund,er,wiedergewählt.,ml,als,jeden.,nan,nan,Grases,Kraftstoff,seiner,Energie.,jeden,wiedergewählt.,Schmuck,den,verschrottet.,artgerecht,mehr,Helmen,kaltem,Besucher.,jeden,dichten,Müll.,nan,Wurst,Taschengeld,die,schwarzem,Dezember,Schaumstoff,nan,nan,köstlichen,Müll.,nan,Einkommen,eine,grünen,dichten,Stimmung,Herrn,Soldaten,Esslöffel,Alkohol,defekt,Besucher.,aus,ml,nan,verschrottet.,nan,Helmen,eine,Kunsteis,Abduschen,große,um,köstlicher,Wurst,aus,nichts,die,defekt,seiner,um,den,goldenen,Esslöffel,Soldaten,die,Hauptbahnhof.,täglichen,Planet,Energie.,sie,ruhig,nan,Gras,Planeten,nichts,große,die,Flut,die,drei,,,,,,,,,,,,,,,,,,,,,,,7,0,7,0,0,6,6,6,,,,,,,space,0.896147012711,,,,,,2017_Jan_26_1148,59.8329819316,spr_backupper,001,Do12,
,,,,,,,,,,,,,,,,,,,,,,,,,,,,,,,,,,,,,,,,,,,,,,,,,,,,,,,,,,,,,,,,,,,,,,,,,,,,,,,,,,,,,,,,,,,,,,,,,,,,,,,,,,,,,,,,,,,,,,,,,7,0,7,0,,,,,,,,,,,,,None,j,2.40725398064,,,2017_Jan_26_1148,59.8329819316,spr_backupper,001,Do12,
,Die,Jetzt,Außer,In,In,Die,Die,Wir,In,Es,Es,Jungtiere,Die,Er,In,In,Außer,Sie,Dort,Wir,Wir,Die,Die,100,Er,Die,Nicht,Die,In,Wir,Die,Sie,Wir,100,Er,Viele,Es,Ich,Jugendliche,Sie,Die,Unter,Alle,Dort,Beträchtliche,Bei,Viele,Walter,Manche,Sie,Ich,Danach,Dass,Die,Bei,Er,Die,Die,Wir,Wir,In,Es,Die,Sie,Die,Sie,Die,Die,Mit,Man,Bei,Ich,Wir,Außer,Am,Die,Die,Man,Nicht,Das,Er,Bei,In,Die,Ihr,Im,Die,Es,Fernab,Beträchtliche,Wir,Im,Außer,Mit,Sie,Als,Am,Der,,,,,,,,,,,,,,,,,,,,,,,8,0,8,0,0,0,0,0,,,,,,space,space,0.539396047592,,,,0.654477834702,,2017_Jan_26_1148,59.8329819316,spr_backupper,001,Do12,
,"Uhr,",ist,den,meinem,der,Teilnehmerinnen,Gäste,übergaben,einer,waren,hat,sollten,Uhr,wurde,den,meinem,dem,verbrauchen,türmen,mussten,konnten,Schuhe,Schule,g,wurde,Stücke,ein,Autos,diesem,übergaben,Kinder,haben,hatten,g,hat,Tonnen,wurden,nehme,können,verlassen,müden,keinen,Betten,türmen,Stücke,unserer,Tonnen,Scheel,Kreditnehmer,hatte,wurde,wurde,es,Gäste,der,stellt,Lösung,Uhr,hatten,haben,den,wurden,Autos,verbrauchen,Kinder,hatte,Eislaufbahnen,Formen,dieser,machte,unserer,nehme,haben,das,äußeren,Uhr,Schuhe,machte,ein,Tuch,stellt,der,der,Linie,Blutdruck,Fernrohr,Schule,waren,des,Stücke,mussten,Fernrohr,dem,dieser,verlassen,die,äußersten,Flug,,,,,,,,,,,,,,,,,,,,,,,8,0,8,0,0,1,1,1,,,,,,,space,0.950165987015,,,,,,2017_Jan_26_1148,59.8329819316,spr_backupper,001,Do12,
,die,genau,Bürgermeister,Studium,Tat,wussten,suchen,das,Studie,nur,uns,immer,war,trotz,Kakao,Studium,Bürgermeister,60,sich,uns,dann,in,verbraucht,brauner,trotz,wurden,Tropfen,beider,Zirkus,dem,fuhren,die,in,braunen,ein,gebrauchter,Eimer,eine,Kleidung,wegen,Teilnehmer,Umständen,wurden,sich,saftiges,Ankunft,gebrauchte,war,sind,keine,damals,die,"regnete,",suchen,Feier,die,wird,schlug,in,jede,Kakao,Eimer,beider,60,fuhren,keine,wurden,wurden,Methode,mal,Ankunft,eine,jede,Essen,Rand,schlug,in,mal,Tropfen,wurde,die,Feier,Tat,101,kann,sahen,verbraucht,nur,Rummels,saftigen,uns,sahen,Essen,Methode,wegen,Sonne,Rand,zum,,,,,,,,,,,,,,,,,,,,,,,8,0,8,0,0,2,2,2,,,,,,,space,1.01401805878,,,,,,2017_Jan_26_1148,59.8329819316,spr_backupper,001,Do12,
,er,die,beschuldigten,habe,wissen,überwiegend,die,Auto,wurde,kleinere,die,auf,aus,dem,gehören,las,beschuldigten,Liter,Berge,durch,mit,Größe,260.000,Zucker,des,aus,königliches,beteiligter,werden,Mann,mit,Erlebnisse,Dänemark,Zuckers,Hemd,Kleidung,rote,große,bei,des,wurden,können,mit,Berge,Fleisch,stand,Kleidung,der,mit,Lust,schnell,Leinwand,hat,die,gedachte,Masse,mit,"sporadisch,",Dänemark,Menge,gehören,roter,beteiligten,Liter,mit,Lust,mit,unter,kann,wieder,stand,große,Menge,kann,der,"sporadisch,",Größe,wieder,königlichen,dann,Masse,gedachte,wissen,hält,schon,wir,260.000,kleinere,wurde,Fleischs,durch,wir,kann,kann,dem,"unterging,",der,Mond,,,,,,,,,,,,,,,,,,,,,,,8,0,8,0,0,3,3,3,,,,,,,space,1.35744285583,,,,,,2017_Jan_26_1148,59.8329819316,spr_backupper,001,Do12,
,"trug,",richtige,die,ich,wir,"nicht,",Wohnung,dem,jetzt,"Delikte,",Stimmung,warmem,"Japan,",bekannten,immer,ich,die,sprudelndes,schmutzige,Büschel,"minimalem,",36,Kilowattstunden,sind,bekannten,"wertvollem,",Blut,Fahrer,die,das,solch,bei,gelegentlich,sind,aus,landen,Farbe,Packung,ausreichendem,schönen,mit,Neuwahlen,"üblichem,",schmutziger,wurden,ein,landen,vierte,"sämtlichem,",auf,dank,aus,uns,Wohnung,man,mit,"reichlichem,",obwohl,einen,alten,immer,Farbe,Fahrer,sprudelnden,solchen,auf,dauerhaftem,"regelmäßigem,",man,viel,ein,Packung,alten,ich,Stadt,obschon,36,viel,Bluts,mit,mit,man,wir,nicht,bei,den,Kilowattstunden,"Delikte,",schon,wurden,Büschel,den,ich,man,schönen,war,Stadt,dauerte,,,,,,,,,,,,,,,,,,,,,,,8,0,8,0,0,4,4,4,,,,,,,space,0.822468042374,,,,,,2017_Jan_26_1148,59.8329819316,spr_backupper,001,Do12,
,war,"Zeit,",Störenfriede,mehr,von,was,des,Mann,"nachgewiesen,",derer,ziemlich,weichem,die,Skandal,350,mehr,Störenfriede,Trinkwasser.,Wäsche.,frischen,sauberen,würden,elektrische,auf,Skandals,klassischen,hat,wurden,Tiere,Auto,unzureichenden,"frischem,",einen,auf,feinem,im,geschleudert.,salziger,monatlichem,Wetters,zusätzlichem,vor,harten,Wäsche.,serviert.,Glas,im,Bundespräsident.,künftigem,noch,täglichem,seltenem,die,des,den,einem,purem,sie,gelegentlichen,Kram,350,geschleudert.,wurden,Trinkwassers.,unzureichenden,noch,feinem,kaltem,eine,Lärm,Glas,salzige,Krams,leider,liegen,sie,hätten,Lärm,hat,"reichem,",einem,der,um,am,minimalem,roten,elektrischer,deren,immer,serviert.,frisches,roten,leider,eine,Wetter,die,liegen,ungefähr,,,,,,,,,,,,,,,,,,,,,,,8,0,8,0,0,5,5,5,,,,,,,space,1.14089417458,,,,,,2017_Jan_26_1148,59.8329819316,spr_backupper,001,Do12,
,aus,um,jeden.,als,den,Tupperware,Herrn,mehr,dass,sie,"vermiest,",Untergrund,er,wiedergewählt.,ml,als,jeden.,nan,nan,Grases,Kraftstoff,seiner,Energie.,jeden,wiedergewählt.,Schmuck,den,verschrottet.,artgerecht,mehr,Helmen,kaltem,Besucher.,jeden,dichten,Müll.,nan,Wurst,Taschengeld,die,schwarzem,Dezember,Schaumstoff,nan,nan,köstlichen,Müll.,nan,Einkommen,eine,grünen,dichten,Stimmung,Herrn,Soldaten,Esslöffel,Alkohol,defekt,Besucher.,aus,ml,nan,verschrottet.,nan,Helmen,eine,Kunsteis,Abduschen,große,um,köstlicher,Wurst,aus,nichts,die,defekt,seiner,um,den,goldenen,Esslöffel,Soldaten,die,Hauptbahnhof.,täglichen,Planet,Energie.,sie,ruhig,nan,Gras,Planeten,nichts,große,die,Flut,die,drei,,,,,,,,,,,,,,,,,,,,,,,8,0,8,0,0,6,6,6,,,,,,,space,1.28167295456,,,,,,2017_Jan_26_1148,59.8329819316,spr_backupper,001,Do12,
,Japan.,Nadelhölzer,nan,einmal,Problemen,ist.,Gantenbeins.,als,das,überführt,dass,liegen.,trug.,nan,warmer,einmal,nan,nan,nan,zwängen.,fahren.,Frau,nan,Fall,nan,umgearbeitet.,Boden,nan,gehalten.,als,zur,Saft,nan,Fall,Stoff,nan,nan,mit,selber,Wohnung.,Kaffee,stattfinden.,gefertigt.,nan,nan,Weins,nan,nan,haftbar.,Sammlung,Tee,Gewebe,ziemlich,Gantenbein.,des,warmem,verdünnt.,war.,nan,dem,warme,nan,nan,nan,zur,Sammlung,eingesprüht.,gehärtet.,Menge,jede,Wein,mit,dem,mitbringen.,Slums.,war.,Frau,jede,Boden,Besatz,warmen,des,Probleme,nan,Einsatz,ganz,nan,überführt,diskutiert.,nan,zwängen.,ganz,mitbringen.,Menge,Wohnung.,zurückgekehrt.,Slums.,Tage.,,,,,,,,,,,,,,,,,,,,,,,8,0,8,0,0,7,7,7,,,,,,,space,1.44173598289,,,,,,2017_Jan_26_1148,59.8329819316,spr_backupper,001,Do12,
,nan,umzusetzen.,nan,Rilke,im,nan,nan,gerne.,Medikament,wurden.,es,nan,nan,nan,Milch.,Rilke.,nan,nan,nan,nan,nan,gepasst,nan,genug.,nan,nan,berührt.,nan,nan,gerne.,Schule.,besprochen.,nan,genug.,gefertigt.,nan,nan,an,kaufen.,nan,wiederbelebt.,nan,nan,nan,nan,schon,nan,nan,nan,dummer,wieder,wiederhergestellt.,vermiest.,nan,zweiten,Honig,nan,nan,nan,Haus,Milch.,nan,nan,nan,Schule.,dumme,nan,nan,dunkler,Menge,schon,an,Haus,nan,nan,nan,gepasst.,Menge,berührt.,rekonstruiert.,Honigs,zweiten,im,nan,sinken.,deutlich.,nan,wurden.,nan,nan,nan,deutlich.,nan,dunkle,nan,nan,nan,nan,,,,,,,,,,,,,,,,,,,,,,,8,0,8,0,0,8,8,8,,,,,,,space,1.19152402878,,,,,,2017_Jan_26_1148,59.8329819316,spr_backupper,001,Do12,
,,,,,,,,,,,,,,,,,,,,,,,,,,,,,,,,,,,,,,,,,,,,,,,,,,,,,,,,,,,,,,,,,,,,,,,,,,,,,,,,,,,,,,,,,,,,,,,,,,,,,,,,,,,,,,,,,,,,,,,,,8,0,8,0,,,,,,,,,,,,,None,n,6.0918970108,,,2017_Jan_26_1148,59.8329819316,spr_backupper,001,Do12,
,Die,Jetzt,Außer,In,In,Die,Die,Wir,In,Es,Es,Jungtiere,Die,Er,In,In,Außer,Sie,Dort,Wir,Wir,Die,Die,100,Er,Die,Nicht,Die,In,Wir,Die,Sie,Wir,100,Er,Viele,Es,Ich,Jugendliche,Sie,Die,Unter,Alle,Dort,Beträchtliche,Bei,Viele,Walter,Manche,Sie,Ich,Danach,Dass,Die,Bei,Er,Die,Die,Wir,Wir,In,Es,Die,Sie,Die,Sie,Die,Die,Mit,Man,Bei,Ich,Wir,Außer,Am,Die,Die,Man,Nicht,Das,Er,Bei,In,Die,Ihr,Im,Die,Es,Fernab,Beträchtliche,Wir,Im,Außer,Mit,Sie,Als,Am,Der,,,,,,,,,,,,,,,,,,,,,,,9,0,9,0,0,0,0,0,,,,,,None,space,4.998306036,,,,,,2017_Jan_26_1148,59.8329819316,spr_backupper,001,Do12,
,"Uhr,",ist,den,meinem,der,Teilnehmerinnen,Gäste,übergaben,einer,waren,hat,sollten,Uhr,wurde,den,meinem,dem,verbrauchen,türmen,mussten,konnten,Schuhe,Schule,g,wurde,Stücke,ein,Autos,diesem,übergaben,Kinder,haben,hatten,g,hat,Tonnen,wurden,nehme,können,verlassen,müden,keinen,Betten,türmen,Stücke,unserer,Tonnen,Scheel,Kreditnehmer,hatte,wurde,wurde,es,Gäste,der,stellt,Lösung,Uhr,hatten,haben,den,wurden,Autos,verbrauchen,Kinder,hatte,Eislaufbahnen,Formen,dieser,machte,unserer,nehme,haben,das,äußeren,Uhr,Schuhe,machte,ein,Tuch,stellt,der,der,Linie,Blutdruck,Fernrohr,Schule,waren,des,Stücke,mussten,Fernrohr,dem,dieser,verlassen,die,äußersten,Flug,,,,,,,,,,,,,,,,,,,,,,,9,0,9,0,0,1,1,1,,,,,,,space,0.989253997803,,,,,,2017_Jan_26_1148,59.8329819316,spr_backupper,001,Do12,
,die,genau,Bürgermeister,Studium,Tat,wussten,suchen,das,Studie,nur,uns,immer,war,trotz,Kakao,Studium,Bürgermeister,60,sich,uns,dann,in,verbraucht,brauner,trotz,wurden,Tropfen,beider,Zirkus,dem,fuhren,die,in,braunen,ein,gebrauchter,Eimer,eine,Kleidung,wegen,Teilnehmer,Umständen,wurden,sich,saftiges,Ankunft,gebrauchte,war,sind,keine,damals,die,"regnete,",suchen,Feier,die,wird,schlug,in,jede,Kakao,Eimer,beider,60,fuhren,keine,wurden,wurden,Methode,mal,Ankunft,eine,jede,Essen,Rand,schlug,in,mal,Tropfen,wurde,die,Feier,Tat,101,kann,sahen,verbraucht,nur,Rummels,saftigen,uns,sahen,Essen,Methode,wegen,Sonne,Rand,zum,,,,,,,,,,,,,,,,,,,,,,,9,0,9,0,0,2,2,2,,,,,,,space,1.12368893623,,,,,,2017_Jan_26_1148,59.8329819316,spr_backupper,001,Do12,
,er,die,beschuldigten,habe,wissen,überwiegend,die,Auto,wurde,kleinere,die,auf,aus,dem,gehören,las,beschuldigten,Liter,Berge,durch,mit,Größe,260.000,Zucker,des,aus,königliches,beteiligter,werden,Mann,mit,Erlebnisse,Dänemark,Zuckers,Hemd,Kleidung,rote,große,bei,des,wurden,können,mit,Berge,Fleisch,stand,Kleidung,der,mit,Lust,schnell,Leinwand,hat,die,gedachte,Masse,mit,"sporadisch,",Dänemark,Menge,gehören,roter,beteiligten,Liter,mit,Lust,mit,unter,kann,wieder,stand,große,Menge,kann,der,"sporadisch,",Größe,wieder,königlichen,dann,Masse,gedachte,wissen,hält,schon,wir,260.000,kleinere,wurde,Fleischs,durch,wir,kann,kann,dem,"unterging,",der,Mond,,,,,,,,,,,,,,,,,,,,,,,9,0,9,0,0,3,3,3,,,,,,,space,0.872407913208,,,,,,2017_Jan_26_1148,59.8329819316,spr_backupper,001,Do12,
,"trug,",richtige,die,ich,wir,"nicht,",Wohnung,dem,jetzt,"Delikte,",Stimmung,warmem,"Japan,",bekannten,immer,ich,die,sprudelndes,schmutzige,Büschel,"minimalem,",36,Kilowattstunden,sind,bekannten,"wertvollem,",Blut,Fahrer,die,das,solch,bei,gelegentlich,sind,aus,landen,Farbe,Packung,ausreichendem,schönen,mit,Neuwahlen,"üblichem,",schmutziger,wurden,ein,landen,vierte,"sämtlichem,",auf,dank,aus,uns,Wohnung,man,mit,"reichlichem,",obwohl,einen,alten,immer,Farbe,Fahrer,sprudelnden,solchen,auf,dauerhaftem,"regelmäßigem,",man,viel,ein,Packung,alten,ich,Stadt,obschon,36,viel,Bluts,mit,mit,man,wir,nicht,bei,den,Kilowattstunden,"Delikte,",schon,wurden,Büschel,den,ich,man,schönen,war,Stadt,dauerte,,,,,,,,,,,,,,,,,,,,,,,9,0,9,0,0,4,4,4,,,,,,,space,0.554419994354,,,,,,2017_Jan_26_1148,59.8329819316,spr_backupper,001,Do12,
,war,"Zeit,",Störenfriede,mehr,von,was,des,Mann,"nachgewiesen,",derer,ziemlich,weichem,die,Skandal,350,mehr,Störenfriede,Trinkwasser.,Wäsche.,frischen,sauberen,würden,elektrische,auf,Skandals,klassischen,hat,wurden,Tiere,Auto,unzureichenden,"frischem,",einen,auf,feinem,im,geschleudert.,salziger,monatlichem,Wetters,zusätzlichem,vor,harten,Wäsche.,serviert.,Glas,im,Bundespräsident.,künftigem,noch,täglichem,seltenem,die,des,den,einem,purem,sie,gelegentlichen,Kram,350,geschleudert.,wurden,Trinkwassers.,unzureichenden,noch,feinem,kaltem,eine,Lärm,Glas,salzige,Krams,leider,liegen,sie,hätten,Lärm,hat,"reichem,",einem,der,um,am,minimalem,roten,elektrischer,deren,immer,serviert.,frisches,roten,leider,eine,Wetter,die,liegen,ungefähr,,,,,,,,,,,,,,,,,,,,,,,9,0,9,0,0,5,5,5,,,,,,,space,0.4952480793,,,,,,2017_Jan_26_1148,59.8329819316,spr_backupper,001,Do12,
,aus,um,jeden.,als,den,Tupperware,Herrn,mehr,dass,sie,"vermiest,",Untergrund,er,wiedergewählt.,ml,als,jeden.,nan,nan,Grases,Kraftstoff,seiner,Energie.,jeden,wiedergewählt.,Schmuck,den,verschrottet.,artgerecht,mehr,Helmen,kaltem,Besucher.,jeden,dichten,Müll.,nan,Wurst,Taschengeld,die,schwarzem,Dezember,Schaumstoff,nan,nan,köstlichen,Müll.,nan,Einkommen,eine,grünen,dichten,Stimmung,Herrn,Soldaten,Esslöffel,Alkohol,defekt,Besucher.,aus,ml,nan,verschrottet.,nan,Helmen,eine,Kunsteis,Abduschen,große,um,köstlicher,Wurst,aus,nichts,die,defekt,seiner,um,den,goldenen,Esslöffel,Soldaten,die,Hauptbahnhof.,täglichen,Planet,Energie.,sie,ruhig,nan,Gras,Planeten,nichts,große,die,Flut,die,drei,,,,,,,,,,,,,,,,,,,,,,,9,0,9,0,0,6,6,6,,,,,,,space,0.420279979706,,,,,,2017_Jan_26_1148,59.8329819316,spr_backupper,001,Do12,
,Japan.,Nadelhölzer,nan,einmal,Problemen,ist.,Gantenbeins.,als,das,überführt,dass,liegen.,trug.,nan,warmer,einmal,nan,nan,nan,zwängen.,fahren.,Frau,nan,Fall,nan,umgearbeitet.,Boden,nan,gehalten.,als,zur,Saft,nan,Fall,Stoff,nan,nan,mit,selber,Wohnung.,Kaffee,stattfinden.,gefertigt.,nan,nan,Weins,nan,nan,haftbar.,Sammlung,Tee,Gewebe,ziemlich,Gantenbein.,des,warmem,verdünnt.,war.,nan,dem,warme,nan,nan,nan,zur,Sammlung,eingesprüht.,gehärtet.,Menge,jede,Wein,mit,dem,mitbringen.,Slums.,war.,Frau,jede,Boden,Besatz,warmen,des,Probleme,nan,Einsatz,ganz,nan,überführt,diskutiert.,nan,zwängen.,ganz,mitbringen.,Menge,Wohnung.,zurückgekehrt.,Slums.,Tage.,,,,,,,,,,,,,,,,,,,,,,,9,0,9,0,0,7,7,7,,,,,,,space,0.476619005203,,,,,,2017_Jan_26_1148,59.8329819316,spr_backupper,001,Do12,
,nan,umzusetzen.,nan,Rilke,im,nan,nan,gerne.,Medikament,wurden.,es,nan,nan,nan,Milch.,Rilke.,nan,nan,nan,nan,nan,gepasst,nan,genug.,nan,nan,berührt.,nan,nan,gerne.,Schule.,besprochen.,nan,genug.,gefertigt.,nan,nan,an,kaufen.,nan,wiederbelebt.,nan,nan,nan,nan,schon,nan,nan,nan,dummer,wieder,wiederhergestellt.,vermiest.,nan,zweiten,Honig,nan,nan,nan,Haus,Milch.,nan,nan,nan,Schule.,dumme,nan,nan,dunkler,Menge,schon,an,Haus,nan,nan,nan,gepasst.,Menge,berührt.,rekonstruiert.,Honigs,zweiten,im,nan,sinken.,deutlich.,nan,wurden.,nan,nan,nan,deutlich.,nan,dunkle,nan,nan,nan,nan,,,,,,,,,,,,,,,,,,,,,,,9,0,9,0,0,8,8,8,,,,,,,space,0.920677185059,,,,,,2017_Jan_26_1148,59.8329819316,spr_backupper,001,Do12,
,,,,,,,,,,,,,,,,,,,,,,,,,,,,,,,,,,,,,,,,,,,,,,,,,,,,,,,,,,,,,,,,,,,,,,,,,,,,,,,,,,,,,,,,,,,,,,,,,,,,,,,,,,,,,,,,,,,,,,,,,9,0,9,0,,,,,,,,,,,,,None,n,5.7362511158,,,2017_Jan_26_1148,59.8329819316,spr_backupper,001,Do12,
,Die,Jetzt,Außer,In,In,Die,Die,Wir,In,Es,Es,Jungtiere,Die,Er,In,In,Außer,Sie,Dort,Wir,Wir,Die,Die,100,Er,Die,Nicht,Die,In,Wir,Die,Sie,Wir,100,Er,Viele,Es,Ich,Jugendliche,Sie,Die,Unter,Alle,Dort,Beträchtliche,Bei,Viele,Walter,Manche,Sie,Ich,Danach,Dass,Die,Bei,Er,Die,Die,Wir,Wir,In,Es,Die,Sie,Die,Sie,Die,Die,Mit,Man,Bei,Ich,Wir,Außer,Am,Die,Die,Man,Nicht,Das,Er,Bei,In,Die,Ihr,Im,Die,Es,Fernab,Beträchtliche,Wir,Im,Außer,Mit,Sie,Als,Am,Der,,,,,,,,,,,,,,,,,,,,,,,10,0,10,0,0,0,0,0,,,,,,space,space,0.665694952011,,,,1.35857701302,,2017_Jan_26_1148,59.8329819316,spr_backupper,001,Do12,
,"Uhr,",ist,den,meinem,der,Teilnehmerinnen,Gäste,übergaben,einer,waren,hat,sollten,Uhr,wurde,den,meinem,dem,verbrauchen,türmen,mussten,konnten,Schuhe,Schule,g,wurde,Stücke,ein,Autos,diesem,übergaben,Kinder,haben,hatten,g,hat,Tonnen,wurden,nehme,können,verlassen,müden,keinen,Betten,türmen,Stücke,unserer,Tonnen,Scheel,Kreditnehmer,hatte,wurde,wurde,es,Gäste,der,stellt,Lösung,Uhr,hatten,haben,den,wurden,Autos,verbrauchen,Kinder,hatte,Eislaufbahnen,Formen,dieser,machte,unserer,nehme,haben,das,äußeren,Uhr,Schuhe,machte,ein,Tuch,stellt,der,der,Linie,Blutdruck,Fernrohr,Schule,waren,des,Stücke,mussten,Fernrohr,dem,dieser,verlassen,die,äußersten,Flug,,,,,,,,,,,,,,,,,,,,,,,10,0,10,0,0,1,1,1,,,,,,,space,0.604068040848,,,,,,2017_Jan_26_1148,59.8329819316,spr_backupper,001,Do12,
,die,genau,Bürgermeister,Studium,Tat,wussten,suchen,das,Studie,nur,uns,immer,war,trotz,Kakao,Studium,Bürgermeister,60,sich,uns,dann,in,verbraucht,brauner,trotz,wurden,Tropfen,beider,Zirkus,dem,fuhren,die,in,braunen,ein,gebrauchter,Eimer,eine,Kleidung,wegen,Teilnehmer,Umständen,wurden,sich,saftiges,Ankunft,gebrauchte,war,sind,keine,damals,die,"regnete,",suchen,Feier,die,wird,schlug,in,jede,Kakao,Eimer,beider,60,fuhren,keine,wurden,wurden,Methode,mal,Ankunft,eine,jede,Essen,Rand,schlug,in,mal,Tropfen,wurde,die,Feier,Tat,101,kann,sahen,verbraucht,nur,Rummels,saftigen,uns,sahen,Essen,Methode,wegen,Sonne,Rand,zum,,,,,,,,,,,,,,,,,,,,,,,10,0,10,0,0,2,2,2,,,,,,,space,0.642173051834,,,,,,2017_Jan_26_1148,59.8329819316,spr_backupper,001,Do12,
,er,die,beschuldigten,habe,wissen,überwiegend,die,Auto,wurde,kleinere,die,auf,aus,dem,gehören,las,beschuldigten,Liter,Berge,durch,mit,Größe,260.000,Zucker,des,aus,königliches,beteiligter,werden,Mann,mit,Erlebnisse,Dänemark,Zuckers,Hemd,Kleidung,rote,große,bei,des,wurden,können,mit,Berge,Fleisch,stand,Kleidung,der,mit,Lust,schnell,Leinwand,hat,die,gedachte,Masse,mit,"sporadisch,",Dänemark,Menge,gehören,roter,beteiligten,Liter,mit,Lust,mit,unter,kann,wieder,stand,große,Menge,kann,der,"sporadisch,",Größe,wieder,königlichen,dann,Masse,gedachte,wissen,hält,schon,wir,260.000,kleinere,wurde,Fleischs,durch,wir,kann,kann,dem,"unterging,",der,Mond,,,,,,,,,,,,,,,,,,,,,,,10,0,10,0,0,3,3,3,,,,,,,space,1.50935411453,,,,,,2017_Jan_26_1148,59.8329819316,spr_backupper,001,Do12,
,"trug,",richtige,die,ich,wir,"nicht,",Wohnung,dem,jetzt,"Delikte,",Stimmung,warmem,"Japan,",bekannten,immer,ich,die,sprudelndes,schmutzige,Büschel,"minimalem,",36,Kilowattstunden,sind,bekannten,"wertvollem,",Blut,Fahrer,die,das,solch,bei,gelegentlich,sind,aus,landen,Farbe,Packung,ausreichendem,schönen,mit,Neuwahlen,"üblichem,",schmutziger,wurden,ein,landen,vierte,"sämtlichem,",auf,dank,aus,uns,Wohnung,man,mit,"reichlichem,",obwohl,einen,alten,immer,Farbe,Fahrer,sprudelnden,solchen,auf,dauerhaftem,"regelmäßigem,",man,viel,ein,Packung,alten,ich,Stadt,obschon,36,viel,Bluts,mit,mit,man,wir,nicht,bei,den,Kilowattstunden,"Delikte,",schon,wurden,Büschel,den,ich,man,schönen,war,Stadt,dauerte,,,,,,,,,,,,,,,,,,,,,,,10,0,10,0,0,4,4,4,,,,,,,space,1.35902094841,,,,,,2017_Jan_26_1148,59.8329819316,spr_backupper,001,Do12,
,war,"Zeit,",Störenfriede,mehr,von,was,des,Mann,"nachgewiesen,",derer,ziemlich,weichem,die,Skandal,350,mehr,Störenfriede,Trinkwasser.,Wäsche.,frischen,sauberen,würden,elektrische,auf,Skandals,klassischen,hat,wurden,Tiere,Auto,unzureichenden,"frischem,",einen,auf,feinem,im,geschleudert.,salziger,monatlichem,Wetters,zusätzlichem,vor,harten,Wäsche.,serviert.,Glas,im,Bundespräsident.,künftigem,noch,täglichem,seltenem,die,des,den,einem,purem,sie,gelegentlichen,Kram,350,geschleudert.,wurden,Trinkwassers.,unzureichenden,noch,feinem,kaltem,eine,Lärm,Glas,salzige,Krams,leider,liegen,sie,hätten,Lärm,hat,"reichem,",einem,der,um,am,minimalem,roten,elektrischer,deren,immer,serviert.,frisches,roten,leider,eine,Wetter,die,liegen,ungefähr,,,,,,,,,,,,,,,,,,,,,,,10,0,10,0,0,5,5,5,,,,,,,space,0.911939144135,,,,,,2017_Jan_26_1148,59.8329819316,spr_backupper,001,Do12,
,aus,um,jeden.,als,den,Tupperware,Herrn,mehr,dass,sie,"vermiest,",Untergrund,er,wiedergewählt.,ml,als,jeden.,nan,nan,Grases,Kraftstoff,seiner,Energie.,jeden,wiedergewählt.,Schmuck,den,verschrottet.,artgerecht,mehr,Helmen,kaltem,Besucher.,jeden,dichten,Müll.,nan,Wurst,Taschengeld,die,schwarzem,Dezember,Schaumstoff,nan,nan,köstlichen,Müll.,nan,Einkommen,eine,grünen,dichten,Stimmung,Herrn,Soldaten,Esslöffel,Alkohol,defekt,Besucher.,aus,ml,nan,verschrottet.,nan,Helmen,eine,Kunsteis,Abduschen,große,um,köstlicher,Wurst,aus,nichts,die,defekt,seiner,um,den,goldenen,Esslöffel,Soldaten,die,Hauptbahnhof.,täglichen,Planet,Energie.,sie,ruhig,nan,Gras,Planeten,nichts,große,die,Flut,die,drei,,,,,,,,,,,,,,,,,,,,,,,10,0,10,0,0,6,6,6,,,,,,,space,0.871952056885,,,,,,2017_Jan_26_1148,59.8329819316,spr_backupper,001,Do12,
,,,,,,,,,,,,,,,,,,,,,,,,,,,,,,,,,,,,,,,,,,,,,,,,,,,,,,,,,,,,,,,,,,,,,,,,,,,,,,,,,,,,,,,,,,,,,,,,,,,,,,,,,,,,,,,,,,,,,,,,,10,0,10,0,,,,,,,,,,,,,None,j,7.82856202126,,,2017_Jan_26_1148,59.8329819316,spr_backupper,001,Do12,
,Die,Jetzt,Außer,In,In,Die,Die,Wir,In,Es,Es,Jungtiere,Die,Er,In,In,Außer,Sie,Dort,Wir,Wir,Die,Die,100,Er,Die,Nicht,Die,In,Wir,Die,Sie,Wir,100,Er,Viele,Es,Ich,Jugendliche,Sie,Die,Unter,Alle,Dort,Beträchtliche,Bei,Viele,Walter,Manche,Sie,Ich,Danach,Dass,Die,Bei,Er,Die,Die,Wir,Wir,In,Es,Die,Sie,Die,Sie,Die,Die,Mit,Man,Bei,Ich,Wir,Außer,Am,Die,Die,Man,Nicht,Das,Er,Bei,In,Die,Ihr,Im,Die,Es,Fernab,Beträchtliche,Wir,Im,Außer,Mit,Sie,Als,Am,Der,,,,,,,,,,,,,,,,,,,,,,,11,0,11,0,0,0,0,0,,,,,,None,space,0.687771081924,,,,,,2017_Jan_26_1148,59.8329819316,spr_backupper,001,Do12,
,"Uhr,",ist,den,meinem,der,Teilnehmerinnen,Gäste,übergaben,einer,waren,hat,sollten,Uhr,wurde,den,meinem,dem,verbrauchen,türmen,mussten,konnten,Schuhe,Schule,g,wurde,Stücke,ein,Autos,diesem,übergaben,Kinder,haben,hatten,g,hat,Tonnen,wurden,nehme,können,verlassen,müden,keinen,Betten,türmen,Stücke,unserer,Tonnen,Scheel,Kreditnehmer,hatte,wurde,wurde,es,Gäste,der,stellt,Lösung,Uhr,hatten,haben,den,wurden,Autos,verbrauchen,Kinder,hatte,Eislaufbahnen,Formen,dieser,machte,unserer,nehme,haben,das,äußeren,Uhr,Schuhe,machte,ein,Tuch,stellt,der,der,Linie,Blutdruck,Fernrohr,Schule,waren,des,Stücke,mussten,Fernrohr,dem,dieser,verlassen,die,äußersten,Flug,,,,,,,,,,,,,,,,,,,,,,,11,0,11,0,0,1,1,1,,,,,,,space,0.537629842758,,,,,,2017_Jan_26_1148,59.8329819316,spr_backupper,001,Do12,
,die,genau,Bürgermeister,Studium,Tat,wussten,suchen,das,Studie,nur,uns,immer,war,trotz,Kakao,Studium,Bürgermeister,60,sich,uns,dann,in,verbraucht,brauner,trotz,wurden,Tropfen,beider,Zirkus,dem,fuhren,die,in,braunen,ein,gebrauchter,Eimer,eine,Kleidung,wegen,Teilnehmer,Umständen,wurden,sich,saftiges,Ankunft,gebrauchte,war,sind,keine,damals,die,"regnete,",suchen,Feier,die,wird,schlug,in,jede,Kakao,Eimer,beider,60,fuhren,keine,wurden,wurden,Methode,mal,Ankunft,eine,jede,Essen,Rand,schlug,in,mal,Tropfen,wurde,die,Feier,Tat,101,kann,sahen,verbraucht,nur,Rummels,saftigen,uns,sahen,Essen,Methode,wegen,Sonne,Rand,zum,,,,,,,,,,,,,,,,,,,,,,,11,0,11,0,0,2,2,2,,,,,,,space,0.478630065918,,,,,,2017_Jan_26_1148,59.8329819316,spr_backupper,001,Do12,
,er,die,beschuldigten,habe,wissen,überwiegend,die,Auto,wurde,kleinere,die,auf,aus,dem,gehören,las,beschuldigten,Liter,Berge,durch,mit,Größe,260.000,Zucker,des,aus,königliches,beteiligter,werden,Mann,mit,Erlebnisse,Dänemark,Zuckers,Hemd,Kleidung,rote,große,bei,des,wurden,können,mit,Berge,Fleisch,stand,Kleidung,der,mit,Lust,schnell,Leinwand,hat,die,gedachte,Masse,mit,"sporadisch,",Dänemark,Menge,gehören,roter,beteiligten,Liter,mit,Lust,mit,unter,kann,wieder,stand,große,Menge,kann,der,"sporadisch,",Größe,wieder,königlichen,dann,Masse,gedachte,wissen,hält,schon,wir,260.000,kleinere,wurde,Fleischs,durch,wir,kann,kann,dem,"unterging,",der,Mond,,,,,,,,,,,,,,,,,,,,,,,11,0,11,0,0,3,3,3,,,,,,,space,0.760254144669,,,,,,2017_Jan_26_1148,59.8329819316,spr_backupper,001,Do12,
,"trug,",richtige,die,ich,wir,"nicht,",Wohnung,dem,jetzt,"Delikte,",Stimmung,warmem,"Japan,",bekannten,immer,ich,die,sprudelndes,schmutzige,Büschel,"minimalem,",36,Kilowattstunden,sind,bekannten,"wertvollem,",Blut,Fahrer,die,das,solch,bei,gelegentlich,sind,aus,landen,Farbe,Packung,ausreichendem,schönen,mit,Neuwahlen,"üblichem,",schmutziger,wurden,ein,landen,vierte,"sämtlichem,",auf,dank,aus,uns,Wohnung,man,mit,"reichlichem,",obwohl,einen,alten,immer,Farbe,Fahrer,sprudelnden,solchen,auf,dauerhaftem,"regelmäßigem,",man,viel,ein,Packung,alten,ich,Stadt,obschon,36,viel,Bluts,mit,mit,man,wir,nicht,bei,den,Kilowattstunden,"Delikte,",schon,wurden,Büschel,den,ich,man,schönen,war,Stadt,dauerte,,,,,,,,,,,,,,,,,,,,,,,11,0,11,0,0,4,4,4,,,,,,,space,0.651979923248,,,,,,2017_Jan_26_1148,59.8329819316,spr_backupper,001,Do12,
,war,"Zeit,",Störenfriede,mehr,von,was,des,Mann,"nachgewiesen,",derer,ziemlich,weichem,die,Skandal,350,mehr,Störenfriede,Trinkwasser.,Wäsche.,frischen,sauberen,würden,elektrische,auf,Skandals,klassischen,hat,wurden,Tiere,Auto,unzureichenden,"frischem,",einen,auf,feinem,im,geschleudert.,salziger,monatlichem,Wetters,zusätzlichem,vor,harten,Wäsche.,serviert.,Glas,im,Bundespräsident.,künftigem,noch,täglichem,seltenem,die,des,den,einem,purem,sie,gelegentlichen,Kram,350,geschleudert.,wurden,Trinkwassers.,unzureichenden,noch,feinem,kaltem,eine,Lärm,Glas,salzige,Krams,leider,liegen,sie,hätten,Lärm,hat,"reichem,",einem,der,um,am,minimalem,roten,elektrischer,deren,immer,serviert.,frisches,roten,leider,eine,Wetter,die,liegen,ungefähr,,,,,,,,,,,,,,,,,,,,,,,11,0,11,0,0,5,5,5,,,,,,,space,0.46999001503,,,,,,2017_Jan_26_1148,59.8329819316,spr_backupper,001,Do12,
,aus,um,jeden.,als,den,Tupperware,Herrn,mehr,dass,sie,"vermiest,",Untergrund,er,wiedergewählt.,ml,als,jeden.,nan,nan,Grases,Kraftstoff,seiner,Energie.,jeden,wiedergewählt.,Schmuck,den,verschrottet.,artgerecht,mehr,Helmen,kaltem,Besucher.,jeden,dichten,Müll.,nan,Wurst,Taschengeld,die,schwarzem,Dezember,Schaumstoff,nan,nan,köstlichen,Müll.,nan,Einkommen,eine,grünen,dichten,Stimmung,Herrn,Soldaten,Esslöffel,Alkohol,defekt,Besucher.,aus,ml,nan,verschrottet.,nan,Helmen,eine,Kunsteis,Abduschen,große,um,köstlicher,Wurst,aus,nichts,die,defekt,seiner,um,den,goldenen,Esslöffel,Soldaten,die,Hauptbahnhof.,täglichen,Planet,Energie.,sie,ruhig,nan,Gras,Planeten,nichts,große,die,Flut,die,drei,,,,,,,,,,,,,,,,,,,,,,,11,0,11,0,0,6,6,6,,,,,,,space,0.425044059753,,,,,,2017_Jan_26_1148,59.8329819316,spr_backupper,001,Do12,
,Japan.,Nadelhölzer,nan,einmal,Problemen,ist.,Gantenbeins.,als,das,überführt,dass,liegen.,trug.,nan,warmer,einmal,nan,nan,nan,zwängen.,fahren.,Frau,nan,Fall,nan,umgearbeitet.,Boden,nan,gehalten.,als,zur,Saft,nan,Fall,Stoff,nan,nan,mit,selber,Wohnung.,Kaffee,stattfinden.,gefertigt.,nan,nan,Weins,nan,nan,haftbar.,Sammlung,Tee,Gewebe,ziemlich,Gantenbein.,des,warmem,verdünnt.,war.,nan,dem,warme,nan,nan,nan,zur,Sammlung,eingesprüht.,gehärtet.,Menge,jede,Wein,mit,dem,mitbringen.,Slums.,war.,Frau,jede,Boden,Besatz,warmen,des,Probleme,nan,Einsatz,ganz,nan,überführt,diskutiert.,nan,zwängen.,ganz,mitbringen.,Menge,Wohnung.,zurückgekehrt.,Slums.,Tage.,,,,,,,,,,,,,,,,,,,,,,,11,0,11,0,0,7,7,7,,,,,,,space,0.486477851868,,,,,,2017_Jan_26_1148,59.8329819316,spr_backupper,001,Do12,
,nan,umzusetzen.,nan,Rilke,im,nan,nan,gerne.,Medikament,wurden.,es,nan,nan,nan,Milch.,Rilke.,nan,nan,nan,nan,nan,gepasst,nan,genug.,nan,nan,berührt.,nan,nan,gerne.,Schule.,besprochen.,nan,genug.,gefertigt.,nan,nan,an,kaufen.,nan,wiederbelebt.,nan,nan,nan,nan,schon,nan,nan,nan,dummer,wieder,wiederhergestellt.,vermiest.,nan,zweiten,Honig,nan,nan,nan,Haus,Milch.,nan,nan,nan,Schule.,dumme,nan,nan,dunkler,Menge,schon,an,Haus,nan,nan,nan,gepasst.,Menge,berührt.,rekonstruiert.,Honigs,zweiten,im,nan,sinken.,deutlich.,nan,wurden.,nan,nan,nan,deutlich.,nan,dunkle,nan,nan,nan,nan,,,,,,,,,,,,,,,,,,,,,,,11,0,11,0,0,8,8,8,,,,,,,space,0.754438877106,,,,,,2017_Jan_26_1148,59.8329819316,spr_backupper,001,Do12,
,nan,nan,nan,gelesen.,Landkreis.,nan,nan,nan,nicht,nan,regnete.,nan,nan,nan,nan,nan,nan,nan,nan,nan,nan,haben.,nan,nan,nan,nan,nan,nan,nan,nan,nan,nan,nan,nan,nan,nan,nan,den,nan,nan,nan,nan,nan,nan,nan,auf,nan,nan,nan,Sprüche.,fit.,nan,nan,nan,Weltkriegs.,her.,nan,nan,nan,geschafft.,nan,nan,nan,nan,nan,Sprüche.,nan,nan,Materie,heiße,auf,den,geschafft.,nan,nan,nan,nan,heißer,nan,nan,her.,Weltkriegs.,Landkreis.,nan,nan,nan,nan,nan,nan,nan,nan,nan,nan,Materie,nan,nan,nan,nan,,,,,,,,,,,,,,,,,,,,,,,11,0,11,0,0,9,9,9,,,,,,,space,0.922486066818,,,,,,2017_Jan_26_1148,59.8329819316,spr_backupper,001,Do12,
,,,,,,,,,,,,,,,,,,,,,,,,,,,,,,,,,,,,,,,,,,,,,,,,,,,,,,,,,,,,,,,,,,,,,,,,,,,,,,,,,,,,,,,,,,,,,,,,,,,,,,,,,,,,,,,,,,,,,,,,,11,0,11,0,,,,,,,,,,,,,None,n,4.86393904686,,,2017_Jan_26_1148,59.8329819316,spr_backupper,001,Do12,
,Die,Jetzt,Außer,In,In,Die,Die,Wir,In,Es,Es,Jungtiere,Die,Er,In,In,Außer,Sie,Dort,Wir,Wir,Die,Die,100,Er,Die,Nicht,Die,In,Wir,Die,Sie,Wir,100,Er,Viele,Es,Ich,Jugendliche,Sie,Die,Unter,Alle,Dort,Beträchtliche,Bei,Viele,Walter,Manche,Sie,Ich,Danach,Dass,Die,Bei,Er,Die,Die,Wir,Wir,In,Es,Die,Sie,Die,Sie,Die,Die,Mit,Man,Bei,Ich,Wir,Außer,Am,Die,Die,Man,Nicht,Das,Er,Bei,In,Die,Ihr,Im,Die,Es,Fernab,Beträchtliche,Wir,Im,Außer,Mit,Sie,Als,Am,Der,,,,,,,,,,,,,,,,,,,,,,,12,0,12,0,0,0,0,0,,,,,,space,space,1.33563685417,,,,0.754716157913,,2017_Jan_26_1148,59.8329819316,spr_backupper,001,Do12,
,"Uhr,",ist,den,meinem,der,Teilnehmerinnen,Gäste,übergaben,einer,waren,hat,sollten,Uhr,wurde,den,meinem,dem,verbrauchen,türmen,mussten,konnten,Schuhe,Schule,g,wurde,Stücke,ein,Autos,diesem,übergaben,Kinder,haben,hatten,g,hat,Tonnen,wurden,nehme,können,verlassen,müden,keinen,Betten,türmen,Stücke,unserer,Tonnen,Scheel,Kreditnehmer,hatte,wurde,wurde,es,Gäste,der,stellt,Lösung,Uhr,hatten,haben,den,wurden,Autos,verbrauchen,Kinder,hatte,Eislaufbahnen,Formen,dieser,machte,unserer,nehme,haben,das,äußeren,Uhr,Schuhe,machte,ein,Tuch,stellt,der,der,Linie,Blutdruck,Fernrohr,Schule,waren,des,Stücke,mussten,Fernrohr,dem,dieser,verlassen,die,äußersten,Flug,,,,,,,,,,,,,,,,,,,,,,,12,0,12,0,0,1,1,1,,,,,,,space,0.984966993332,,,,,,2017_Jan_26_1148,59.8329819316,spr_backupper,001,Do12,
,die,genau,Bürgermeister,Studium,Tat,wussten,suchen,das,Studie,nur,uns,immer,war,trotz,Kakao,Studium,Bürgermeister,60,sich,uns,dann,in,verbraucht,brauner,trotz,wurden,Tropfen,beider,Zirkus,dem,fuhren,die,in,braunen,ein,gebrauchter,Eimer,eine,Kleidung,wegen,Teilnehmer,Umständen,wurden,sich,saftiges,Ankunft,gebrauchte,war,sind,keine,damals,die,"regnete,",suchen,Feier,die,wird,schlug,in,jede,Kakao,Eimer,beider,60,fuhren,keine,wurden,wurden,Methode,mal,Ankunft,eine,jede,Essen,Rand,schlug,in,mal,Tropfen,wurde,die,Feier,Tat,101,kann,sahen,verbraucht,nur,Rummels,saftigen,uns,sahen,Essen,Methode,wegen,Sonne,Rand,zum,,,,,,,,,,,,,,,,,,,,,,,12,0,12,0,0,2,2,2,,,,,,,space,0.938485145569,,,,,,2017_Jan_26_1148,59.8329819316,spr_backupper,001,Do12,
,er,die,beschuldigten,habe,wissen,überwiegend,die,Auto,wurde,kleinere,die,auf,aus,dem,gehören,las,beschuldigten,Liter,Berge,durch,mit,Größe,260.000,Zucker,des,aus,königliches,beteiligter,werden,Mann,mit,Erlebnisse,Dänemark,Zuckers,Hemd,Kleidung,rote,große,bei,des,wurden,können,mit,Berge,Fleisch,stand,Kleidung,der,mit,Lust,schnell,Leinwand,hat,die,gedachte,Masse,mit,"sporadisch,",Dänemark,Menge,gehören,roter,beteiligten,Liter,mit,Lust,mit,unter,kann,wieder,stand,große,Menge,kann,der,"sporadisch,",Größe,wieder,königlichen,dann,Masse,gedachte,wissen,hält,schon,wir,260.000,kleinere,wurde,Fleischs,durch,wir,kann,kann,dem,"unterging,",der,Mond,,,,,,,,,,,,,,,,,,,,,,,12,0,12,0,0,3,3,3,,,,,,,space,0.697250127792,,,,,,2017_Jan_26_1148,59.8329819316,spr_backupper,001,Do12,
,"trug,",richtige,die,ich,wir,"nicht,",Wohnung,dem,jetzt,"Delikte,",Stimmung,warmem,"Japan,",bekannten,immer,ich,die,sprudelndes,schmutzige,Büschel,"minimalem,",36,Kilowattstunden,sind,bekannten,"wertvollem,",Blut,Fahrer,die,das,solch,bei,gelegentlich,sind,aus,landen,Farbe,Packung,ausreichendem,schönen,mit,Neuwahlen,"üblichem,",schmutziger,wurden,ein,landen,vierte,"sämtlichem,",auf,dank,aus,uns,Wohnung,man,mit,"reichlichem,",obwohl,einen,alten,immer,Farbe,Fahrer,sprudelnden,solchen,auf,dauerhaftem,"regelmäßigem,",man,viel,ein,Packung,alten,ich,Stadt,obschon,36,viel,Bluts,mit,mit,man,wir,nicht,bei,den,Kilowattstunden,"Delikte,",schon,wurden,Büschel,den,ich,man,schönen,war,Stadt,dauerte,,,,,,,,,,,,,,,,,,,,,,,12,0,12,0,0,4,4,4,,,,,,,space,1.11165118217,,,,,,2017_Jan_26_1148,59.8329819316,spr_backupper,001,Do12,
,war,"Zeit,",Störenfriede,mehr,von,was,des,Mann,"nachgewiesen,",derer,ziemlich,weichem,die,Skandal,350,mehr,Störenfriede,Trinkwasser.,Wäsche.,frischen,sauberen,würden,elektrische,auf,Skandals,klassischen,hat,wurden,Tiere,Auto,unzureichenden,"frischem,",einen,auf,feinem,im,geschleudert.,salziger,monatlichem,Wetters,zusätzlichem,vor,harten,Wäsche.,serviert.,Glas,im,Bundespräsident.,künftigem,noch,täglichem,seltenem,die,des,den,einem,purem,sie,gelegentlichen,Kram,350,geschleudert.,wurden,Trinkwassers.,unzureichenden,noch,feinem,kaltem,eine,Lärm,Glas,salzige,Krams,leider,liegen,sie,hätten,Lärm,hat,"reichem,",einem,der,um,am,minimalem,roten,elektrischer,deren,immer,serviert.,frisches,roten,leider,eine,Wetter,die,liegen,ungefähr,,,,,,,,,,,,,,,,,,,,,,,12,0,12,0,0,5,5,5,,,,,,,space,0.9232878685,,,,,,2017_Jan_26_1148,59.8329819316,spr_backupper,001,Do12,
,aus,um,jeden.,als,den,Tupperware,Herrn,mehr,dass,sie,"vermiest,",Untergrund,er,wiedergewählt.,ml,als,jeden.,nan,nan,Grases,Kraftstoff,seiner,Energie.,jeden,wiedergewählt.,Schmuck,den,verschrottet.,artgerecht,mehr,Helmen,kaltem,Besucher.,jeden,dichten,Müll.,nan,Wurst,Taschengeld,die,schwarzem,Dezember,Schaumstoff,nan,nan,köstlichen,Müll.,nan,Einkommen,eine,grünen,dichten,Stimmung,Herrn,Soldaten,Esslöffel,Alkohol,defekt,Besucher.,aus,ml,nan,verschrottet.,nan,Helmen,eine,Kunsteis,Abduschen,große,um,köstlicher,Wurst,aus,nichts,die,defekt,seiner,um,den,goldenen,Esslöffel,Soldaten,die,Hauptbahnhof.,täglichen,Planet,Energie.,sie,ruhig,nan,Gras,Planeten,nichts,große,die,Flut,die,drei,,,,,,,,,,,,,,,,,,,,,,,12,0,12,0,0,6,6,6,,,,,,,space,0.826008796692,,,,,,2017_Jan_26_1148,59.8329819316,spr_backupper,001,Do12,
,Japan.,Nadelhölzer,nan,einmal,Problemen,ist.,Gantenbeins.,als,das,überführt,dass,liegen.,trug.,nan,warmer,einmal,nan,nan,nan,zwängen.,fahren.,Frau,nan,Fall,nan,umgearbeitet.,Boden,nan,gehalten.,als,zur,Saft,nan,Fall,Stoff,nan,nan,mit,selber,Wohnung.,Kaffee,stattfinden.,gefertigt.,nan,nan,Weins,nan,nan,haftbar.,Sammlung,Tee,Gewebe,ziemlich,Gantenbein.,des,warmem,verdünnt.,war.,nan,dem,warme,nan,nan,nan,zur,Sammlung,eingesprüht.,gehärtet.,Menge,jede,Wein,mit,dem,mitbringen.,Slums.,war.,Frau,jede,Boden,Besatz,warmen,des,Probleme,nan,Einsatz,ganz,nan,überführt,diskutiert.,nan,zwängen.,ganz,mitbringen.,Menge,Wohnung.,zurückgekehrt.,Slums.,Tage.,,,,,,,,,,,,,,,,,,,,,,,12,0,12,0,0,7,7,7,,,,,,,space,0.964532852173,,,,,,2017_Jan_26_1148,59.8329819316,spr_backupper,001,Do12,
,,,,,,,,,,,,,,,,,,,,,,,,,,,,,,,,,,,,,,,,,,,,,,,,,,,,,,,,,,,,,,,,,,,,,,,,,,,,,,,,,,,,,,,,,,,,,,,,,,,,,,,,,,,,,,,,,,,,,,,,,12,0,12,0,,,,,,,,,,,,,None,n,2.33244299889,,,2017_Jan_26_1148,59.8329819316,spr_backupper,001,Do12,
,Die,Jetzt,Außer,In,In,Die,Die,Wir,In,Es,Es,Jungtiere,Die,Er,In,In,Außer,Sie,Dort,Wir,Wir,Die,Die,100,Er,Die,Nicht,Die,In,Wir,Die,Sie,Wir,100,Er,Viele,Es,Ich,Jugendliche,Sie,Die,Unter,Alle,Dort,Beträchtliche,Bei,Viele,Walter,Manche,Sie,Ich,Danach,Dass,Die,Bei,Er,Die,Die,Wir,Wir,In,Es,Die,Sie,Die,Sie,Die,Die,Mit,Man,Bei,Ich,Wir,Außer,Am,Die,Die,Man,Nicht,Das,Er,Bei,In,Die,Ihr,Im,Die,Es,Fernab,Beträchtliche,Wir,Im,Außer,Mit,Sie,Als,Am,Der,,,,,,,,,,,,,,,,,,,,,,,13,0,13,0,0,0,0,0,,,,,,space,space,0.448182821274,,,,0.871501922607,,2017_Jan_26_1148,59.8329819316,spr_backupper,001,Do12,
,"Uhr,",ist,den,meinem,der,Teilnehmerinnen,Gäste,übergaben,einer,waren,hat,sollten,Uhr,wurde,den,meinem,dem,verbrauchen,türmen,mussten,konnten,Schuhe,Schule,g,wurde,Stücke,ein,Autos,diesem,übergaben,Kinder,haben,hatten,g,hat,Tonnen,wurden,nehme,können,verlassen,müden,keinen,Betten,türmen,Stücke,unserer,Tonnen,Scheel,Kreditnehmer,hatte,wurde,wurde,es,Gäste,der,stellt,Lösung,Uhr,hatten,haben,den,wurden,Autos,verbrauchen,Kinder,hatte,Eislaufbahnen,Formen,dieser,machte,unserer,nehme,haben,das,äußeren,Uhr,Schuhe,machte,ein,Tuch,stellt,der,der,Linie,Blutdruck,Fernrohr,Schule,waren,des,Stücke,mussten,Fernrohr,dem,dieser,verlassen,die,äußersten,Flug,,,,,,,,,,,,,,,,,,,,,,,13,0,13,0,0,1,1,1,,,,,,,space,0.587900161743,,,,,,2017_Jan_26_1148,59.8329819316,spr_backupper,001,Do12,
,die,genau,Bürgermeister,Studium,Tat,wussten,suchen,das,Studie,nur,uns,immer,war,trotz,Kakao,Studium,Bürgermeister,60,sich,uns,dann,in,verbraucht,brauner,trotz,wurden,Tropfen,beider,Zirkus,dem,fuhren,die,in,braunen,ein,gebrauchter,Eimer,eine,Kleidung,wegen,Teilnehmer,Umständen,wurden,sich,saftiges,Ankunft,gebrauchte,war,sind,keine,damals,die,"regnete,",suchen,Feier,die,wird,schlug,in,jede,Kakao,Eimer,beider,60,fuhren,keine,wurden,wurden,Methode,mal,Ankunft,eine,jede,Essen,Rand,schlug,in,mal,Tropfen,wurde,die,Feier,Tat,101,kann,sahen,verbraucht,nur,Rummels,saftigen,uns,sahen,Essen,Methode,wegen,Sonne,Rand,zum,,,,,,,,,,,,,,,,,,,,,,,13,0,13,0,0,2,2,2,,,,,,,space,0.460669994354,,,,,,2017_Jan_26_1148,59.8329819316,spr_backupper,001,Do12,
,er,die,beschuldigten,habe,wissen,überwiegend,die,Auto,wurde,kleinere,die,auf,aus,dem,gehören,las,beschuldigten,Liter,Berge,durch,mit,Größe,260.000,Zucker,des,aus,königliches,beteiligter,werden,Mann,mit,Erlebnisse,Dänemark,Zuckers,Hemd,Kleidung,rote,große,bei,des,wurden,können,mit,Berge,Fleisch,stand,Kleidung,der,mit,Lust,schnell,Leinwand,hat,die,gedachte,Masse,mit,"sporadisch,",Dänemark,Menge,gehören,roter,beteiligten,Liter,mit,Lust,mit,unter,kann,wieder,stand,große,Menge,kann,der,"sporadisch,",Größe,wieder,königlichen,dann,Masse,gedachte,wissen,hält,schon,wir,260.000,kleinere,wurde,Fleischs,durch,wir,kann,kann,dem,"unterging,",der,Mond,,,,,,,,,,,,,,,,,,,,,,,13,0,13,0,0,3,3,3,,,,,,,space,0.415816783905,,,,,,2017_Jan_26_1148,59.8329819316,spr_backupper,001,Do12,
,"trug,",richtige,die,ich,wir,"nicht,",Wohnung,dem,jetzt,"Delikte,",Stimmung,warmem,"Japan,",bekannten,immer,ich,die,sprudelndes,schmutzige,Büschel,"minimalem,",36,Kilowattstunden,sind,bekannten,"wertvollem,",Blut,Fahrer,die,das,solch,bei,gelegentlich,sind,aus,landen,Farbe,Packung,ausreichendem,schönen,mit,Neuwahlen,"üblichem,",schmutziger,wurden,ein,landen,vierte,"sämtlichem,",auf,dank,aus,uns,Wohnung,man,mit,"reichlichem,",obwohl,einen,alten,immer,Farbe,Fahrer,sprudelnden,solchen,auf,dauerhaftem,"regelmäßigem,",man,viel,ein,Packung,alten,ich,Stadt,obschon,36,viel,Bluts,mit,mit,man,wir,nicht,bei,den,Kilowattstunden,"Delikte,",schon,wurden,Büschel,den,ich,man,schönen,war,Stadt,dauerte,,,,,,,,,,,,,,,,,,,,,,,13,0,13,0,0,4,4,4,,,,,,,space,0.627561092377,,,,,,2017_Jan_26_1148,59.8329819316,spr_backupper,001,Do12,
,war,"Zeit,",Störenfriede,mehr,von,was,des,Mann,"nachgewiesen,",derer,ziemlich,weichem,die,Skandal,350,mehr,Störenfriede,Trinkwasser.,Wäsche.,frischen,sauberen,würden,elektrische,auf,Skandals,klassischen,hat,wurden,Tiere,Auto,unzureichenden,"frischem,",einen,auf,feinem,im,geschleudert.,salziger,monatlichem,Wetters,zusätzlichem,vor,harten,Wäsche.,serviert.,Glas,im,Bundespräsident.,künftigem,noch,täglichem,seltenem,die,des,den,einem,purem,sie,gelegentlichen,Kram,350,geschleudert.,wurden,Trinkwassers.,unzureichenden,noch,feinem,kaltem,eine,Lärm,Glas,salzige,Krams,leider,liegen,sie,hätten,Lärm,hat,"reichem,",einem,der,um,am,minimalem,roten,elektrischer,deren,immer,serviert.,frisches,roten,leider,eine,Wetter,die,liegen,ungefähr,,,,,,,,,,,,,,,,,,,,,,,13,0,13,0,0,5,5,5,,,,,,,space,0.970990180969,,,,,,2017_Jan_26_1148,59.8329819316,spr_backupper,001,Do12,
