text,sent48,sent9,sent8,sent15,sent3,sent2,sent1,sent14,sent7,sent6,sent5,sent4,sent57,sent56,sent55,sent54,sent53,sent52,sent51,sent50,sent13,sent12,sent11,sent10,sent17,sent16,sent59,sent58,sent93,sent92,sent91,sent90,sent97,sent96,sent95,sent94,sent98,sent22,sent23,sent20,sent21,sent26,sent27,sent24,sent25,sent28,sent29,sent68,sent69,sent66,sent67,sent64,sent65,sent62,sent63,sent60,sent61,sent31,sent30,sent33,sent32,sent35,sent34,sent37,sent36,sent39,sent38,sent79,sent78,sent75,sent74,sent77,sent76,sent71,sent70,sent73,sent72,sent19,sent49,sent18,sent44,sent45,sent84,sent85,sent86,sent87,sent80,sent81,sent82,sent83,sent40,sent41,sent42,sent43,sent88,sent89,sent46,sent47,intros.thisRepN,intros.thisTrialN,intros.thisN,intros.thisIndex,trials.thisRepN,trials.thisTrialN,trials.thisN,trials.thisIndex,testWords.thisRepN,testWords.thisTrialN,testWords.thisN,testWords.thisIndex,test1,test3,test2,test5,test4,test7,test6,test9,test8,test10,realTrials.thisRepN,realTrials.thisTrialN,realTrials.thisN,realTrials.thisIndex,words.thisRepN,words.thisTrialN,words.thisN,words.thisIndex,key_resp_3.keys,key_resp_3.rt,key_resp_8.keys,key_resp_8.rt,key_resp_10.keys,key_resp_10.rt,key_resp_6.keys,wordRead.keys,wordRead.rt,key_resp_5.keys,questAnswer.keys,questAnswer.rt,key_resp_6.rt,key_resp_5.rt,date,frameRate,expName,session,participant,
"Vielen Dank, dass Sie an diesem Experiment teilnehmen. Vor dem eigentlichen Experiment sehen Sie nun zuerst eine kurze Erläuterung, und Sie absolvieren ein kurze Übungsphase.

Das Experiment dauert insgesamt nicht mehr als 45 Minuten.",,,,,,,,,,,,,,,,,,,,,,,,,,,,,,,,,,,,,,,,,,,,,,,,,,,,,,,,,,,,,,,,,,,,,,,,,,,,,,,,,,,,,,,,,,,,,,,,,,,0,0,0,0,,,,,,,,,,,,,,,,,,,,,,,,,,,,,,,,,,,,,,,,,2017_Jan_26_1255,59.898861947,spr_backupper,001,Do13,
"In diesem Experiment lesen Sie deutsche Sätze, indem Sie sich von Wort zu Wort mit der Leertaste durch den Satz klicken.",,,,,,,,,,,,,,,,,,,,,,,,,,,,,,,,,,,,,,,,,,,,,,,,,,,,,,,,,,,,,,,,,,,,,,,,,,,,,,,,,,,,,,,,,,,,,,,,,,,0,1,1,1,,,,,,,,,,,,,,,,,,,,,,,,,,,,,,,,,,,,,,,,,2017_Jan_26_1255,59.898861947,spr_backupper,001,Do13,
"Sie sehen dabei immer nur das aktuelle Wort. Die Lesegeschwindigkeit bestimmen Sie vollständig selber. Vor jedem Satz sehen Sie in der Bildschirmmitte für zwei Sekunden ein + an der Stelle, an der dann die Wörter erscheinen.",,,,,,,,,,,,,,,,,,,,,,,,,,,,,,,,,,,,,,,,,,,,,,,,,,,,,,,,,,,,,,,,,,,,,,,,,,,,,,,,,,,,,,,,,,,,,,,,,,,0,2,2,2,,,,,,,,,,,,,,,,,,,,,,,,,,,,,,,,,,,,,,,,,2017_Jan_26_1255,59.898861947,spr_backupper,001,Do13,
"Nach jedem Satz wird Ihnen eine Ja/Nein-Verständnisfrage zum zuvor gelesenen Satz gestellt, die Sie mit der J-Taste für "Ja" und der N-Taste für "Nein" beantworten. Antworten Sie möglichst spontan und ohne lange Nachzudenken.",,,,,,,,,,,,,,,,,,,,,,,,,,,,,,,,,,,,,,,,,,,,,,,,,,,,,,,,,,,,,,,,,,,,,,,,,,,,,,,,,,,,,,,,,,,,,,,,,,,0,3,3,3,,,,,,,,,,,,,,,,,,,,,,,,,,,,,,,,,,,,,,,,,2017_Jan_26_1255,59.898861947,spr_backupper,001,Do13,
"Unterbrechen Sie das Experiment bitte auf keinen Fall, stellen Sie den ExperimentatorInnen nach dem Experimentbeginn keine Fragen, und lassen Sie sich nicht durch Umgebungsgeräusche ablenken.",,,,,,,,,,,,,,,,,,,,,,,,,,,,,,,,,,,,,,,,,,,,,,,,,,,,,,,,,,,,,,,,,,,,,,,,,,,,,,,,,,,,,,,,,,,,,,,,,,,0,4,4,4,,,,,,,,,,,,,,,,,,,,,,,,,,,,,,,,,,,,,,,,,2017_Jan_26_1255,59.898861947,spr_backupper,001,Do13,
"Im nächsten Schritt beantworten Sie bitte eine Frage zu Ihren Deutschkenntnissen. Danach beginnt eine Übungseinheit, mit der Sie sich an die Art der Durchführung dieses Experiments gewöhnen können.",,,,,,,,,,,,,,,,,,,,,,,,,,,,,,,,,,,,,,,,,,,,,,,,,,,,,,,,,,,,,,,,,,,,,,,,,,,,,,,,,,,,,,,,,,,,,,,,,,,0,5,5,5,,,,,,,,,,,,,,,,,,,,,,,,,,,,,,,,,,,,,,,,,2017_Jan_26_1255,59.898861947,spr_backupper,001,Do13,
,,,,,,,,,,,,,,,,,,,,,,,,,,,,,,,,,,,,,,,,,,,,,,,,,,,,,,,,,,,,,,,,,,,,,,,,,,,,,,,,,,,,,,,,,,,,,,,,,,,,,,,,,,,,,,,,,,,,,,,,,,,,,,,,,j,5.65161681175,,,,,,,,,,,,,2017_Jan_26_1255,59.898861947,spr_backupper,001,Do13,
,,,,,,,,,,,,,,,,,,,,,,,,,,,,,,,,,,,,,,,,,,,,,,,,,,,,,,,,,,,,,,,,,,,,,,,,,,,,,,,,,,,,,,,,,,,,,,,,,,,,,,,0,0,0,0,,,,,,,,,,,,,,,,,,,,,,,,,None,,,,,,,,,,,,2017_Jan_26_1255,59.898861947,spr_backupper,001,Do13,
,,,,,,,,,,,,,,,,,,,,,,,,,,,,,,,,,,,,,,,,,,,,,,,,,,,,,,,,,,,,,,,,,,,,,,,,,,,,,,,,,,,,,,,,,,,,,,,,,,,,,,,1,0,1,0,,,,,,,,,,,,,,,,,,,,,,,,,None,,,,,,,,,,,,2017_Jan_26_1255,59.898861947,spr_backupper,001,Do13,
,,,,,,,,,,,,,,,,,,,,,,,,,,,,,,,,,,,,,,,,,,,,,,,,,,,,,,,,,,,,,,,,,,,,,,,,,,,,,,,,,,,,,,,,,,,,,,,,,,,,,,,2,0,2,0,,,,,,,,,,,,,,,,,,,,,,,,,None,,,,,,,,,,,,2017_Jan_26_1255,59.898861947,spr_backupper,001,Do13,
,,,,,,,,,,,,,,,,,,,,,,,,,,,,,,,,,,,,,,,,,,,,,,,,,,,,,,,,,,,,,,,,,,,,,,,,,,,,,,,,,,,,,,,,,,,,,,,,,,,,,,,3,0,3,0,,,,,,,,,,,,,,,,,,,,,,,,,space,0.185104846954,,,,,,,,,,,2017_Jan_26_1255,59.898861947,spr_backupper,001,Do13,
,,,,,,,,,,,,,,,,,,,,,,,,,,,,,,,,,,,,,,,,,,,,,,,,,,,,,,,,,,,,,,,,,,,,,,,,,,,,,,,,,,,,,,,,,,,,,,,,,,,,,,,4,0,4,0,,,,,,,,,,,,,,,,,,,,,,,,,None,,,,,,,,,,,,2017_Jan_26_1255,59.898861947,spr_backupper,001,Do13,
,,,,,,,,,,,,,,,,,,,,,,,,,,,,,,,,,,,,,,,,,,,,,,,,,,,,,,,,,,,,,,,,,,,,,,,,,,,,,,,,,,,,,,,,,,,,,,,,,,,,,,,5,0,5,0,,,,,,,,,,,,,,,,,,,,,,,,,space,0.234692811966,,,,,,,,,,,2017_Jan_26_1255,59.898861947,spr_backupper,001,Do13,
,,,,,,,,,,,,,,,,,,,,,,,,,,,,,,,,,,,,,,,,,,,,,,,,,,,,,,,,,,,,,,,,,,,,,,,,,,,,,,,,,,,,,,,,,,,,,,,,,,,,,,,6,0,6,0,,,,,,,,,,,,,,,,,,,,,,,,,None,,,,,,,,,,,,2017_Jan_26_1255,59.898861947,spr_backupper,001,Do13,
,,,,,,,,,,,,,,,,,,,,,,,,,,,,,,,,,,,,,,,,,,,,,,,,,,,,,,,,,,,,,,,,,,,,,,,,,,,,,,,,,,,,,,,,,,,,,,,,,,,,,,,7,0,7,0,,,,,,,,,,,,,,,,,,,,,,,,,None,,,,,,,,,,,,2017_Jan_26_1255,59.898861947,spr_backupper,001,Do13,
,,,,,,,,,,,,,,,,,,,,,,,,,,,,,,,,,,,,,,,,,,,,,,,,,,,,,,,,,,,,,,,,,,,,,,,,,,,,,,,,,,,,,,,,,,,,,,,,,,,,,,,8,0,8,0,,,,,,,,,,,,,,,,,,,,,,,,,None,,,,,,,,,,,,2017_Jan_26_1255,59.898861947,spr_backupper,001,Do13,
,,,,,,,,,,,,,,,,,,,,,,,,,,,,,,,,,,,,,,,,,,,,,,,,,,,,,,,,,,,,,,,,,,,,,,,,,,,,,,,,,,,,,,,,,,,,,,,,,,,,,,,9,0,9,0,,,,,,,,,,,,,,,,,,,,,,,,,None,,,,,,,,,,,,2017_Jan_26_1255,59.898861947,spr_backupper,001,Do13,
,,,,,,,,,,,,,,,,,,,,,,,,,,,,,,,,,,,,,,,,,,,,,,,,,,,,,,,,,,,,,,,,,,,,,,,,,,,,,,,,,,,,,,,,,,,,,,,,,,,,,,,,,,,,,,,,,,,,,,,,,,,,,,,,,,,,,space,3.3039329052,,,,,,,,,2017_Jan_26_1255,59.898861947,spr_backupper,001,Do13,
,Nicht,Fernab,Die,Die,Im,Am,Die,Er,Bei,Dort,Die,Walter,Er,Jugendliche,Die,100,Das,Am,Die,Im,In,Die,Die,Wir,Als,Ihr,Ich,Bei,Es,Jungtiere,Beträchtliche,Wir,Er,Mit,Sie,Die,Wir,Sie,Ich,Sie,Es,Er,Die,Viele,Wir,Ich,Die,Außer,Es,Wir,Unter,Sie,Die,Die,Viele,Die,Sie,Er,Dass,Die,Außer,Beträchtliche,Bei,Wir,Außer,Manche,Sie,Die,Wir,In,Dort,Bei,In,In,Man,Alle,Wir,In,Man,Sie,Danach,Es,In,Jetzt,Die,Die,Es,Die,Außer,Der,100,Wir,In,In,Die,Nicht,Mit,Die,,,,,,,,,,,,,,,,,,,,,,,0,0,0,0,0,0,0,0,,,,,,,None,space,0.863521099091,,,,,,2017_Jan_26_1255,59.898861947,spr_backupper,001,Do13,
,ein,des,Schule,Autos,Fernrohr,äußeren,Formen,stellt,der,türmen,Gäste,Scheel,stellt,können,Kinder,g,Tuch,äußersten,Teilnehmerinnen,Fernrohr,der,Schuhe,Lösung,übergaben,die,Blutdruck,nehme,der,waren,sollten,Stücke,übergaben,wurde,dieser,verlassen,"Uhr,",konnten,verlassen,nehme,verbrauchen,waren,hat,Linie,Tonnen,hatten,wurde,Uhr,dem,wurden,haben,keinen,hatte,Schule,Autos,Tonnen,Gäste,verbrauchen,wurde,es,Kinder,das,Stücke,unserer,mussten,dem,Kreditnehmer,haben,Eislaufbahnen,hatten,meinem,türmen,unserer,einer,der,machte,Betten,mussten,den,machte,hatte,wurde,wurden,den,ist,Stücke,Uhr,hat,müden,den,Flug,g,haben,diesem,meinem,Schuhe,ein,dieser,Uhr,,,,,,,,,,,,,,,,,,,,,,,0,0,0,0,0,1,1,1,,,,,,,,space,0.403098106384,,,,,,2017_Jan_26_1255,59.898861947,spr_backupper,001,Do13,
,Tropfen,Rummels,verbraucht,beider,sahen,Rand,wurden,die,Feier,sich,suchen,war,die,Kleidung,fuhren,brauner,wurde,Rand,wussten,sahen,Tat,in,wird,dem,Sonne,kann,eine,Feier,nur,immer,saftiges,das,trotz,Methode,wegen,die,dann,wegen,eine,60,nur,ein,101,gebrauchter,in,damals,war,Essen,Eimer,jede,Umständen,keine,verbraucht,beider,gebrauchte,suchen,60,trotz,"regnete,",fuhren,Essen,saftigen,Ankunft,uns,Bürgermeister,sind,die,wurden,in,Studium,sich,Ankunft,Studie,Tat,mal,wurden,uns,Kakao,mal,keine,die,Eimer,Kakao,genau,wurden,schlug,uns,Teilnehmer,Bürgermeister,zum,braunen,jede,Zirkus,Studium,in,Tropfen,Methode,schlug,,,,,,,,,,,,,,,,,,,,,,,0,0,0,0,0,2,2,2,,,,,,,,space,0.33123588562,,,,,,2017_Jan_26_1255,59.898861947,spr_backupper,001,Do13,
,königliches,wurde,260.000,beteiligter,wir,der,unter,Masse,gedachte,Berge,die,der,Masse,bei,mit,Zucker,dann,der,überwiegend,wir,wissen,Größe,mit,Mann,"unterging,",schon,große,gedachte,kleinere,auf,Fleisch,Auto,des,kann,des,er,mit,dem,große,Liter,kleinere,Hemd,hält,Kleidung,Dänemark,schnell,aus,kann,roter,Menge,können,Lust,260.000,beteiligten,Kleidung,die,Liter,dem,hat,mit,kann,Fleischs,stand,durch,beschuldigten,mit,Erlebnisse,mit,Dänemark,habe,Berge,stand,wurde,wissen,wieder,mit,durch,gehören,wieder,Lust,Leinwand,rote,gehören,die,aus,"sporadisch,",die,wurden,beschuldigten,Mond,Zuckers,Menge,werden,las,Größe,königlichen,kann,"sporadisch,",,,,,,,,,,,,,,,,,,,,,,,0,0,0,0,0,3,3,3,,,,,,,,space,0.274454116821,,,,,,2017_Jan_26_1255,59.898861947,spr_backupper,001,Do13,
,Blut,schon,Kilowattstunden,Fahrer,den,Stadt,"regelmäßigem,",mit,man,schmutzige,Wohnung,vierte,mit,ausreichendem,solchen,sind,mit,Stadt,"nicht,",den,wir,36,"reichlichem,",das,war,bei,Packung,man,"Delikte,",warmem,wurden,dem,bekannten,man,schönen,"trug,","minimalem,",schönen,Packung,sprudelndes,"Delikte,",aus,nicht,landen,gelegentlich,dank,"Japan,",ich,Farbe,alten,Neuwahlen,auf,Kilowattstunden,Fahrer,landen,Wohnung,sprudelnden,bekannten,uns,solch,ich,wurden,ein,Büschel,die,"sämtlichem,",bei,dauerhaftem,einen,ich,schmutziger,ein,jetzt,wir,viel,"üblichem,",Büschel,immer,viel,auf,aus,Farbe,immer,richtige,"wertvollem,",obwohl,Stimmung,mit,die,dauerte,sind,alten,die,ich,36,Bluts,man,obschon,,,,,,,,,,,,,,,,,,,,,,,0,0,0,0,0,4,4,4,,,,,,,,space,0.392173051834,,,,,,2017_Jan_26_1255,59.898861947,spr_backupper,001,Do13,
,hat,immer,elektrischer,wurden,roten,liegen,kaltem,einem,den,Wäsche.,des,Bundespräsident.,einem,monatlichem,unzureichenden,auf,"reichem,",liegen,was,roten,um,hätten,purem,Auto,die,minimalem,salziger,der,derer,weichem,serviert.,Mann,Skandals,eine,Wetters,war,sauberen,Wetter,salzige,Trinkwasser.,deren,feinem,am,im,einen,täglichem,die,leider,geschleudert.,Kram,vor,noch,elektrische,wurden,im,des,Trinkwassers.,Skandal,die,unzureichenden,leider,serviert.,Glas,frischen,Störenfriede,künftigem,"frischem,",feinem,gelegentlichen,mehr,Wäsche.,Glas,"nachgewiesen,",von,Lärm,harten,frisches,350,Lärm,noch,seltenem,geschleudert.,350,"Zeit,",klassischen,sie,ziemlich,zusätzlichem,Störenfriede,ungefähr,auf,Krams,Tiere,mehr,würden,hat,eine,sie,,,,,,,,,,,,,,,,,,,,,,,0,0,0,0,0,5,5,5,,,,,,,,space,0.450535058975,,,,,,2017_Jan_26_1255,59.898861947,spr_backupper,001,Do13,
,den,ruhig,Energie.,verschrottet.,Planet,die,Abduschen,Esslöffel,Soldaten,nan,Herrn,nan,Esslöffel,Taschengeld,Helmen,jeden,goldenen,die,Tupperware,Planeten,die,seiner,Alkohol,mehr,Flut,täglichen,Wurst,Soldaten,sie,Untergrund,nan,mehr,wiedergewählt.,große,die,aus,Kraftstoff,die,Wurst,nan,sie,dichten,Hauptbahnhof.,Müll.,Besucher.,grünen,er,nichts,nan,aus,Dezember,eine,Energie.,verschrottet.,Müll.,Herrn,nan,wiedergewählt.,Stimmung,Helmen,nichts,nan,köstlicher,Grases,jeden.,Einkommen,kaltem,Kunsteis,Besucher.,als,nan,köstlichen,dass,den,um,Schaumstoff,Gras,ml,um,eine,dichten,nan,ml,um,Schmuck,defekt,"vermiest,",schwarzem,jeden.,drei,jeden,aus,artgerecht,als,seiner,den,große,defekt,,,,,,,,,,,,,,,,,,,,,,,0,0,0,0,0,6,6,6,,,,,,,,space,0.520567893982,,,,,,2017_Jan_26_1255,59.898861947,spr_backupper,001,Do13,
,Boden,diskutiert.,nan,nan,ganz,Slums.,gehärtet.,warmem,des,nan,Gantenbein.,nan,warmen,selber,zur,Fall,Besatz,Slums.,ist.,ganz,Probleme,Frau,verdünnt.,als,zurückgekehrt.,Einsatz,mit,des,überführt,liegen.,nan,als,nan,Menge,Wohnung.,Japan.,fahren.,Wohnung.,mit,nan,überführt,Stoff,nan,nan,nan,Tee,trug.,mitbringen.,nan,dem,stattfinden.,Sammlung,nan,nan,nan,Gantenbeins.,nan,nan,ziemlich,zur,mitbringen.,nan,Wein,zwängen.,nan,haftbar.,Saft,eingesprüht.,nan,einmal,nan,Weins,das,Problemen,jede,gefertigt.,zwängen.,warmer,jede,Sammlung,Gewebe,nan,warme,Nadelhölzer,umgearbeitet.,war.,dass,Kaffee,nan,Tage.,Fall,dem,gehalten.,einmal,Frau,Boden,Menge,war.,,,,,,,,,,,,,,,,,,,,,,,0,0,0,0,0,7,7,7,,,,,,,,space,0.442921876907,,,,,,2017_Jan_26_1255,59.898861947,spr_backupper,001,Do13,
,,,,,,,,,,,,,,,,,,,,,,,,,,,,,,,,,,,,,,,,,,,,,,,,,,,,,,,,,,,,,,,,,,,,,,,,,,,,,,,,,,,,,,,,,,,,,,,,,,,,,,,,,,,,,,,,,,,,,,,,,0,0,0,0,,,,,,,,,,,,,,None,n,1.83865308762,,,2017_Jan_26_1255,59.898861947,spr_backupper,001,Do13,
,Nicht,Fernab,Die,Die,Im,Am,Die,Er,Bei,Dort,Die,Walter,Er,Jugendliche,Die,100,Das,Am,Die,Im,In,Die,Die,Wir,Als,Ihr,Ich,Bei,Es,Jungtiere,Beträchtliche,Wir,Er,Mit,Sie,Die,Wir,Sie,Ich,Sie,Es,Er,Die,Viele,Wir,Ich,Die,Außer,Es,Wir,Unter,Sie,Die,Die,Viele,Die,Sie,Er,Dass,Die,Außer,Beträchtliche,Bei,Wir,Außer,Manche,Sie,Die,Wir,In,Dort,Bei,In,In,Man,Alle,Wir,In,Man,Sie,Danach,Es,In,Jetzt,Die,Die,Es,Die,Außer,Der,100,Wir,In,In,Die,Nicht,Mit,Die,,,,,,,,,,,,,,,,,,,,,,,1,0,1,0,0,0,0,0,,,,,,,None,space,0.52152299881,,,,,,2017_Jan_26_1255,59.898861947,spr_backupper,001,Do13,
,ein,des,Schule,Autos,Fernrohr,äußeren,Formen,stellt,der,türmen,Gäste,Scheel,stellt,können,Kinder,g,Tuch,äußersten,Teilnehmerinnen,Fernrohr,der,Schuhe,Lösung,übergaben,die,Blutdruck,nehme,der,waren,sollten,Stücke,übergaben,wurde,dieser,verlassen,"Uhr,",konnten,verlassen,nehme,verbrauchen,waren,hat,Linie,Tonnen,hatten,wurde,Uhr,dem,wurden,haben,keinen,hatte,Schule,Autos,Tonnen,Gäste,verbrauchen,wurde,es,Kinder,das,Stücke,unserer,mussten,dem,Kreditnehmer,haben,Eislaufbahnen,hatten,meinem,türmen,unserer,einer,der,machte,Betten,mussten,den,machte,hatte,wurde,wurden,den,ist,Stücke,Uhr,hat,müden,den,Flug,g,haben,diesem,meinem,Schuhe,ein,dieser,Uhr,,,,,,,,,,,,,,,,,,,,,,,1,0,1,0,0,1,1,1,,,,,,,,space,0.308333873749,,,,,,2017_Jan_26_1255,59.898861947,spr_backupper,001,Do13,
,Tropfen,Rummels,verbraucht,beider,sahen,Rand,wurden,die,Feier,sich,suchen,war,die,Kleidung,fuhren,brauner,wurde,Rand,wussten,sahen,Tat,in,wird,dem,Sonne,kann,eine,Feier,nur,immer,saftiges,das,trotz,Methode,wegen,die,dann,wegen,eine,60,nur,ein,101,gebrauchter,in,damals,war,Essen,Eimer,jede,Umständen,keine,verbraucht,beider,gebrauchte,suchen,60,trotz,"regnete,",fuhren,Essen,saftigen,Ankunft,uns,Bürgermeister,sind,die,wurden,in,Studium,sich,Ankunft,Studie,Tat,mal,wurden,uns,Kakao,mal,keine,die,Eimer,Kakao,genau,wurden,schlug,uns,Teilnehmer,Bürgermeister,zum,braunen,jede,Zirkus,Studium,in,Tropfen,Methode,schlug,,,,,,,,,,,,,,,,,,,,,,,1,0,1,0,0,2,2,2,,,,,,,,space,0.235211133957,,,,,,2017_Jan_26_1255,59.898861947,spr_backupper,001,Do13,
,königliches,wurde,260.000,beteiligter,wir,der,unter,Masse,gedachte,Berge,die,der,Masse,bei,mit,Zucker,dann,der,überwiegend,wir,wissen,Größe,mit,Mann,"unterging,",schon,große,gedachte,kleinere,auf,Fleisch,Auto,des,kann,des,er,mit,dem,große,Liter,kleinere,Hemd,hält,Kleidung,Dänemark,schnell,aus,kann,roter,Menge,können,Lust,260.000,beteiligten,Kleidung,die,Liter,dem,hat,mit,kann,Fleischs,stand,durch,beschuldigten,mit,Erlebnisse,mit,Dänemark,habe,Berge,stand,wurde,wissen,wieder,mit,durch,gehören,wieder,Lust,Leinwand,rote,gehören,die,aus,"sporadisch,",die,wurden,beschuldigten,Mond,Zuckers,Menge,werden,las,Größe,königlichen,kann,"sporadisch,",,,,,,,,,,,,,,,,,,,,,,,1,0,1,0,0,3,3,3,,,,,,,,space,0.284064054489,,,,,,2017_Jan_26_1255,59.898861947,spr_backupper,001,Do13,
,Blut,schon,Kilowattstunden,Fahrer,den,Stadt,"regelmäßigem,",mit,man,schmutzige,Wohnung,vierte,mit,ausreichendem,solchen,sind,mit,Stadt,"nicht,",den,wir,36,"reichlichem,",das,war,bei,Packung,man,"Delikte,",warmem,wurden,dem,bekannten,man,schönen,"trug,","minimalem,",schönen,Packung,sprudelndes,"Delikte,",aus,nicht,landen,gelegentlich,dank,"Japan,",ich,Farbe,alten,Neuwahlen,auf,Kilowattstunden,Fahrer,landen,Wohnung,sprudelnden,bekannten,uns,solch,ich,wurden,ein,Büschel,die,"sämtlichem,",bei,dauerhaftem,einen,ich,schmutziger,ein,jetzt,wir,viel,"üblichem,",Büschel,immer,viel,auf,aus,Farbe,immer,richtige,"wertvollem,",obwohl,Stimmung,mit,die,dauerte,sind,alten,die,ich,36,Bluts,man,obschon,,,,,,,,,,,,,,,,,,,,,,,1,0,1,0,0,4,4,4,,,,,,,,space,0.236037015915,,,,,,2017_Jan_26_1255,59.898861947,spr_backupper,001,Do13,
,hat,immer,elektrischer,wurden,roten,liegen,kaltem,einem,den,Wäsche.,des,Bundespräsident.,einem,monatlichem,unzureichenden,auf,"reichem,",liegen,was,roten,um,hätten,purem,Auto,die,minimalem,salziger,der,derer,weichem,serviert.,Mann,Skandals,eine,Wetters,war,sauberen,Wetter,salzige,Trinkwasser.,deren,feinem,am,im,einen,täglichem,die,leider,geschleudert.,Kram,vor,noch,elektrische,wurden,im,des,Trinkwassers.,Skandal,die,unzureichenden,leider,serviert.,Glas,frischen,Störenfriede,künftigem,"frischem,",feinem,gelegentlichen,mehr,Wäsche.,Glas,"nachgewiesen,",von,Lärm,harten,frisches,350,Lärm,noch,seltenem,geschleudert.,350,"Zeit,",klassischen,sie,ziemlich,zusätzlichem,Störenfriede,ungefähr,auf,Krams,Tiere,mehr,würden,hat,eine,sie,,,,,,,,,,,,,,,,,,,,,,,1,0,1,0,0,5,5,5,,,,,,,,space,0.240463972092,,,,,,2017_Jan_26_1255,59.898861947,spr_backupper,001,Do13,
,den,ruhig,Energie.,verschrottet.,Planet,die,Abduschen,Esslöffel,Soldaten,nan,Herrn,nan,Esslöffel,Taschengeld,Helmen,jeden,goldenen,die,Tupperware,Planeten,die,seiner,Alkohol,mehr,Flut,täglichen,Wurst,Soldaten,sie,Untergrund,nan,mehr,wiedergewählt.,große,die,aus,Kraftstoff,die,Wurst,nan,sie,dichten,Hauptbahnhof.,Müll.,Besucher.,grünen,er,nichts,nan,aus,Dezember,eine,Energie.,verschrottet.,Müll.,Herrn,nan,wiedergewählt.,Stimmung,Helmen,nichts,nan,köstlicher,Grases,jeden.,Einkommen,kaltem,Kunsteis,Besucher.,als,nan,köstlichen,dass,den,um,Schaumstoff,Gras,ml,um,eine,dichten,nan,ml,um,Schmuck,defekt,"vermiest,",schwarzem,jeden.,drei,jeden,aus,artgerecht,als,seiner,den,große,defekt,,,,,,,,,,,,,,,,,,,,,,,1,0,1,0,0,6,6,6,,,,,,,,space,0.21462392807,,,,,,2017_Jan_26_1255,59.898861947,spr_backupper,001,Do13,
,Boden,diskutiert.,nan,nan,ganz,Slums.,gehärtet.,warmem,des,nan,Gantenbein.,nan,warmen,selber,zur,Fall,Besatz,Slums.,ist.,ganz,Probleme,Frau,verdünnt.,als,zurückgekehrt.,Einsatz,mit,des,überführt,liegen.,nan,als,nan,Menge,Wohnung.,Japan.,fahren.,Wohnung.,mit,nan,überführt,Stoff,nan,nan,nan,Tee,trug.,mitbringen.,nan,dem,stattfinden.,Sammlung,nan,nan,nan,Gantenbeins.,nan,nan,ziemlich,zur,mitbringen.,nan,Wein,zwängen.,nan,haftbar.,Saft,eingesprüht.,nan,einmal,nan,Weins,das,Problemen,jede,gefertigt.,zwängen.,warmer,jede,Sammlung,Gewebe,nan,warme,Nadelhölzer,umgearbeitet.,war.,dass,Kaffee,nan,Tage.,Fall,dem,gehalten.,einmal,Frau,Boden,Menge,war.,,,,,,,,,,,,,,,,,,,,,,,1,0,1,0,0,7,7,7,,,,,,,,space,0.206954956055,,,,,,2017_Jan_26_1255,59.898861947,spr_backupper,001,Do13,
,,,,,,,,,,,,,,,,,,,,,,,,,,,,,,,,,,,,,,,,,,,,,,,,,,,,,,,,,,,,,,,,,,,,,,,,,,,,,,,,,,,,,,,,,,,,,,,,,,,,,,,,,,,,,,,,,,,,,,,,,1,0,1,0,,,,,,,,,,,,,,None,n,1.40306711197,,,2017_Jan_26_1255,59.898861947,spr_backupper,001,Do13,
,Nicht,Fernab,Die,Die,Im,Am,Die,Er,Bei,Dort,Die,Walter,Er,Jugendliche,Die,100,Das,Am,Die,Im,In,Die,Die,Wir,Als,Ihr,Ich,Bei,Es,Jungtiere,Beträchtliche,Wir,Er,Mit,Sie,Die,Wir,Sie,Ich,Sie,Es,Er,Die,Viele,Wir,Ich,Die,Außer,Es,Wir,Unter,Sie,Die,Die,Viele,Die,Sie,Er,Dass,Die,Außer,Beträchtliche,Bei,Wir,Außer,Manche,Sie,Die,Wir,In,Dort,Bei,In,In,Man,Alle,Wir,In,Man,Sie,Danach,Es,In,Jetzt,Die,Die,Es,Die,Außer,Der,100,Wir,In,In,Die,Nicht,Mit,Die,,,,,,,,,,,,,,,,,,,,,,,2,0,2,0,0,0,0,0,,,,,,,space,space,0.450286149979,,,,0.636708021164,,2017_Jan_26_1255,59.898861947,spr_backupper,001,Do13,
,ein,des,Schule,Autos,Fernrohr,äußeren,Formen,stellt,der,türmen,Gäste,Scheel,stellt,können,Kinder,g,Tuch,äußersten,Teilnehmerinnen,Fernrohr,der,Schuhe,Lösung,übergaben,die,Blutdruck,nehme,der,waren,sollten,Stücke,übergaben,wurde,dieser,verlassen,"Uhr,",konnten,verlassen,nehme,verbrauchen,waren,hat,Linie,Tonnen,hatten,wurde,Uhr,dem,wurden,haben,keinen,hatte,Schule,Autos,Tonnen,Gäste,verbrauchen,wurde,es,Kinder,das,Stücke,unserer,mussten,dem,Kreditnehmer,haben,Eislaufbahnen,hatten,meinem,türmen,unserer,einer,der,machte,Betten,mussten,den,machte,hatte,wurde,wurden,den,ist,Stücke,Uhr,hat,müden,den,Flug,g,haben,diesem,meinem,Schuhe,ein,dieser,Uhr,,,,,,,,,,,,,,,,,,,,,,,2,0,2,0,0,1,1,1,,,,,,,,space,0.255264043808,,,,,,2017_Jan_26_1255,59.898861947,spr_backupper,001,Do13,
,Tropfen,Rummels,verbraucht,beider,sahen,Rand,wurden,die,Feier,sich,suchen,war,die,Kleidung,fuhren,brauner,wurde,Rand,wussten,sahen,Tat,in,wird,dem,Sonne,kann,eine,Feier,nur,immer,saftiges,das,trotz,Methode,wegen,die,dann,wegen,eine,60,nur,ein,101,gebrauchter,in,damals,war,Essen,Eimer,jede,Umständen,keine,verbraucht,beider,gebrauchte,suchen,60,trotz,"regnete,",fuhren,Essen,saftigen,Ankunft,uns,Bürgermeister,sind,die,wurden,in,Studium,sich,Ankunft,Studie,Tat,mal,wurden,uns,Kakao,mal,keine,die,Eimer,Kakao,genau,wurden,schlug,uns,Teilnehmer,Bürgermeister,zum,braunen,jede,Zirkus,Studium,in,Tropfen,Methode,schlug,,,,,,,,,,,,,,,,,,,,,,,2,0,2,0,0,2,2,2,,,,,,,,space,0.217335939407,,,,,,2017_Jan_26_1255,59.898861947,spr_backupper,001,Do13,
,königliches,wurde,260.000,beteiligter,wir,der,unter,Masse,gedachte,Berge,die,der,Masse,bei,mit,Zucker,dann,der,überwiegend,wir,wissen,Größe,mit,Mann,"unterging,",schon,große,gedachte,kleinere,auf,Fleisch,Auto,des,kann,des,er,mit,dem,große,Liter,kleinere,Hemd,hält,Kleidung,Dänemark,schnell,aus,kann,roter,Menge,können,Lust,260.000,beteiligten,Kleidung,die,Liter,dem,hat,mit,kann,Fleischs,stand,durch,beschuldigten,mit,Erlebnisse,mit,Dänemark,habe,Berge,stand,wurde,wissen,wieder,mit,durch,gehören,wieder,Lust,Leinwand,rote,gehören,die,aus,"sporadisch,",die,wurden,beschuldigten,Mond,Zuckers,Menge,werden,las,Größe,königlichen,kann,"sporadisch,",,,,,,,,,,,,,,,,,,,,,,,2,0,2,0,0,3,3,3,,,,,,,,space,0.26936507225,,,,,,2017_Jan_26_1255,59.898861947,spr_backupper,001,Do13,
,Blut,schon,Kilowattstunden,Fahrer,den,Stadt,"regelmäßigem,",mit,man,schmutzige,Wohnung,vierte,mit,ausreichendem,solchen,sind,mit,Stadt,"nicht,",den,wir,36,"reichlichem,",das,war,bei,Packung,man,"Delikte,",warmem,wurden,dem,bekannten,man,schönen,"trug,","minimalem,",schönen,Packung,sprudelndes,"Delikte,",aus,nicht,landen,gelegentlich,dank,"Japan,",ich,Farbe,alten,Neuwahlen,auf,Kilowattstunden,Fahrer,landen,Wohnung,sprudelnden,bekannten,uns,solch,ich,wurden,ein,Büschel,die,"sämtlichem,",bei,dauerhaftem,einen,ich,schmutziger,ein,jetzt,wir,viel,"üblichem,",Büschel,immer,viel,auf,aus,Farbe,immer,richtige,"wertvollem,",obwohl,Stimmung,mit,die,dauerte,sind,alten,die,ich,36,Bluts,man,obschon,,,,,,,,,,,,,,,,,,,,,,,2,0,2,0,0,4,4,4,,,,,,,,space,0.243093013763,,,,,,2017_Jan_26_1255,59.898861947,spr_backupper,001,Do13,
,hat,immer,elektrischer,wurden,roten,liegen,kaltem,einem,den,Wäsche.,des,Bundespräsident.,einem,monatlichem,unzureichenden,auf,"reichem,",liegen,was,roten,um,hätten,purem,Auto,die,minimalem,salziger,der,derer,weichem,serviert.,Mann,Skandals,eine,Wetters,war,sauberen,Wetter,salzige,Trinkwasser.,deren,feinem,am,im,einen,täglichem,die,leider,geschleudert.,Kram,vor,noch,elektrische,wurden,im,des,Trinkwassers.,Skandal,die,unzureichenden,leider,serviert.,Glas,frischen,Störenfriede,künftigem,"frischem,",feinem,gelegentlichen,mehr,Wäsche.,Glas,"nachgewiesen,",von,Lärm,harten,frisches,350,Lärm,noch,seltenem,geschleudert.,350,"Zeit,",klassischen,sie,ziemlich,zusätzlichem,Störenfriede,ungefähr,auf,Krams,Tiere,mehr,würden,hat,eine,sie,,,,,,,,,,,,,,,,,,,,,,,2,0,2,0,0,5,5,5,,,,,,,,space,0.225833177567,,,,,,2017_Jan_26_1255,59.898861947,spr_backupper,001,Do13,
,den,ruhig,Energie.,verschrottet.,Planet,die,Abduschen,Esslöffel,Soldaten,nan,Herrn,nan,Esslöffel,Taschengeld,Helmen,jeden,goldenen,die,Tupperware,Planeten,die,seiner,Alkohol,mehr,Flut,täglichen,Wurst,Soldaten,sie,Untergrund,nan,mehr,wiedergewählt.,große,die,aus,Kraftstoff,die,Wurst,nan,sie,dichten,Hauptbahnhof.,Müll.,Besucher.,grünen,er,nichts,nan,aus,Dezember,eine,Energie.,verschrottet.,Müll.,Herrn,nan,wiedergewählt.,Stimmung,Helmen,nichts,nan,köstlicher,Grases,jeden.,Einkommen,kaltem,Kunsteis,Besucher.,als,nan,köstlichen,dass,den,um,Schaumstoff,Gras,ml,um,eine,dichten,nan,ml,um,Schmuck,defekt,"vermiest,",schwarzem,jeden.,drei,jeden,aus,artgerecht,als,seiner,den,große,defekt,,,,,,,,,,,,,,,,,,,,,,,2,0,2,0,0,6,6,6,,,,,,,,space,0.239977121353,,,,,,2017_Jan_26_1255,59.898861947,spr_backupper,001,Do13,
,Boden,diskutiert.,nan,nan,ganz,Slums.,gehärtet.,warmem,des,nan,Gantenbein.,nan,warmen,selber,zur,Fall,Besatz,Slums.,ist.,ganz,Probleme,Frau,verdünnt.,als,zurückgekehrt.,Einsatz,mit,des,überführt,liegen.,nan,als,nan,Menge,Wohnung.,Japan.,fahren.,Wohnung.,mit,nan,überführt,Stoff,nan,nan,nan,Tee,trug.,mitbringen.,nan,dem,stattfinden.,Sammlung,nan,nan,nan,Gantenbeins.,nan,nan,ziemlich,zur,mitbringen.,nan,Wein,zwängen.,nan,haftbar.,Saft,eingesprüht.,nan,einmal,nan,Weins,das,Problemen,jede,gefertigt.,zwängen.,warmer,jede,Sammlung,Gewebe,nan,warme,Nadelhölzer,umgearbeitet.,war.,dass,Kaffee,nan,Tage.,Fall,dem,gehalten.,einmal,Frau,Boden,Menge,war.,,,,,,,,,,,,,,,,,,,,,,,2,0,2,0,0,7,7,7,,,,,,,,space,0.333228111267,,,,,,2017_Jan_26_1255,59.898861947,spr_backupper,001,Do13,
,berührt.,nan,nan,nan,deutlich.,nan,nan,Honig,zweiten,nan,nan,nan,Honigs,kaufen.,Schule.,genug.,rekonstruiert.,nan,nan,deutlich.,im,gepasst.,nan,gerne.,nan,sinken.,an,zweiten,wurden.,nan,nan,gerne.,nan,dunkle,nan,nan,nan,nan,an,nan,wurden.,gefertigt.,nan,nan,nan,wieder,nan,nan,nan,Haus,nan,dumme,nan,nan,nan,nan,nan,nan,vermiest.,Schule.,nan,nan,schon,nan,nan,nan,besprochen.,nan,nan,Rilke,nan,schon,Medikament,im,Menge,nan,nan,Milch.,Menge,dummer,wiederhergestellt.,nan,Milch.,umzusetzen.,nan,nan,es,wiederbelebt.,nan,nan,genug.,Haus,nan,Rilke.,gepasst,berührt.,dunkler,nan,,,,,,,,,,,,,,,,,,,,,,,2,0,2,0,0,8,8,8,,,,,,,,space,0.244360923767,,,,,,2017_Jan_26_1255,59.898861947,spr_backupper,001,Do13,
,,,,,,,,,,,,,,,,,,,,,,,,,,,,,,,,,,,,,,,,,,,,,,,,,,,,,,,,,,,,,,,,,,,,,,,,,,,,,,,,,,,,,,,,,,,,,,,,,,,,,,,,,,,,,,,,,,,,,,,,,2,0,2,0,,,,,,,,,,,,,,None,n,1.35102891922,,,2017_Jan_26_1255,59.898861947,spr_backupper,001,Do13,
,Nicht,Fernab,Die,Die,Im,Am,Die,Er,Bei,Dort,Die,Walter,Er,Jugendliche,Die,100,Das,Am,Die,Im,In,Die,Die,Wir,Als,Ihr,Ich,Bei,Es,Jungtiere,Beträchtliche,Wir,Er,Mit,Sie,Die,Wir,Sie,Ich,Sie,Es,Er,Die,Viele,Wir,Ich,Die,Außer,Es,Wir,Unter,Sie,Die,Die,Viele,Die,Sie,Er,Dass,Die,Außer,Beträchtliche,Bei,Wir,Außer,Manche,Sie,Die,Wir,In,Dort,Bei,In,In,Man,Alle,Wir,In,Man,Sie,Danach,Es,In,Jetzt,Die,Die,Es,Die,Außer,Der,100,Wir,In,In,Die,Nicht,Mit,Die,,,,,,,,,,,,,,,,,,,,,,,3,0,3,0,0,0,0,0,,,,,,,space,space,0.584185838699,,,,1.34109115601,,2017_Jan_26_1255,59.898861947,spr_backupper,001,Do13,
,ein,des,Schule,Autos,Fernrohr,äußeren,Formen,stellt,der,türmen,Gäste,Scheel,stellt,können,Kinder,g,Tuch,äußersten,Teilnehmerinnen,Fernrohr,der,Schuhe,Lösung,übergaben,die,Blutdruck,nehme,der,waren,sollten,Stücke,übergaben,wurde,dieser,verlassen,"Uhr,",konnten,verlassen,nehme,verbrauchen,waren,hat,Linie,Tonnen,hatten,wurde,Uhr,dem,wurden,haben,keinen,hatte,Schule,Autos,Tonnen,Gäste,verbrauchen,wurde,es,Kinder,das,Stücke,unserer,mussten,dem,Kreditnehmer,haben,Eislaufbahnen,hatten,meinem,türmen,unserer,einer,der,machte,Betten,mussten,den,machte,hatte,wurde,wurden,den,ist,Stücke,Uhr,hat,müden,den,Flug,g,haben,diesem,meinem,Schuhe,ein,dieser,Uhr,,,,,,,,,,,,,,,,,,,,,,,3,0,3,0,0,1,1,1,,,,,,,,space,0.273364067078,,,,,,2017_Jan_26_1255,59.898861947,spr_backupper,001,Do13,
,Tropfen,Rummels,verbraucht,beider,sahen,Rand,wurden,die,Feier,sich,suchen,war,die,Kleidung,fuhren,brauner,wurde,Rand,wussten,sahen,Tat,in,wird,dem,Sonne,kann,eine,Feier,nur,immer,saftiges,das,trotz,Methode,wegen,die,dann,wegen,eine,60,nur,ein,101,gebrauchter,in,damals,war,Essen,Eimer,jede,Umständen,keine,verbraucht,beider,gebrauchte,suchen,60,trotz,"regnete,",fuhren,Essen,saftigen,Ankunft,uns,Bürgermeister,sind,die,wurden,in,Studium,sich,Ankunft,Studie,Tat,mal,wurden,uns,Kakao,mal,keine,die,Eimer,Kakao,genau,wurden,schlug,uns,Teilnehmer,Bürgermeister,zum,braunen,jede,Zirkus,Studium,in,Tropfen,Methode,schlug,,,,,,,,,,,,,,,,,,,,,,,3,0,3,0,0,2,2,2,,,,,,,,space,0.313822031021,,,,,,2017_Jan_26_1255,59.898861947,spr_backupper,001,Do13,
,königliches,wurde,260.000,beteiligter,wir,der,unter,Masse,gedachte,Berge,die,der,Masse,bei,mit,Zucker,dann,der,überwiegend,wir,wissen,Größe,mit,Mann,"unterging,",schon,große,gedachte,kleinere,auf,Fleisch,Auto,des,kann,des,er,mit,dem,große,Liter,kleinere,Hemd,hält,Kleidung,Dänemark,schnell,aus,kann,roter,Menge,können,Lust,260.000,beteiligten,Kleidung,die,Liter,dem,hat,mit,kann,Fleischs,stand,durch,beschuldigten,mit,Erlebnisse,mit,Dänemark,habe,Berge,stand,wurde,wissen,wieder,mit,durch,gehören,wieder,Lust,Leinwand,rote,gehören,die,aus,"sporadisch,",die,wurden,beschuldigten,Mond,Zuckers,Menge,werden,las,Größe,königlichen,kann,"sporadisch,",,,,,,,,,,,,,,,,,,,,,,,3,0,3,0,0,3,3,3,,,,,,,,space,0.28523516655,,,,,,2017_Jan_26_1255,59.898861947,spr_backupper,001,Do13,
,Blut,schon,Kilowattstunden,Fahrer,den,Stadt,"regelmäßigem,",mit,man,schmutzige,Wohnung,vierte,mit,ausreichendem,solchen,sind,mit,Stadt,"nicht,",den,wir,36,"reichlichem,",das,war,bei,Packung,man,"Delikte,",warmem,wurden,dem,bekannten,man,schönen,"trug,","minimalem,",schönen,Packung,sprudelndes,"Delikte,",aus,nicht,landen,gelegentlich,dank,"Japan,",ich,Farbe,alten,Neuwahlen,auf,Kilowattstunden,Fahrer,landen,Wohnung,sprudelnden,bekannten,uns,solch,ich,wurden,ein,Büschel,die,"sämtlichem,",bei,dauerhaftem,einen,ich,schmutziger,ein,jetzt,wir,viel,"üblichem,",Büschel,immer,viel,auf,aus,Farbe,immer,richtige,"wertvollem,",obwohl,Stimmung,mit,die,dauerte,sind,alten,die,ich,36,Bluts,man,obschon,,,,,,,,,,,,,,,,,,,,,,,3,0,3,0,0,4,4,4,,,,,,,,space,0.218200922012,,,,,,2017_Jan_26_1255,59.898861947,spr_backupper,001,Do13,
,hat,immer,elektrischer,wurden,roten,liegen,kaltem,einem,den,Wäsche.,des,Bundespräsident.,einem,monatlichem,unzureichenden,auf,"reichem,",liegen,was,roten,um,hätten,purem,Auto,die,minimalem,salziger,der,derer,weichem,serviert.,Mann,Skandals,eine,Wetters,war,sauberen,Wetter,salzige,Trinkwasser.,deren,feinem,am,im,einen,täglichem,die,leider,geschleudert.,Kram,vor,noch,elektrische,wurden,im,des,Trinkwassers.,Skandal,die,unzureichenden,leider,serviert.,Glas,frischen,Störenfriede,künftigem,"frischem,",feinem,gelegentlichen,mehr,Wäsche.,Glas,"nachgewiesen,",von,Lärm,harten,frisches,350,Lärm,noch,seltenem,geschleudert.,350,"Zeit,",klassischen,sie,ziemlich,zusätzlichem,Störenfriede,ungefähr,auf,Krams,Tiere,mehr,würden,hat,eine,sie,,,,,,,,,,,,,,,,,,,,,,,3,0,3,0,0,5,5,5,,,,,,,,space,0.219007015228,,,,,,2017_Jan_26_1255,59.898861947,spr_backupper,001,Do13,
,,,,,,,,,,,,,,,,,,,,,,,,,,,,,,,,,,,,,,,,,,,,,,,,,,,,,,,,,,,,,,,,,,,,,,,,,,,,,,,,,,,,,,,,,,,,,,,,,,,,,,,,,,,,,,,,,,,,,,,,,3,0,3,0,,,,,,,,,,,,,,None,n,2.0296599865,,,2017_Jan_26_1255,59.898861947,spr_backupper,001,Do13,
,Nicht,Fernab,Die,Die,Im,Am,Die,Er,Bei,Dort,Die,Walter,Er,Jugendliche,Die,100,Das,Am,Die,Im,In,Die,Die,Wir,Als,Ihr,Ich,Bei,Es,Jungtiere,Beträchtliche,Wir,Er,Mit,Sie,Die,Wir,Sie,Ich,Sie,Es,Er,Die,Viele,Wir,Ich,Die,Außer,Es,Wir,Unter,Sie,Die,Die,Viele,Die,Sie,Er,Dass,Die,Außer,Beträchtliche,Bei,Wir,Außer,Manche,Sie,Die,Wir,In,Dort,Bei,In,In,Man,Alle,Wir,In,Man,Sie,Danach,Es,In,Jetzt,Die,Die,Es,Die,Außer,Der,100,Wir,In,In,Die,Nicht,Mit,Die,,,,,,,,,,,,,,,,,,,,,,,4,0,4,0,0,0,0,0,,,,,,,space,space,0.73378777504,,,,0.335635900497,,2017_Jan_26_1255,59.898861947,spr_backupper,001,Do13,
,ein,des,Schule,Autos,Fernrohr,äußeren,Formen,stellt,der,türmen,Gäste,Scheel,stellt,können,Kinder,g,Tuch,äußersten,Teilnehmerinnen,Fernrohr,der,Schuhe,Lösung,übergaben,die,Blutdruck,nehme,der,waren,sollten,Stücke,übergaben,wurde,dieser,verlassen,"Uhr,",konnten,verlassen,nehme,verbrauchen,waren,hat,Linie,Tonnen,hatten,wurde,Uhr,dem,wurden,haben,keinen,hatte,Schule,Autos,Tonnen,Gäste,verbrauchen,wurde,es,Kinder,das,Stücke,unserer,mussten,dem,Kreditnehmer,haben,Eislaufbahnen,hatten,meinem,türmen,unserer,einer,der,machte,Betten,mussten,den,machte,hatte,wurde,wurden,den,ist,Stücke,Uhr,hat,müden,den,Flug,g,haben,diesem,meinem,Schuhe,ein,dieser,Uhr,,,,,,,,,,,,,,,,,,,,,,,4,0,4,0,0,1,1,1,,,,,,,,space,0.300731897354,,,,,,2017_Jan_26_1255,59.898861947,spr_backupper,001,Do13,
,Tropfen,Rummels,verbraucht,beider,sahen,Rand,wurden,die,Feier,sich,suchen,war,die,Kleidung,fuhren,brauner,wurde,Rand,wussten,sahen,Tat,in,wird,dem,Sonne,kann,eine,Feier,nur,immer,saftiges,das,trotz,Methode,wegen,die,dann,wegen,eine,60,nur,ein,101,gebrauchter,in,damals,war,Essen,Eimer,jede,Umständen,keine,verbraucht,beider,gebrauchte,suchen,60,trotz,"regnete,",fuhren,Essen,saftigen,Ankunft,uns,Bürgermeister,sind,die,wurden,in,Studium,sich,Ankunft,Studie,Tat,mal,wurden,uns,Kakao,mal,keine,die,Eimer,Kakao,genau,wurden,schlug,uns,Teilnehmer,Bürgermeister,zum,braunen,jede,Zirkus,Studium,in,Tropfen,Methode,schlug,,,,,,,,,,,,,,,,,,,,,,,4,0,4,0,0,2,2,2,,,,,,,,space,0.217122077942,,,,,,2017_Jan_26_1255,59.898861947,spr_backupper,001,Do13,
,königliches,wurde,260.000,beteiligter,wir,der,unter,Masse,gedachte,Berge,die,der,Masse,bei,mit,Zucker,dann,der,überwiegend,wir,wissen,Größe,mit,Mann,"unterging,",schon,große,gedachte,kleinere,auf,Fleisch,Auto,des,kann,des,er,mit,dem,große,Liter,kleinere,Hemd,hält,Kleidung,Dänemark,schnell,aus,kann,roter,Menge,können,Lust,260.000,beteiligten,Kleidung,die,Liter,dem,hat,mit,kann,Fleischs,stand,durch,beschuldigten,mit,Erlebnisse,mit,Dänemark,habe,Berge,stand,wurde,wissen,wieder,mit,durch,gehören,wieder,Lust,Leinwand,rote,gehören,die,aus,"sporadisch,",die,wurden,beschuldigten,Mond,Zuckers,Menge,werden,las,Größe,königlichen,kann,"sporadisch,",,,,,,,,,,,,,,,,,,,,,,,4,0,4,0,0,3,3,3,,,,,,,,space,0.185032844543,,,,,,2017_Jan_26_1255,59.898861947,spr_backupper,001,Do13,
,Blut,schon,Kilowattstunden,Fahrer,den,Stadt,"regelmäßigem,",mit,man,schmutzige,Wohnung,vierte,mit,ausreichendem,solchen,sind,mit,Stadt,"nicht,",den,wir,36,"reichlichem,",das,war,bei,Packung,man,"Delikte,",warmem,wurden,dem,bekannten,man,schönen,"trug,","minimalem,",schönen,Packung,sprudelndes,"Delikte,",aus,nicht,landen,gelegentlich,dank,"Japan,",ich,Farbe,alten,Neuwahlen,auf,Kilowattstunden,Fahrer,landen,Wohnung,sprudelnden,bekannten,uns,solch,ich,wurden,ein,Büschel,die,"sämtlichem,",bei,dauerhaftem,einen,ich,schmutziger,ein,jetzt,wir,viel,"üblichem,",Büschel,immer,viel,auf,aus,Farbe,immer,richtige,"wertvollem,",obwohl,Stimmung,mit,die,dauerte,sind,alten,die,ich,36,Bluts,man,obschon,,,,,,,,,,,,,,,,,,,,,,,4,0,4,0,0,4,4,4,,,,,,,,space,0.15654706955,,,,,,2017_Jan_26_1255,59.898861947,spr_backupper,001,Do13,
,hat,immer,elektrischer,wurden,roten,liegen,kaltem,einem,den,Wäsche.,des,Bundespräsident.,einem,monatlichem,unzureichenden,auf,"reichem,",liegen,was,roten,um,hätten,purem,Auto,die,minimalem,salziger,der,derer,weichem,serviert.,Mann,Skandals,eine,Wetters,war,sauberen,Wetter,salzige,Trinkwasser.,deren,feinem,am,im,einen,täglichem,die,leider,geschleudert.,Kram,vor,noch,elektrische,wurden,im,des,Trinkwassers.,Skandal,die,unzureichenden,leider,serviert.,Glas,frischen,Störenfriede,künftigem,"frischem,",feinem,gelegentlichen,mehr,Wäsche.,Glas,"nachgewiesen,",von,Lärm,harten,frisches,350,Lärm,noch,seltenem,geschleudert.,350,"Zeit,",klassischen,sie,ziemlich,zusätzlichem,Störenfriede,ungefähr,auf,Krams,Tiere,mehr,würden,hat,eine,sie,,,,,,,,,,,,,,,,,,,,,,,4,0,4,0,0,5,5,5,,,,,,,,space,0.453145980835,,,,,,2017_Jan_26_1255,59.898861947,spr_backupper,001,Do13,
,den,ruhig,Energie.,verschrottet.,Planet,die,Abduschen,Esslöffel,Soldaten,nan,Herrn,nan,Esslöffel,Taschengeld,Helmen,jeden,goldenen,die,Tupperware,Planeten,die,seiner,Alkohol,mehr,Flut,täglichen,Wurst,Soldaten,sie,Untergrund,nan,mehr,wiedergewählt.,große,die,aus,Kraftstoff,die,Wurst,nan,sie,dichten,Hauptbahnhof.,Müll.,Besucher.,grünen,er,nichts,nan,aus,Dezember,eine,Energie.,verschrottet.,Müll.,Herrn,nan,wiedergewählt.,Stimmung,Helmen,nichts,nan,köstlicher,Grases,jeden.,Einkommen,kaltem,Kunsteis,Besucher.,als,nan,köstlichen,dass,den,um,Schaumstoff,Gras,ml,um,eine,dichten,nan,ml,um,Schmuck,defekt,"vermiest,",schwarzem,jeden.,drei,jeden,aus,artgerecht,als,seiner,den,große,defekt,,,,,,,,,,,,,,,,,,,,,,,4,0,4,0,0,6,6,6,,,,,,,,space,0.184998035431,,,,,,2017_Jan_26_1255,59.898861947,spr_backupper,001,Do13,
,Boden,diskutiert.,nan,nan,ganz,Slums.,gehärtet.,warmem,des,nan,Gantenbein.,nan,warmen,selber,zur,Fall,Besatz,Slums.,ist.,ganz,Probleme,Frau,verdünnt.,als,zurückgekehrt.,Einsatz,mit,des,überführt,liegen.,nan,als,nan,Menge,Wohnung.,Japan.,fahren.,Wohnung.,mit,nan,überführt,Stoff,nan,nan,nan,Tee,trug.,mitbringen.,nan,dem,stattfinden.,Sammlung,nan,nan,nan,Gantenbeins.,nan,nan,ziemlich,zur,mitbringen.,nan,Wein,zwängen.,nan,haftbar.,Saft,eingesprüht.,nan,einmal,nan,Weins,das,Problemen,jede,gefertigt.,zwängen.,warmer,jede,Sammlung,Gewebe,nan,warme,Nadelhölzer,umgearbeitet.,war.,dass,Kaffee,nan,Tage.,Fall,dem,gehalten.,einmal,Frau,Boden,Menge,war.,,,,,,,,,,,,,,,,,,,,,,,4,0,4,0,0,7,7,7,,,,,,,,space,0.161831855774,,,,,,2017_Jan_26_1255,59.898861947,spr_backupper,001,Do13,
,,,,,,,,,,,,,,,,,,,,,,,,,,,,,,,,,,,,,,,,,,,,,,,,,,,,,,,,,,,,,,,,,,,,,,,,,,,,,,,,,,,,,,,,,,,,,,,,,,,,,,,,,,,,,,,,,,,,,,,,,4,0,4,0,,,,,,,,,,,,,,None,j,2.15395689011,,,2017_Jan_26_1255,59.898861947,spr_backupper,001,Do13,
,Nicht,Fernab,Die,Die,Im,Am,Die,Er,Bei,Dort,Die,Walter,Er,Jugendliche,Die,100,Das,Am,Die,Im,In,Die,Die,Wir,Als,Ihr,Ich,Bei,Es,Jungtiere,Beträchtliche,Wir,Er,Mit,Sie,Die,Wir,Sie,Ich,Sie,Es,Er,Die,Viele,Wir,Ich,Die,Außer,Es,Wir,Unter,Sie,Die,Die,Viele,Die,Sie,Er,Dass,Die,Außer,Beträchtliche,Bei,Wir,Außer,Manche,Sie,Die,Wir,In,Dort,Bei,In,In,Man,Alle,Wir,In,Man,Sie,Danach,Es,In,Jetzt,Die,Die,Es,Die,Außer,Der,100,Wir,In,In,Die,Nicht,Mit,Die,,,,,,,,,,,,,,,,,,,,,,,5,0,5,0,0,0,0,0,,,,,,,space,space,0.55313205719,,,,1.25861692429,,2017_Jan_26_1255,59.898861947,spr_backupper,001,Do13,
,ein,des,Schule,Autos,Fernrohr,äußeren,Formen,stellt,der,türmen,Gäste,Scheel,stellt,können,Kinder,g,Tuch,äußersten,Teilnehmerinnen,Fernrohr,der,Schuhe,Lösung,übergaben,die,Blutdruck,nehme,der,waren,sollten,Stücke,übergaben,wurde,dieser,verlassen,"Uhr,",konnten,verlassen,nehme,verbrauchen,waren,hat,Linie,Tonnen,hatten,wurde,Uhr,dem,wurden,haben,keinen,hatte,Schule,Autos,Tonnen,Gäste,verbrauchen,wurde,es,Kinder,das,Stücke,unserer,mussten,dem,Kreditnehmer,haben,Eislaufbahnen,hatten,meinem,türmen,unserer,einer,der,machte,Betten,mussten,den,machte,hatte,wurde,wurden,den,ist,Stücke,Uhr,hat,müden,den,Flug,g,haben,diesem,meinem,Schuhe,ein,dieser,Uhr,,,,,,,,,,,,,,,,,,,,,,,5,0,5,0,0,1,1,1,,,,,,,,space,0.290028095245,,,,,,2017_Jan_26_1255,59.898861947,spr_backupper,001,Do13,
,Tropfen,Rummels,verbraucht,beider,sahen,Rand,wurden,die,Feier,sich,suchen,war,die,Kleidung,fuhren,brauner,wurde,Rand,wussten,sahen,Tat,in,wird,dem,Sonne,kann,eine,Feier,nur,immer,saftiges,das,trotz,Methode,wegen,die,dann,wegen,eine,60,nur,ein,101,gebrauchter,in,damals,war,Essen,Eimer,jede,Umständen,keine,verbraucht,beider,gebrauchte,suchen,60,trotz,"regnete,",fuhren,Essen,saftigen,Ankunft,uns,Bürgermeister,sind,die,wurden,in,Studium,sich,Ankunft,Studie,Tat,mal,wurden,uns,Kakao,mal,keine,die,Eimer,Kakao,genau,wurden,schlug,uns,Teilnehmer,Bürgermeister,zum,braunen,jede,Zirkus,Studium,in,Tropfen,Methode,schlug,,,,,,,,,,,,,,,,,,,,,,,5,0,5,0,0,2,2,2,,,,,,,,space,0.31886100769,,,,,,2017_Jan_26_1255,59.898861947,spr_backupper,001,Do13,
,königliches,wurde,260.000,beteiligter,wir,der,unter,Masse,gedachte,Berge,die,der,Masse,bei,mit,Zucker,dann,der,überwiegend,wir,wissen,Größe,mit,Mann,"unterging,",schon,große,gedachte,kleinere,auf,Fleisch,Auto,des,kann,des,er,mit,dem,große,Liter,kleinere,Hemd,hält,Kleidung,Dänemark,schnell,aus,kann,roter,Menge,können,Lust,260.000,beteiligten,Kleidung,die,Liter,dem,hat,mit,kann,Fleischs,stand,durch,beschuldigten,mit,Erlebnisse,mit,Dänemark,habe,Berge,stand,wurde,wissen,wieder,mit,durch,gehören,wieder,Lust,Leinwand,rote,gehören,die,aus,"sporadisch,",die,wurden,beschuldigten,Mond,Zuckers,Menge,werden,las,Größe,königlichen,kann,"sporadisch,",,,,,,,,,,,,,,,,,,,,,,,5,0,5,0,0,3,3,3,,,,,,,,space,0.201653003693,,,,,,2017_Jan_26_1255,59.898861947,spr_backupper,001,Do13,
,Blut,schon,Kilowattstunden,Fahrer,den,Stadt,"regelmäßigem,",mit,man,schmutzige,Wohnung,vierte,mit,ausreichendem,solchen,sind,mit,Stadt,"nicht,",den,wir,36,"reichlichem,",das,war,bei,Packung,man,"Delikte,",warmem,wurden,dem,bekannten,man,schönen,"trug,","minimalem,",schönen,Packung,sprudelndes,"Delikte,",aus,nicht,landen,gelegentlich,dank,"Japan,",ich,Farbe,alten,Neuwahlen,auf,Kilowattstunden,Fahrer,landen,Wohnung,sprudelnden,bekannten,uns,solch,ich,wurden,ein,Büschel,die,"sämtlichem,",bei,dauerhaftem,einen,ich,schmutziger,ein,jetzt,wir,viel,"üblichem,",Büschel,immer,viel,auf,aus,Farbe,immer,richtige,"wertvollem,",obwohl,Stimmung,mit,die,dauerte,sind,alten,die,ich,36,Bluts,man,obschon,,,,,,,,,,,,,,,,,,,,,,,5,0,5,0,0,4,4,4,,,,,,,,space,0.161339044571,,,,,,2017_Jan_26_1255,59.898861947,spr_backupper,001,Do13,
,hat,immer,elektrischer,wurden,roten,liegen,kaltem,einem,den,Wäsche.,des,Bundespräsident.,einem,monatlichem,unzureichenden,auf,"reichem,",liegen,was,roten,um,hätten,purem,Auto,die,minimalem,salziger,der,derer,weichem,serviert.,Mann,Skandals,eine,Wetters,war,sauberen,Wetter,salzige,Trinkwasser.,deren,feinem,am,im,einen,täglichem,die,leider,geschleudert.,Kram,vor,noch,elektrische,wurden,im,des,Trinkwassers.,Skandal,die,unzureichenden,leider,serviert.,Glas,frischen,Störenfriede,künftigem,"frischem,",feinem,gelegentlichen,mehr,Wäsche.,Glas,"nachgewiesen,",von,Lärm,harten,frisches,350,Lärm,noch,seltenem,geschleudert.,350,"Zeit,",klassischen,sie,ziemlich,zusätzlichem,Störenfriede,ungefähr,auf,Krams,Tiere,mehr,würden,hat,eine,sie,,,,,,,,,,,,,,,,,,,,,,,5,0,5,0,0,5,5,5,,,,,,,,space,0.212527036667,,,,,,2017_Jan_26_1255,59.898861947,spr_backupper,001,Do13,
,,,,,,,,,,,,,,,,,,,,,,,,,,,,,,,,,,,,,,,,,,,,,,,,,,,,,,,,,,,,,,,,,,,,,,,,,,,,,,,,,,,,,,,,,,,,,,,,,,,,,,,,,,,,,,,,,,,,,,,,,5,0,5,0,,,,,,,,,,,,,,None,j,2.53787207603,,,2017_Jan_26_1255,59.898861947,spr_backupper,001,Do13,
,Nicht,Fernab,Die,Die,Im,Am,Die,Er,Bei,Dort,Die,Walter,Er,Jugendliche,Die,100,Das,Am,Die,Im,In,Die,Die,Wir,Als,Ihr,Ich,Bei,Es,Jungtiere,Beträchtliche,Wir,Er,Mit,Sie,Die,Wir,Sie,Ich,Sie,Es,Er,Die,Viele,Wir,Ich,Die,Außer,Es,Wir,Unter,Sie,Die,Die,Viele,Die,Sie,Er,Dass,Die,Außer,Beträchtliche,Bei,Wir,Außer,Manche,Sie,Die,Wir,In,Dort,Bei,In,In,Man,Alle,Wir,In,Man,Sie,Danach,Es,In,Jetzt,Die,Die,Es,Die,Außer,Der,100,Wir,In,In,Die,Nicht,Mit,Die,,,,,,,,,,,,,,,,,,,,,,,6,0,6,0,0,0,0,0,,,,,,,space,space,0.535928964615,,,,0.70522403717,,2017_Jan_26_1255,59.898861947,spr_backupper,001,Do13,
,ein,des,Schule,Autos,Fernrohr,äußeren,Formen,stellt,der,türmen,Gäste,Scheel,stellt,können,Kinder,g,Tuch,äußersten,Teilnehmerinnen,Fernrohr,der,Schuhe,Lösung,übergaben,die,Blutdruck,nehme,der,waren,sollten,Stücke,übergaben,wurde,dieser,verlassen,"Uhr,",konnten,verlassen,nehme,verbrauchen,waren,hat,Linie,Tonnen,hatten,wurde,Uhr,dem,wurden,haben,keinen,hatte,Schule,Autos,Tonnen,Gäste,verbrauchen,wurde,es,Kinder,das,Stücke,unserer,mussten,dem,Kreditnehmer,haben,Eislaufbahnen,hatten,meinem,türmen,unserer,einer,der,machte,Betten,mussten,den,machte,hatte,wurde,wurden,den,ist,Stücke,Uhr,hat,müden,den,Flug,g,haben,diesem,meinem,Schuhe,ein,dieser,Uhr,,,,,,,,,,,,,,,,,,,,,,,6,0,6,0,0,1,1,1,,,,,,,,space,0.342875003815,,,,,,2017_Jan_26_1255,59.898861947,spr_backupper,001,Do13,
,Tropfen,Rummels,verbraucht,beider,sahen,Rand,wurden,die,Feier,sich,suchen,war,die,Kleidung,fuhren,brauner,wurde,Rand,wussten,sahen,Tat,in,wird,dem,Sonne,kann,eine,Feier,nur,immer,saftiges,das,trotz,Methode,wegen,die,dann,wegen,eine,60,nur,ein,101,gebrauchter,in,damals,war,Essen,Eimer,jede,Umständen,keine,verbraucht,beider,gebrauchte,suchen,60,trotz,"regnete,",fuhren,Essen,saftigen,Ankunft,uns,Bürgermeister,sind,die,wurden,in,Studium,sich,Ankunft,Studie,Tat,mal,wurden,uns,Kakao,mal,keine,die,Eimer,Kakao,genau,wurden,schlug,uns,Teilnehmer,Bürgermeister,zum,braunen,jede,Zirkus,Studium,in,Tropfen,Methode,schlug,,,,,,,,,,,,,,,,,,,,,,,6,0,6,0,0,2,2,2,,,,,,,,space,0.200925111771,,,,,,2017_Jan_26_1255,59.898861947,spr_backupper,001,Do13,
,königliches,wurde,260.000,beteiligter,wir,der,unter,Masse,gedachte,Berge,die,der,Masse,bei,mit,Zucker,dann,der,überwiegend,wir,wissen,Größe,mit,Mann,"unterging,",schon,große,gedachte,kleinere,auf,Fleisch,Auto,des,kann,des,er,mit,dem,große,Liter,kleinere,Hemd,hält,Kleidung,Dänemark,schnell,aus,kann,roter,Menge,können,Lust,260.000,beteiligten,Kleidung,die,Liter,dem,hat,mit,kann,Fleischs,stand,durch,beschuldigten,mit,Erlebnisse,mit,Dänemark,habe,Berge,stand,wurde,wissen,wieder,mit,durch,gehören,wieder,Lust,Leinwand,rote,gehören,die,aus,"sporadisch,",die,wurden,beschuldigten,Mond,Zuckers,Menge,werden,las,Größe,königlichen,kann,"sporadisch,",,,,,,,,,,,,,,,,,,,,,,,6,0,6,0,0,3,3,3,,,,,,,,space,0.189294099808,,,,,,2017_Jan_26_1255,59.898861947,spr_backupper,001,Do13,
,Blut,schon,Kilowattstunden,Fahrer,den,Stadt,"regelmäßigem,",mit,man,schmutzige,Wohnung,vierte,mit,ausreichendem,solchen,sind,mit,Stadt,"nicht,",den,wir,36,"reichlichem,",das,war,bei,Packung,man,"Delikte,",warmem,wurden,dem,bekannten,man,schönen,"trug,","minimalem,",schönen,Packung,sprudelndes,"Delikte,",aus,nicht,landen,gelegentlich,dank,"Japan,",ich,Farbe,alten,Neuwahlen,auf,Kilowattstunden,Fahrer,landen,Wohnung,sprudelnden,bekannten,uns,solch,ich,wurden,ein,Büschel,die,"sämtlichem,",bei,dauerhaftem,einen,ich,schmutziger,ein,jetzt,wir,viel,"üblichem,",Büschel,immer,viel,auf,aus,Farbe,immer,richtige,"wertvollem,",obwohl,Stimmung,mit,die,dauerte,sind,alten,die,ich,36,Bluts,man,obschon,,,,,,,,,,,,,,,,,,,,,,,6,0,6,0,0,4,4,4,,,,,,,,space,0.202267885208,,,,,,2017_Jan_26_1255,59.898861947,spr_backupper,001,Do13,
,hat,immer,elektrischer,wurden,roten,liegen,kaltem,einem,den,Wäsche.,des,Bundespräsident.,einem,monatlichem,unzureichenden,auf,"reichem,",liegen,was,roten,um,hätten,purem,Auto,die,minimalem,salziger,der,derer,weichem,serviert.,Mann,Skandals,eine,Wetters,war,sauberen,Wetter,salzige,Trinkwasser.,deren,feinem,am,im,einen,täglichem,die,leider,geschleudert.,Kram,vor,noch,elektrische,wurden,im,des,Trinkwassers.,Skandal,die,unzureichenden,leider,serviert.,Glas,frischen,Störenfriede,künftigem,"frischem,",feinem,gelegentlichen,mehr,Wäsche.,Glas,"nachgewiesen,",von,Lärm,harten,frisches,350,Lärm,noch,seltenem,geschleudert.,350,"Zeit,",klassischen,sie,ziemlich,zusätzlichem,Störenfriede,ungefähr,auf,Krams,Tiere,mehr,würden,hat,eine,sie,,,,,,,,,,,,,,,,,,,,,,,6,0,6,0,0,5,5,5,,,,,,,,space,0.188677072525,,,,,,2017_Jan_26_1255,59.898861947,spr_backupper,001,Do13,
,den,ruhig,Energie.,verschrottet.,Planet,die,Abduschen,Esslöffel,Soldaten,nan,Herrn,nan,Esslöffel,Taschengeld,Helmen,jeden,goldenen,die,Tupperware,Planeten,die,seiner,Alkohol,mehr,Flut,täglichen,Wurst,Soldaten,sie,Untergrund,nan,mehr,wiedergewählt.,große,die,aus,Kraftstoff,die,Wurst,nan,sie,dichten,Hauptbahnhof.,Müll.,Besucher.,grünen,er,nichts,nan,aus,Dezember,eine,Energie.,verschrottet.,Müll.,Herrn,nan,wiedergewählt.,Stimmung,Helmen,nichts,nan,köstlicher,Grases,jeden.,Einkommen,kaltem,Kunsteis,Besucher.,als,nan,köstlichen,dass,den,um,Schaumstoff,Gras,ml,um,eine,dichten,nan,ml,um,Schmuck,defekt,"vermiest,",schwarzem,jeden.,drei,jeden,aus,artgerecht,als,seiner,den,große,defekt,,,,,,,,,,,,,,,,,,,,,,,6,0,6,0,0,6,6,6,,,,,,,,space,0.184784889221,,,,,,2017_Jan_26_1255,59.898861947,spr_backupper,001,Do13,
,Boden,diskutiert.,nan,nan,ganz,Slums.,gehärtet.,warmem,des,nan,Gantenbein.,nan,warmen,selber,zur,Fall,Besatz,Slums.,ist.,ganz,Probleme,Frau,verdünnt.,als,zurückgekehrt.,Einsatz,mit,des,überführt,liegen.,nan,als,nan,Menge,Wohnung.,Japan.,fahren.,Wohnung.,mit,nan,überführt,Stoff,nan,nan,nan,Tee,trug.,mitbringen.,nan,dem,stattfinden.,Sammlung,nan,nan,nan,Gantenbeins.,nan,nan,ziemlich,zur,mitbringen.,nan,Wein,zwängen.,nan,haftbar.,Saft,eingesprüht.,nan,einmal,nan,Weins,das,Problemen,jede,gefertigt.,zwängen.,warmer,jede,Sammlung,Gewebe,nan,warme,Nadelhölzer,umgearbeitet.,war.,dass,Kaffee,nan,Tage.,Fall,dem,gehalten.,einmal,Frau,Boden,Menge,war.,,,,,,,,,,,,,,,,,,,,,,,6,0,6,0,0,7,7,7,,,,,,,,space,0.193202972412,,,,,,2017_Jan_26_1255,59.898861947,spr_backupper,001,Do13,
,berührt.,nan,nan,nan,deutlich.,nan,nan,Honig,zweiten,nan,nan,nan,Honigs,kaufen.,Schule.,genug.,rekonstruiert.,nan,nan,deutlich.,im,gepasst.,nan,gerne.,nan,sinken.,an,zweiten,wurden.,nan,nan,gerne.,nan,dunkle,nan,nan,nan,nan,an,nan,wurden.,gefertigt.,nan,nan,nan,wieder,nan,nan,nan,Haus,nan,dumme,nan,nan,nan,nan,nan,nan,vermiest.,Schule.,nan,nan,schon,nan,nan,nan,besprochen.,nan,nan,Rilke,nan,schon,Medikament,im,Menge,nan,nan,Milch.,Menge,dummer,wiederhergestellt.,nan,Milch.,umzusetzen.,nan,nan,es,wiederbelebt.,nan,nan,genug.,Haus,nan,Rilke.,gepasst,berührt.,dunkler,nan,,,,,,,,,,,,,,,,,,,,,,,6,0,6,0,0,8,8,8,,,,,,,,space,0.234385967255,,,,,,2017_Jan_26_1255,59.898861947,spr_backupper,001,Do13,
,nan,nan,nan,nan,nan,nan,nan,her.,Weltkriegs.,nan,nan,nan,her.,nan,nan,nan,nan,nan,nan,nan,Landkreis.,nan,nan,nan,nan,nan,den,Weltkriegs.,nan,nan,nan,nan,nan,Materie,nan,nan,nan,nan,den,nan,nan,nan,nan,nan,nan,fit.,nan,nan,nan,geschafft.,nan,Sprüche.,nan,nan,nan,nan,nan,nan,nan,nan,nan,nan,auf,nan,nan,nan,nan,nan,nan,gelesen.,nan,auf,nicht,Landkreis.,heißer,nan,nan,nan,heiße,Sprüche.,nan,nan,nan,nan,nan,nan,regnete.,nan,nan,nan,nan,geschafft.,nan,nan,haben.,nan,Materie,nan,,,,,,,,,,,,,,,,,,,,,,,6,0,6,0,0,9,9,9,,,,,,,,space,0.219027042389,,,,,,2017_Jan_26_1255,59.898861947,spr_backupper,001,Do13,
,,,,,,,,,,,,,,,,,,,,,,,,,,,,,,,,,,,,,,,,,,,,,,,,,,,,,,,,,,,,,,,,,,,,,,,,,,,,,,,,,,,,,,,,,,,,,,,,,,,,,,,,,,,,,,,,,,,,,,,,,6,0,6,0,,,,,,,,,,,,,,space,j,1.84526610374,,0.201701879501,2017_Jan_26_1255,59.898861947,spr_backupper,001,Do13,
,Nicht,Fernab,Die,Die,Im,Am,Die,Er,Bei,Dort,Die,Walter,Er,Jugendliche,Die,100,Das,Am,Die,Im,In,Die,Die,Wir,Als,Ihr,Ich,Bei,Es,Jungtiere,Beträchtliche,Wir,Er,Mit,Sie,Die,Wir,Sie,Ich,Sie,Es,Er,Die,Viele,Wir,Ich,Die,Außer,Es,Wir,Unter,Sie,Die,Die,Viele,Die,Sie,Er,Dass,Die,Außer,Beträchtliche,Bei,Wir,Außer,Manche,Sie,Die,Wir,In,Dort,Bei,In,In,Man,Alle,Wir,In,Man,Sie,Danach,Es,In,Jetzt,Die,Die,Es,Die,Außer,Der,100,Wir,In,In,Die,Nicht,Mit,Die,,,,,,,,,,,,,,,,,,,,,,,7,0,7,0,0,0,0,0,,,,,,,space,space,0.481203079224,,,,0.637583971024,,2017_Jan_26_1255,59.898861947,spr_backupper,001,Do13,
,ein,des,Schule,Autos,Fernrohr,äußeren,Formen,stellt,der,türmen,Gäste,Scheel,stellt,können,Kinder,g,Tuch,äußersten,Teilnehmerinnen,Fernrohr,der,Schuhe,Lösung,übergaben,die,Blutdruck,nehme,der,waren,sollten,Stücke,übergaben,wurde,dieser,verlassen,"Uhr,",konnten,verlassen,nehme,verbrauchen,waren,hat,Linie,Tonnen,hatten,wurde,Uhr,dem,wurden,haben,keinen,hatte,Schule,Autos,Tonnen,Gäste,verbrauchen,wurde,es,Kinder,das,Stücke,unserer,mussten,dem,Kreditnehmer,haben,Eislaufbahnen,hatten,meinem,türmen,unserer,einer,der,machte,Betten,mussten,den,machte,hatte,wurde,wurden,den,ist,Stücke,Uhr,hat,müden,den,Flug,g,haben,diesem,meinem,Schuhe,ein,dieser,Uhr,,,,,,,,,,,,,,,,,,,,,,,7,0,7,0,0,1,1,1,,,,,,,,space,0.251677036285,,,,,,2017_Jan_26_1255,59.898861947,spr_backupper,001,Do13,
,Tropfen,Rummels,verbraucht,beider,sahen,Rand,wurden,die,Feier,sich,suchen,war,die,Kleidung,fuhren,brauner,wurde,Rand,wussten,sahen,Tat,in,wird,dem,Sonne,kann,eine,Feier,nur,immer,saftiges,das,trotz,Methode,wegen,die,dann,wegen,eine,60,nur,ein,101,gebrauchter,in,damals,war,Essen,Eimer,jede,Umständen,keine,verbraucht,beider,gebrauchte,suchen,60,trotz,"regnete,",fuhren,Essen,saftigen,Ankunft,uns,Bürgermeister,sind,die,wurden,in,Studium,sich,Ankunft,Studie,Tat,mal,wurden,uns,Kakao,mal,keine,die,Eimer,Kakao,genau,wurden,schlug,uns,Teilnehmer,Bürgermeister,zum,braunen,jede,Zirkus,Studium,in,Tropfen,Methode,schlug,,,,,,,,,,,,,,,,,,,,,,,7,0,7,0,0,2,2,2,,,,,,,,space,0.199062824249,,,,,,2017_Jan_26_1255,59.898861947,spr_backupper,001,Do13,
,königliches,wurde,260.000,beteiligter,wir,der,unter,Masse,gedachte,Berge,die,der,Masse,bei,mit,Zucker,dann,der,überwiegend,wir,wissen,Größe,mit,Mann,"unterging,",schon,große,gedachte,kleinere,auf,Fleisch,Auto,des,kann,des,er,mit,dem,große,Liter,kleinere,Hemd,hält,Kleidung,Dänemark,schnell,aus,kann,roter,Menge,können,Lust,260.000,beteiligten,Kleidung,die,Liter,dem,hat,mit,kann,Fleischs,stand,durch,beschuldigten,mit,Erlebnisse,mit,Dänemark,habe,Berge,stand,wurde,wissen,wieder,mit,durch,gehören,wieder,Lust,Leinwand,rote,gehören,die,aus,"sporadisch,",die,wurden,beschuldigten,Mond,Zuckers,Menge,werden,las,Größe,königlichen,kann,"sporadisch,",,,,,,,,,,,,,,,,,,,,,,,7,0,7,0,0,3,3,3,,,,,,,,space,0.169136047363,,,,,,2017_Jan_26_1255,59.898861947,spr_backupper,001,Do13,
,Blut,schon,Kilowattstunden,Fahrer,den,Stadt,"regelmäßigem,",mit,man,schmutzige,Wohnung,vierte,mit,ausreichendem,solchen,sind,mit,Stadt,"nicht,",den,wir,36,"reichlichem,",das,war,bei,Packung,man,"Delikte,",warmem,wurden,dem,bekannten,man,schönen,"trug,","minimalem,",schönen,Packung,sprudelndes,"Delikte,",aus,nicht,landen,gelegentlich,dank,"Japan,",ich,Farbe,alten,Neuwahlen,auf,Kilowattstunden,Fahrer,landen,Wohnung,sprudelnden,bekannten,uns,solch,ich,wurden,ein,Büschel,die,"sämtlichem,",bei,dauerhaftem,einen,ich,schmutziger,ein,jetzt,wir,viel,"üblichem,",Büschel,immer,viel,auf,aus,Farbe,immer,richtige,"wertvollem,",obwohl,Stimmung,mit,die,dauerte,sind,alten,die,ich,36,Bluts,man,obschon,,,,,,,,,,,,,,,,,,,,,,,7,0,7,0,0,4,4,4,,,,,,,,space,0.486790895462,,,,,,2017_Jan_26_1255,59.898861947,spr_backupper,001,Do13,
,hat,immer,elektrischer,wurden,roten,liegen,kaltem,einem,den,Wäsche.,des,Bundespräsident.,einem,monatlichem,unzureichenden,auf,"reichem,",liegen,was,roten,um,hätten,purem,Auto,die,minimalem,salziger,der,derer,weichem,serviert.,Mann,Skandals,eine,Wetters,war,sauberen,Wetter,salzige,Trinkwasser.,deren,feinem,am,im,einen,täglichem,die,leider,geschleudert.,Kram,vor,noch,elektrische,wurden,im,des,Trinkwassers.,Skandal,die,unzureichenden,leider,serviert.,Glas,frischen,Störenfriede,künftigem,"frischem,",feinem,gelegentlichen,mehr,Wäsche.,Glas,"nachgewiesen,",von,Lärm,harten,frisches,350,Lärm,noch,seltenem,geschleudert.,350,"Zeit,",klassischen,sie,ziemlich,zusätzlichem,Störenfriede,ungefähr,auf,Krams,Tiere,mehr,würden,hat,eine,sie,,,,,,,,,,,,,,,,,,,,,,,7,0,7,0,0,5,5,5,,,,,,,,space,0.331945896149,,,,,,2017_Jan_26_1255,59.898861947,spr_backupper,001,Do13,
,den,ruhig,Energie.,verschrottet.,Planet,die,Abduschen,Esslöffel,Soldaten,nan,Herrn,nan,Esslöffel,Taschengeld,Helmen,jeden,goldenen,die,Tupperware,Planeten,die,seiner,Alkohol,mehr,Flut,täglichen,Wurst,Soldaten,sie,Untergrund,nan,mehr,wiedergewählt.,große,die,aus,Kraftstoff,die,Wurst,nan,sie,dichten,Hauptbahnhof.,Müll.,Besucher.,grünen,er,nichts,nan,aus,Dezember,eine,Energie.,verschrottet.,Müll.,Herrn,nan,wiedergewählt.,Stimmung,Helmen,nichts,nan,köstlicher,Grases,jeden.,Einkommen,kaltem,Kunsteis,Besucher.,als,nan,köstlichen,dass,den,um,Schaumstoff,Gras,ml,um,eine,dichten,nan,ml,um,Schmuck,defekt,"vermiest,",schwarzem,jeden.,drei,jeden,aus,artgerecht,als,seiner,den,große,defekt,,,,,,,,,,,,,,,,,,,,,,,7,0,7,0,0,6,6,6,,,,,,,,space,0.26901102066,,,,,,2017_Jan_26_1255,59.898861947,spr_backupper,001,Do13,
,,,,,,,,,,,,,,,,,,,,,,,,,,,,,,,,,,,,,,,,,,,,,,,,,,,,,,,,,,,,,,,,,,,,,,,,,,,,,,,,,,,,,,,,,,,,,,,,,,,,,,,,,,,,,,,,,,,,,,,,,7,0,7,0,,,,,,,,,,,,,,space,j,2.63433003426,,1.3919839859,2017_Jan_26_1255,59.898861947,spr_backupper,001,Do13,
,Nicht,Fernab,Die,Die,Im,Am,Die,Er,Bei,Dort,Die,Walter,Er,Jugendliche,Die,100,Das,Am,Die,Im,In,Die,Die,Wir,Als,Ihr,Ich,Bei,Es,Jungtiere,Beträchtliche,Wir,Er,Mit,Sie,Die,Wir,Sie,Ich,Sie,Es,Er,Die,Viele,Wir,Ich,Die,Außer,Es,Wir,Unter,Sie,Die,Die,Viele,Die,Sie,Er,Dass,Die,Außer,Beträchtliche,Bei,Wir,Außer,Manche,Sie,Die,Wir,In,Dort,Bei,In,In,Man,Alle,Wir,In,Man,Sie,Danach,Es,In,Jetzt,Die,Die,Es,Die,Außer,Der,100,Wir,In,In,Die,Nicht,Mit,Die,,,,,,,,,,,,,,,,,,,,,,,8,0,8,0,0,0,0,0,,,,,,,None,space,0.851590871811,,,,,,2017_Jan_26_1255,59.898861947,spr_backupper,001,Do13,
,ein,des,Schule,Autos,Fernrohr,äußeren,Formen,stellt,der,türmen,Gäste,Scheel,stellt,können,Kinder,g,Tuch,äußersten,Teilnehmerinnen,Fernrohr,der,Schuhe,Lösung,übergaben,die,Blutdruck,nehme,der,waren,sollten,Stücke,übergaben,wurde,dieser,verlassen,"Uhr,",konnten,verlassen,nehme,verbrauchen,waren,hat,Linie,Tonnen,hatten,wurde,Uhr,dem,wurden,haben,keinen,hatte,Schule,Autos,Tonnen,Gäste,verbrauchen,wurde,es,Kinder,das,Stücke,unserer,mussten,dem,Kreditnehmer,haben,Eislaufbahnen,hatten,meinem,türmen,unserer,einer,der,machte,Betten,mussten,den,machte,hatte,wurde,wurden,den,ist,Stücke,Uhr,hat,müden,den,Flug,g,haben,diesem,meinem,Schuhe,ein,dieser,Uhr,,,,,,,,,,,,,,,,,,,,,,,8,0,8,0,0,1,1,1,,,,,,,,space,0.2504529953,,,,,,2017_Jan_26_1255,59.898861947,spr_backupper,001,Do13,
,Tropfen,Rummels,verbraucht,beider,sahen,Rand,wurden,die,Feier,sich,suchen,war,die,Kleidung,fuhren,brauner,wurde,Rand,wussten,sahen,Tat,in,wird,dem,Sonne,kann,eine,Feier,nur,immer,saftiges,das,trotz,Methode,wegen,die,dann,wegen,eine,60,nur,ein,101,gebrauchter,in,damals,war,Essen,Eimer,jede,Umständen,keine,verbraucht,beider,gebrauchte,suchen,60,trotz,"regnete,",fuhren,Essen,saftigen,Ankunft,uns,Bürgermeister,sind,die,wurden,in,Studium,sich,Ankunft,Studie,Tat,mal,wurden,uns,Kakao,mal,keine,die,Eimer,Kakao,genau,wurden,schlug,uns,Teilnehmer,Bürgermeister,zum,braunen,jede,Zirkus,Studium,in,Tropfen,Methode,schlug,,,,,,,,,,,,,,,,,,,,,,,8,0,8,0,0,2,2,2,,,,,,,,space,0.205029010773,,,,,,2017_Jan_26_1255,59.898861947,spr_backupper,001,Do13,
,königliches,wurde,260.000,beteiligter,wir,der,unter,Masse,gedachte,Berge,die,der,Masse,bei,mit,Zucker,dann,der,überwiegend,wir,wissen,Größe,mit,Mann,"unterging,",schon,große,gedachte,kleinere,auf,Fleisch,Auto,des,kann,des,er,mit,dem,große,Liter,kleinere,Hemd,hält,Kleidung,Dänemark,schnell,aus,kann,roter,Menge,können,Lust,260.000,beteiligten,Kleidung,die,Liter,dem,hat,mit,kann,Fleischs,stand,durch,beschuldigten,mit,Erlebnisse,mit,Dänemark,habe,Berge,stand,wurde,wissen,wieder,mit,durch,gehören,wieder,Lust,Leinwand,rote,gehören,die,aus,"sporadisch,",die,wurden,beschuldigten,Mond,Zuckers,Menge,werden,las,Größe,königlichen,kann,"sporadisch,",,,,,,,,,,,,,,,,,,,,,,,8,0,8,0,0,3,3,3,,,,,,,,space,0.269387960434,,,,,,2017_Jan_26_1255,59.898861947,spr_backupper,001,Do13,
,Blut,schon,Kilowattstunden,Fahrer,den,Stadt,"regelmäßigem,",mit,man,schmutzige,Wohnung,vierte,mit,ausreichendem,solchen,sind,mit,Stadt,"nicht,",den,wir,36,"reichlichem,",das,war,bei,Packung,man,"Delikte,",warmem,wurden,dem,bekannten,man,schönen,"trug,","minimalem,",schönen,Packung,sprudelndes,"Delikte,",aus,nicht,landen,gelegentlich,dank,"Japan,",ich,Farbe,alten,Neuwahlen,auf,Kilowattstunden,Fahrer,landen,Wohnung,sprudelnden,bekannten,uns,solch,ich,wurden,ein,Büschel,die,"sämtlichem,",bei,dauerhaftem,einen,ich,schmutziger,ein,jetzt,wir,viel,"üblichem,",Büschel,immer,viel,auf,aus,Farbe,immer,richtige,"wertvollem,",obwohl,Stimmung,mit,die,dauerte,sind,alten,die,ich,36,Bluts,man,obschon,,,,,,,,,,,,,,,,,,,,,,,8,0,8,0,0,4,4,4,,,,,,,,space,0.226342916489,,,,,,2017_Jan_26_1255,59.898861947,spr_backupper,001,Do13,
,hat,immer,elektrischer,wurden,roten,liegen,kaltem,einem,den,Wäsche.,des,Bundespräsident.,einem,monatlichem,unzureichenden,auf,"reichem,",liegen,was,roten,um,hätten,purem,Auto,die,minimalem,salziger,der,derer,weichem,serviert.,Mann,Skandals,eine,Wetters,war,sauberen,Wetter,salzige,Trinkwasser.,deren,feinem,am,im,einen,täglichem,die,leider,geschleudert.,Kram,vor,noch,elektrische,wurden,im,des,Trinkwassers.,Skandal,die,unzureichenden,leider,serviert.,Glas,frischen,Störenfriede,künftigem,"frischem,",feinem,gelegentlichen,mehr,Wäsche.,Glas,"nachgewiesen,",von,Lärm,harten,frisches,350,Lärm,noch,seltenem,geschleudert.,350,"Zeit,",klassischen,sie,ziemlich,zusätzlichem,Störenfriede,ungefähr,auf,Krams,Tiere,mehr,würden,hat,eine,sie,,,,,,,,,,,,,,,,,,,,,,,8,0,8,0,0,5,5,5,,,,,,,,space,0.251877069473,,,,,,2017_Jan_26_1255,59.898861947,spr_backupper,001,Do13,
,den,ruhig,Energie.,verschrottet.,Planet,die,Abduschen,Esslöffel,Soldaten,nan,Herrn,nan,Esslöffel,Taschengeld,Helmen,jeden,goldenen,die,Tupperware,Planeten,die,seiner,Alkohol,mehr,Flut,täglichen,Wurst,Soldaten,sie,Untergrund,nan,mehr,wiedergewählt.,große,die,aus,Kraftstoff,die,Wurst,nan,sie,dichten,Hauptbahnhof.,Müll.,Besucher.,grünen,er,nichts,nan,aus,Dezember,eine,Energie.,verschrottet.,Müll.,Herrn,nan,wiedergewählt.,Stimmung,Helmen,nichts,nan,köstlicher,Grases,jeden.,Einkommen,kaltem,Kunsteis,Besucher.,als,nan,köstlichen,dass,den,um,Schaumstoff,Gras,ml,um,eine,dichten,nan,ml,um,Schmuck,defekt,"vermiest,",schwarzem,jeden.,drei,jeden,aus,artgerecht,als,seiner,den,große,defekt,,,,,,,,,,,,,,,,,,,,,,,8,0,8,0,0,6,6,6,,,,,,,,space,0.207677125931,,,,,,2017_Jan_26_1255,59.898861947,spr_backupper,001,Do13,
,Boden,diskutiert.,nan,nan,ganz,Slums.,gehärtet.,warmem,des,nan,Gantenbein.,nan,warmen,selber,zur,Fall,Besatz,Slums.,ist.,ganz,Probleme,Frau,verdünnt.,als,zurückgekehrt.,Einsatz,mit,des,überführt,liegen.,nan,als,nan,Menge,Wohnung.,Japan.,fahren.,Wohnung.,mit,nan,überführt,Stoff,nan,nan,nan,Tee,trug.,mitbringen.,nan,dem,stattfinden.,Sammlung,nan,nan,nan,Gantenbeins.,nan,nan,ziemlich,zur,mitbringen.,nan,Wein,zwängen.,nan,haftbar.,Saft,eingesprüht.,nan,einmal,nan,Weins,das,Problemen,jede,gefertigt.,zwängen.,warmer,jede,Sammlung,Gewebe,nan,warme,Nadelhölzer,umgearbeitet.,war.,dass,Kaffee,nan,Tage.,Fall,dem,gehalten.,einmal,Frau,Boden,Menge,war.,,,,,,,,,,,,,,,,,,,,,,,8,0,8,0,0,7,7,7,,,,,,,,space,0.268018960953,,,,,,2017_Jan_26_1255,59.898861947,spr_backupper,001,Do13,
,,,,,,,,,,,,,,,,,,,,,,,,,,,,,,,,,,,,,,,,,,,,,,,,,,,,,,,,,,,,,,,,,,,,,,,,,,,,,,,,,,,,,,,,,,,,,,,,,,,,,,,,,,,,,,,,,,,,,,,,,8,0,8,0,,,,,,,,,,,,,,None,j,1.96491909027,,,2017_Jan_26_1255,59.898861947,spr_backupper,001,Do13,
,Nicht,Fernab,Die,Die,Im,Am,Die,Er,Bei,Dort,Die,Walter,Er,Jugendliche,Die,100,Das,Am,Die,Im,In,Die,Die,Wir,Als,Ihr,Ich,Bei,Es,Jungtiere,Beträchtliche,Wir,Er,Mit,Sie,Die,Wir,Sie,Ich,Sie,Es,Er,Die,Viele,Wir,Ich,Die,Außer,Es,Wir,Unter,Sie,Die,Die,Viele,Die,Sie,Er,Dass,Die,Außer,Beträchtliche,Bei,Wir,Außer,Manche,Sie,Die,Wir,In,Dort,Bei,In,In,Man,Alle,Wir,In,Man,Sie,Danach,Es,In,Jetzt,Die,Die,Es,Die,Außer,Der,100,Wir,In,In,Die,Nicht,Mit,Die,,,,,,,,,,,,,,,,,,,,,,,9,0,9,0,0,0,0,0,,,,,,,space,space,0.567335128784,,,,0.603986978531,,2017_Jan_26_1255,59.898861947,spr_backupper,001,Do13,
,ein,des,Schule,Autos,Fernrohr,äußeren,Formen,stellt,der,türmen,Gäste,Scheel,stellt,können,Kinder,g,Tuch,äußersten,Teilnehmerinnen,Fernrohr,der,Schuhe,Lösung,übergaben,die,Blutdruck,nehme,der,waren,sollten,Stücke,übergaben,wurde,dieser,verlassen,"Uhr,",konnten,verlassen,nehme,verbrauchen,waren,hat,Linie,Tonnen,hatten,wurde,Uhr,dem,wurden,haben,keinen,hatte,Schule,Autos,Tonnen,Gäste,verbrauchen,wurde,es,Kinder,das,Stücke,unserer,mussten,dem,Kreditnehmer,haben,Eislaufbahnen,hatten,meinem,türmen,unserer,einer,der,machte,Betten,mussten,den,machte,hatte,wurde,wurden,den,ist,Stücke,Uhr,hat,müden,den,Flug,g,haben,diesem,meinem,Schuhe,ein,dieser,Uhr,,,,,,,,,,,,,,,,,,,,,,,9,0,9,0,0,1,1,1,,,,,,,,space,0.234477043152,,,,,,2017_Jan_26_1255,59.898861947,spr_backupper,001,Do13,
,Tropfen,Rummels,verbraucht,beider,sahen,Rand,wurden,die,Feier,sich,suchen,war,die,Kleidung,fuhren,brauner,wurde,Rand,wussten,sahen,Tat,in,wird,dem,Sonne,kann,eine,Feier,nur,immer,saftiges,das,trotz,Methode,wegen,die,dann,wegen,eine,60,nur,ein,101,gebrauchter,in,damals,war,Essen,Eimer,jede,Umständen,keine,verbraucht,beider,gebrauchte,suchen,60,trotz,"regnete,",fuhren,Essen,saftigen,Ankunft,uns,Bürgermeister,sind,die,wurden,in,Studium,sich,Ankunft,Studie,Tat,mal,wurden,uns,Kakao,mal,keine,die,Eimer,Kakao,genau,wurden,schlug,uns,Teilnehmer,Bürgermeister,zum,braunen,jede,Zirkus,Studium,in,Tropfen,Methode,schlug,,,,,,,,,,,,,,,,,,,,,,,9,0,9,0,0,2,2,2,,,,,,,,space,0.202096939087,,,,,,2017_Jan_26_1255,59.898861947,spr_backupper,001,Do13,
,königliches,wurde,260.000,beteiligter,wir,der,unter,Masse,gedachte,Berge,die,der,Masse,bei,mit,Zucker,dann,der,überwiegend,wir,wissen,Größe,mit,Mann,"unterging,",schon,große,gedachte,kleinere,auf,Fleisch,Auto,des,kann,des,er,mit,dem,große,Liter,kleinere,Hemd,hält,Kleidung,Dänemark,schnell,aus,kann,roter,Menge,können,Lust,260.000,beteiligten,Kleidung,die,Liter,dem,hat,mit,kann,Fleischs,stand,durch,beschuldigten,mit,Erlebnisse,mit,Dänemark,habe,Berge,stand,wurde,wissen,wieder,mit,durch,gehören,wieder,Lust,Leinwand,rote,gehören,die,aus,"sporadisch,",die,wurden,beschuldigten,Mond,Zuckers,Menge,werden,las,Größe,königlichen,kann,"sporadisch,",,,,,,,,,,,,,,,,,,,,,,,9,0,9,0,0,3,3,3,,,,,,,,space,0.192715883255,,,,,,2017_Jan_26_1255,59.898861947,spr_backupper,001,Do13,
,Blut,schon,Kilowattstunden,Fahrer,den,Stadt,"regelmäßigem,",mit,man,schmutzige,Wohnung,vierte,mit,ausreichendem,solchen,sind,mit,Stadt,"nicht,",den,wir,36,"reichlichem,",das,war,bei,Packung,man,"Delikte,",warmem,wurden,dem,bekannten,man,schönen,"trug,","minimalem,",schönen,Packung,sprudelndes,"Delikte,",aus,nicht,landen,gelegentlich,dank,"Japan,",ich,Farbe,alten,Neuwahlen,auf,Kilowattstunden,Fahrer,landen,Wohnung,sprudelnden,bekannten,uns,solch,ich,wurden,ein,Büschel,die,"sämtlichem,",bei,dauerhaftem,einen,ich,schmutziger,ein,jetzt,wir,viel,"üblichem,",Büschel,immer,viel,auf,aus,Farbe,immer,richtige,"wertvollem,",obwohl,Stimmung,mit,die,dauerte,sind,alten,die,ich,36,Bluts,man,obschon,,,,,,,,,,,,,,,,,,,,,,,9,0,9,0,0,4,4,4,,,,,,,,space,0.219397068024,,,,,,2017_Jan_26_1255,59.898861947,spr_backupper,001,Do13,
,hat,immer,elektrischer,wurden,roten,liegen,kaltem,einem,den,Wäsche.,des,Bundespräsident.,einem,monatlichem,unzureichenden,auf,"reichem,",liegen,was,roten,um,hätten,purem,Auto,die,minimalem,salziger,der,derer,weichem,serviert.,Mann,Skandals,eine,Wetters,war,sauberen,Wetter,salzige,Trinkwasser.,deren,feinem,am,im,einen,täglichem,die,leider,geschleudert.,Kram,vor,noch,elektrische,wurden,im,des,Trinkwassers.,Skandal,die,unzureichenden,leider,serviert.,Glas,frischen,Störenfriede,künftigem,"frischem,",feinem,gelegentlichen,mehr,Wäsche.,Glas,"nachgewiesen,",von,Lärm,harten,frisches,350,Lärm,noch,seltenem,geschleudert.,350,"Zeit,",klassischen,sie,ziemlich,zusätzlichem,Störenfriede,ungefähr,auf,Krams,Tiere,mehr,würden,hat,eine,sie,,,,,,,,,,,,,,,,,,,,,,,9,0,9,0,0,5,5,5,,,,,,,,space,0.210034132004,,,,,,2017_Jan_26_1255,59.898861947,spr_backupper,001,Do13,
,den,ruhig,Energie.,verschrottet.,Planet,die,Abduschen,Esslöffel,Soldaten,nan,Herrn,nan,Esslöffel,Taschengeld,Helmen,jeden,goldenen,die,Tupperware,Planeten,die,seiner,Alkohol,mehr,Flut,täglichen,Wurst,Soldaten,sie,Untergrund,nan,mehr,wiedergewählt.,große,die,aus,Kraftstoff,die,Wurst,nan,sie,dichten,Hauptbahnhof.,Müll.,Besucher.,grünen,er,nichts,nan,aus,Dezember,eine,Energie.,verschrottet.,Müll.,Herrn,nan,wiedergewählt.,Stimmung,Helmen,nichts,nan,köstlicher,Grases,jeden.,Einkommen,kaltem,Kunsteis,Besucher.,als,nan,köstlichen,dass,den,um,Schaumstoff,Gras,ml,um,eine,dichten,nan,ml,um,Schmuck,defekt,"vermiest,",schwarzem,jeden.,drei,jeden,aus,artgerecht,als,seiner,den,große,defekt,,,,,,,,,,,,,,,,,,,,,,,9,0,9,0,0,6,6,6,,,,,,,,space,0.176017045975,,,,,,2017_Jan_26_1255,59.898861947,spr_backupper,001,Do13,
,Boden,diskutiert.,nan,nan,ganz,Slums.,gehärtet.,warmem,des,nan,Gantenbein.,nan,warmen,selber,zur,Fall,Besatz,Slums.,ist.,ganz,Probleme,Frau,verdünnt.,als,zurückgekehrt.,Einsatz,mit,des,überführt,liegen.,nan,als,nan,Menge,Wohnung.,Japan.,fahren.,Wohnung.,mit,nan,überführt,Stoff,nan,nan,nan,Tee,trug.,mitbringen.,nan,dem,stattfinden.,Sammlung,nan,nan,nan,Gantenbeins.,nan,nan,ziemlich,zur,mitbringen.,nan,Wein,zwängen.,nan,haftbar.,Saft,eingesprüht.,nan,einmal,nan,Weins,das,Problemen,jede,gefertigt.,zwängen.,warmer,jede,Sammlung,Gewebe,nan,warme,Nadelhölzer,umgearbeitet.,war.,dass,Kaffee,nan,Tage.,Fall,dem,gehalten.,einmal,Frau,Boden,Menge,war.,,,,,,,,,,,,,,,,,,,,,,,9,0,9,0,0,7,7,7,,,,,,,,space,0.225617170334,,,,,,2017_Jan_26_1255,59.898861947,spr_backupper,001,Do13,
,berührt.,nan,nan,nan,deutlich.,nan,nan,Honig,zweiten,nan,nan,nan,Honigs,kaufen.,Schule.,genug.,rekonstruiert.,nan,nan,deutlich.,im,gepasst.,nan,gerne.,nan,sinken.,an,zweiten,wurden.,nan,nan,gerne.,nan,dunkle,nan,nan,nan,nan,an,nan,wurden.,gefertigt.,nan,nan,nan,wieder,nan,nan,nan,Haus,nan,dumme,nan,nan,nan,nan,nan,nan,vermiest.,Schule.,nan,nan,schon,nan,nan,nan,besprochen.,nan,nan,Rilke,nan,schon,Medikament,im,Menge,nan,nan,Milch.,Menge,dummer,wiederhergestellt.,nan,Milch.,umzusetzen.,nan,nan,es,wiederbelebt.,nan,nan,genug.,Haus,nan,Rilke.,gepasst,berührt.,dunkler,nan,,,,,,,,,,,,,,,,,,,,,,,9,0,9,0,0,8,8,8,,,,,,,,space,0.224027872086,,,,,,2017_Jan_26_1255,59.898861947,spr_backupper,001,Do13,
,,,,,,,,,,,,,,,,,,,,,,,,,,,,,,,,,,,,,,,,,,,,,,,,,,,,,,,,,,,,,,,,,,,,,,,,,,,,,,,,,,,,,,,,,,,,,,,,,,,,,,,,,,,,,,,,,,,,,,,,,9,0,9,0,,,,,,,,,,,,,,None,j,1.63615393639,,,2017_Jan_26_1255,59.898861947,spr_backupper,001,Do13,
,Nicht,Fernab,Die,Die,Im,Am,Die,Er,Bei,Dort,Die,Walter,Er,Jugendliche,Die,100,Das,Am,Die,Im,In,Die,Die,Wir,Als,Ihr,Ich,Bei,Es,Jungtiere,Beträchtliche,Wir,Er,Mit,Sie,Die,Wir,Sie,Ich,Sie,Es,Er,Die,Viele,Wir,Ich,Die,Außer,Es,Wir,Unter,Sie,Die,Die,Viele,Die,Sie,Er,Dass,Die,Außer,Beträchtliche,Bei,Wir,Außer,Manche,Sie,Die,Wir,In,Dort,Bei,In,In,Man,Alle,Wir,In,Man,Sie,Danach,Es,In,Jetzt,Die,Die,Es,Die,Außer,Der,100,Wir,In,In,Die,Nicht,Mit,Die,,,,,,,,,,,,,,,,,,,,,,,10,0,10,0,0,0,0,0,,,,,,,None,space,1.75051593781,,,,,,2017_Jan_26_1255,59.898861947,spr_backupper,001,Do13,
,ein,des,Schule,Autos,Fernrohr,äußeren,Formen,stellt,der,türmen,Gäste,Scheel,stellt,können,Kinder,g,Tuch,äußersten,Teilnehmerinnen,Fernrohr,der,Schuhe,Lösung,übergaben,die,Blutdruck,nehme,der,waren,sollten,Stücke,übergaben,wurde,dieser,verlassen,"Uhr,",konnten,verlassen,nehme,verbrauchen,waren,hat,Linie,Tonnen,hatten,wurde,Uhr,dem,wurden,haben,keinen,hatte,Schule,Autos,Tonnen,Gäste,verbrauchen,wurde,es,Kinder,das,Stücke,unserer,mussten,dem,Kreditnehmer,haben,Eislaufbahnen,hatten,meinem,türmen,unserer,einer,der,machte,Betten,mussten,den,machte,hatte,wurde,wurden,den,ist,Stücke,Uhr,hat,müden,den,Flug,g,haben,diesem,meinem,Schuhe,ein,dieser,Uhr,,,,,,,,,,,,,,,,,,,,,,,10,0,10,0,0,1,1,1,,,,,,,,space,0.355727910995,,,,,,2017_Jan_26_1255,59.898861947,spr_backupper,001,Do13,
,Tropfen,Rummels,verbraucht,beider,sahen,Rand,wurden,die,Feier,sich,suchen,war,die,Kleidung,fuhren,brauner,wurde,Rand,wussten,sahen,Tat,in,wird,dem,Sonne,kann,eine,Feier,nur,immer,saftiges,das,trotz,Methode,wegen,die,dann,wegen,eine,60,nur,ein,101,gebrauchter,in,damals,war,Essen,Eimer,jede,Umständen,keine,verbraucht,beider,gebrauchte,suchen,60,trotz,"regnete,",fuhren,Essen,saftigen,Ankunft,uns,Bürgermeister,sind,die,wurden,in,Studium,sich,Ankunft,Studie,Tat,mal,wurden,uns,Kakao,mal,keine,die,Eimer,Kakao,genau,wurden,schlug,uns,Teilnehmer,Bürgermeister,zum,braunen,jede,Zirkus,Studium,in,Tropfen,Methode,schlug,,,,,,,,,,,,,,,,,,,,,,,10,0,10,0,0,2,2,2,,,,,,,,space,0.185003042221,,,,,,2017_Jan_26_1255,59.898861947,spr_backupper,001,Do13,
,königliches,wurde,260.000,beteiligter,wir,der,unter,Masse,gedachte,Berge,die,der,Masse,bei,mit,Zucker,dann,der,überwiegend,wir,wissen,Größe,mit,Mann,"unterging,",schon,große,gedachte,kleinere,auf,Fleisch,Auto,des,kann,des,er,mit,dem,große,Liter,kleinere,Hemd,hält,Kleidung,Dänemark,schnell,aus,kann,roter,Menge,können,Lust,260.000,beteiligten,Kleidung,die,Liter,dem,hat,mit,kann,Fleischs,stand,durch,beschuldigten,mit,Erlebnisse,mit,Dänemark,habe,Berge,stand,wurde,wissen,wieder,mit,durch,gehören,wieder,Lust,Leinwand,rote,gehören,die,aus,"sporadisch,",die,wurden,beschuldigten,Mond,Zuckers,Menge,werden,las,Größe,königlichen,kann,"sporadisch,",,,,,,,,,,,,,,,,,,,,,,,10,0,10,0,0,3,3,3,,,,,,,,space,0.185026884079,,,,,,2017_Jan_26_1255,59.898861947,spr_backupper,001,Do13,
,Blut,schon,Kilowattstunden,Fahrer,den,Stadt,"regelmäßigem,",mit,man,schmutzige,Wohnung,vierte,mit,ausreichendem,solchen,sind,mit,Stadt,"nicht,",den,wir,36,"reichlichem,",das,war,bei,Packung,man,"Delikte,",warmem,wurden,dem,bekannten,man,schönen,"trug,","minimalem,",schönen,Packung,sprudelndes,"Delikte,",aus,nicht,landen,gelegentlich,dank,"Japan,",ich,Farbe,alten,Neuwahlen,auf,Kilowattstunden,Fahrer,landen,Wohnung,sprudelnden,bekannten,uns,solch,ich,wurden,ein,Büschel,die,"sämtlichem,",bei,dauerhaftem,einen,ich,schmutziger,ein,jetzt,wir,viel,"üblichem,",Büschel,immer,viel,auf,aus,Farbe,immer,richtige,"wertvollem,",obwohl,Stimmung,mit,die,dauerte,sind,alten,die,ich,36,Bluts,man,obschon,,,,,,,,,,,,,,,,,,,,,,,10,0,10,0,0,4,4,4,,,,,,,,space,0.167085886002,,,,,,2017_Jan_26_1255,59.898861947,spr_backupper,001,Do13,
,hat,immer,elektrischer,wurden,roten,liegen,kaltem,einem,den,Wäsche.,des,Bundespräsident.,einem,monatlichem,unzureichenden,auf,"reichem,",liegen,was,roten,um,hätten,purem,Auto,die,minimalem,salziger,der,derer,weichem,serviert.,Mann,Skandals,eine,Wetters,war,sauberen,Wetter,salzige,Trinkwasser.,deren,feinem,am,im,einen,täglichem,die,leider,geschleudert.,Kram,vor,noch,elektrische,wurden,im,des,Trinkwassers.,Skandal,die,unzureichenden,leider,serviert.,Glas,frischen,Störenfriede,künftigem,"frischem,",feinem,gelegentlichen,mehr,Wäsche.,Glas,"nachgewiesen,",von,Lärm,harten,frisches,350,Lärm,noch,seltenem,geschleudert.,350,"Zeit,",klassischen,sie,ziemlich,zusätzlichem,Störenfriede,ungefähr,auf,Krams,Tiere,mehr,würden,hat,eine,sie,,,,,,,,,,,,,,,,,,,,,,,10,0,10,0,0,5,5,5,,,,,,,,space,0.660831928253,,,,,,2017_Jan_26_1255,59.898861947,spr_backupper,001,Do13,
,den,ruhig,Energie.,verschrottet.,Planet,die,Abduschen,Esslöffel,Soldaten,nan,Herrn,nan,Esslöffel,Taschengeld,Helmen,jeden,goldenen,die,Tupperware,Planeten,die,seiner,Alkohol,mehr,Flut,täglichen,Wurst,Soldaten,sie,Untergrund,nan,mehr,wiedergewählt.,große,die,aus,Kraftstoff,die,Wurst,nan,sie,dichten,Hauptbahnhof.,Müll.,Besucher.,grünen,er,nichts,nan,aus,Dezember,eine,Energie.,verschrottet.,Müll.,Herrn,nan,wiedergewählt.,Stimmung,Helmen,nichts,nan,köstlicher,Grases,jeden.,Einkommen,kaltem,Kunsteis,Besucher.,als,nan,köstlichen,dass,den,um,Schaumstoff,Gras,ml,um,eine,dichten,nan,ml,um,Schmuck,defekt,"vermiest,",schwarzem,jeden.,drei,jeden,aus,artgerecht,als,seiner,den,große,defekt,,,,,,,,,,,,,,,,,,,,,,,10,0,10,0,0,6,6,6,,,,,,,,space,0.336421966553,,,,,,2017_Jan_26_1255,59.898861947,spr_backupper,001,Do13,
,Boden,diskutiert.,nan,nan,ganz,Slums.,gehärtet.,warmem,des,nan,Gantenbein.,nan,warmen,selber,zur,Fall,Besatz,Slums.,ist.,ganz,Probleme,Frau,verdünnt.,als,zurückgekehrt.,Einsatz,mit,des,überführt,liegen.,nan,als,nan,Menge,Wohnung.,Japan.,fahren.,Wohnung.,mit,nan,überführt,Stoff,nan,nan,nan,Tee,trug.,mitbringen.,nan,dem,stattfinden.,Sammlung,nan,nan,nan,Gantenbeins.,nan,nan,ziemlich,zur,mitbringen.,nan,Wein,zwängen.,nan,haftbar.,Saft,eingesprüht.,nan,einmal,nan,Weins,das,Problemen,jede,gefertigt.,zwängen.,warmer,jede,Sammlung,Gewebe,nan,warme,Nadelhölzer,umgearbeitet.,war.,dass,Kaffee,nan,Tage.,Fall,dem,gehalten.,einmal,Frau,Boden,Menge,war.,,,,,,,,,,,,,,,,,,,,,,,10,0,10,0,0,7,7,7,,,,,,,,space,0.331430912018,,,,,,2017_Jan_26_1255,59.898861947,spr_backupper,001,Do13,
,,,,,,,,,,,,,,,,,,,,,,,,,,,,,,,,,,,,,,,,,,,,,,,,,,,,,,,,,,,,,,,,,,,,,,,,,,,,,,,,,,,,,,,,,,,,,,,,,,,,,,,,,,,,,,,,,,,,,,,,,10,0,10,0,,,,,,,,,,,,,,space,j,1.12771701813,,0.318727016449,2017_Jan_26_1255,59.898861947,spr_backupper,001,Do13,
,Nicht,Fernab,Die,Die,Im,Am,Die,Er,Bei,Dort,Die,Walter,Er,Jugendliche,Die,100,Das,Am,Die,Im,In,Die,Die,Wir,Als,Ihr,Ich,Bei,Es,Jungtiere,Beträchtliche,Wir,Er,Mit,Sie,Die,Wir,Sie,Ich,Sie,Es,Er,Die,Viele,Wir,Ich,Die,Außer,Es,Wir,Unter,Sie,Die,Die,Viele,Die,Sie,Er,Dass,Die,Außer,Beträchtliche,Bei,Wir,Außer,Manche,Sie,Die,Wir,In,Dort,Bei,In,In,Man,Alle,Wir,In,Man,Sie,Danach,Es,In,Jetzt,Die,Die,Es,Die,Außer,Der,100,Wir,In,In,Die,Nicht,Mit,Die,,,,,,,,,,,,,,,,,,,,,,,11,0,11,0,0,0,0,0,,,,,,,None,space,0.505089044571,,,,,,2017_Jan_26_1255,59.898861947,spr_backupper,001,Do13,
,ein,des,Schule,Autos,Fernrohr,äußeren,Formen,stellt,der,türmen,Gäste,Scheel,stellt,können,Kinder,g,Tuch,äußersten,Teilnehmerinnen,Fernrohr,der,Schuhe,Lösung,übergaben,die,Blutdruck,nehme,der,waren,sollten,Stücke,übergaben,wurde,dieser,verlassen,"Uhr,",konnten,verlassen,nehme,verbrauchen,waren,hat,Linie,Tonnen,hatten,wurde,Uhr,dem,wurden,haben,keinen,hatte,Schule,Autos,Tonnen,Gäste,verbrauchen,wurde,es,Kinder,das,Stücke,unserer,mussten,dem,Kreditnehmer,haben,Eislaufbahnen,hatten,meinem,türmen,unserer,einer,der,machte,Betten,mussten,den,machte,hatte,wurde,wurden,den,ist,Stücke,Uhr,hat,müden,den,Flug,g,haben,diesem,meinem,Schuhe,ein,dieser,Uhr,,,,,,,,,,,,,,,,,,,,,,,11,0,11,0,0,1,1,1,,,,,,,,space,0.239058017731,,,,,,2017_Jan_26_1255,59.898861947,spr_backupper,001,Do13,
,Tropfen,Rummels,verbraucht,beider,sahen,Rand,wurden,die,Feier,sich,suchen,war,die,Kleidung,fuhren,brauner,wurde,Rand,wussten,sahen,Tat,in,wird,dem,Sonne,kann,eine,Feier,nur,immer,saftiges,das,trotz,Methode,wegen,die,dann,wegen,eine,60,nur,ein,101,gebrauchter,in,damals,war,Essen,Eimer,jede,Umständen,keine,verbraucht,beider,gebrauchte,suchen,60,trotz,"regnete,",fuhren,Essen,saftigen,Ankunft,uns,Bürgermeister,sind,die,wurden,in,Studium,sich,Ankunft,Studie,Tat,mal,wurden,uns,Kakao,mal,keine,die,Eimer,Kakao,genau,wurden,schlug,uns,Teilnehmer,Bürgermeister,zum,braunen,jede,Zirkus,Studium,in,Tropfen,Methode,schlug,,,,,,,,,,,,,,,,,,,,,,,11,0,11,0,0,2,2,2,,,,,,,,space,0.18280005455,,,,,,2017_Jan_26_1255,59.898861947,spr_backupper,001,Do13,
,königliches,wurde,260.000,beteiligter,wir,der,unter,Masse,gedachte,Berge,die,der,Masse,bei,mit,Zucker,dann,der,überwiegend,wir,wissen,Größe,mit,Mann,"unterging,",schon,große,gedachte,kleinere,auf,Fleisch,Auto,des,kann,des,er,mit,dem,große,Liter,kleinere,Hemd,hält,Kleidung,Dänemark,schnell,aus,kann,roter,Menge,können,Lust,260.000,beteiligten,Kleidung,die,Liter,dem,hat,mit,kann,Fleischs,stand,durch,beschuldigten,mit,Erlebnisse,mit,Dänemark,habe,Berge,stand,wurde,wissen,wieder,mit,durch,gehören,wieder,Lust,Leinwand,rote,gehören,die,aus,"sporadisch,",die,wurden,beschuldigten,Mond,Zuckers,Menge,werden,las,Größe,königlichen,kann,"sporadisch,",,,,,,,,,,,,,,,,,,,,,,,11,0,11,0,0,3,3,3,,,,,,,,space,0.190419912338,,,,,,2017_Jan_26_1255,59.898861947,spr_backupper,001,Do13,
,Blut,schon,Kilowattstunden,Fahrer,den,Stadt,"regelmäßigem,",mit,man,schmutzige,Wohnung,vierte,mit,ausreichendem,solchen,sind,mit,Stadt,"nicht,",den,wir,36,"reichlichem,",das,war,bei,Packung,man,"Delikte,",warmem,wurden,dem,bekannten,man,schönen,"trug,","minimalem,",schönen,Packung,sprudelndes,"Delikte,",aus,nicht,landen,gelegentlich,dank,"Japan,",ich,Farbe,alten,Neuwahlen,auf,Kilowattstunden,Fahrer,landen,Wohnung,sprudelnden,bekannten,uns,solch,ich,wurden,ein,Büschel,die,"sämtlichem,",bei,dauerhaftem,einen,ich,schmutziger,ein,jetzt,wir,viel,"üblichem,",Büschel,immer,viel,auf,aus,Farbe,immer,richtige,"wertvollem,",obwohl,Stimmung,mit,die,dauerte,sind,alten,die,ich,36,Bluts,man,obschon,,,,,,,,,,,,,,,,,,,,,,,11,0,11,0,0,4,4,4,,,,,,,,space,0.179501056671,,,,,,2017_Jan_26_1255,59.898861947,spr_backupper,001,Do13,
,hat,immer,elektrischer,wurden,roten,liegen,kaltem,einem,den,Wäsche.,des,Bundespräsident.,einem,monatlichem,unzureichenden,auf,"reichem,",liegen,was,roten,um,hätten,purem,Auto,die,minimalem,salziger,der,derer,weichem,serviert.,Mann,Skandals,eine,Wetters,war,sauberen,Wetter,salzige,Trinkwasser.,deren,feinem,am,im,einen,täglichem,die,leider,geschleudert.,Kram,vor,noch,elektrische,wurden,im,des,Trinkwassers.,Skandal,die,unzureichenden,leider,serviert.,Glas,frischen,Störenfriede,künftigem,"frischem,",feinem,gelegentlichen,mehr,Wäsche.,Glas,"nachgewiesen,",von,Lärm,harten,frisches,350,Lärm,noch,seltenem,geschleudert.,350,"Zeit,",klassischen,sie,ziemlich,zusätzlichem,Störenfriede,ungefähr,auf,Krams,Tiere,mehr,würden,hat,eine,sie,,,,,,,,,,,,,,,,,,,,,,,11,0,11,0,0,5,5,5,,,,,,,,space,0.385527133942,,,,,,2017_Jan_26_1255,59.898861947,spr_backupper,001,Do13,
,den,ruhig,Energie.,verschrottet.,Planet,die,Abduschen,Esslöffel,Soldaten,nan,Herrn,nan,Esslöffel,Taschengeld,Helmen,jeden,goldenen,die,Tupperware,Planeten,die,seiner,Alkohol,mehr,Flut,täglichen,Wurst,Soldaten,sie,Untergrund,nan,mehr,wiedergewählt.,große,die,aus,Kraftstoff,die,Wurst,nan,sie,dichten,Hauptbahnhof.,Müll.,Besucher.,grünen,er,nichts,nan,aus,Dezember,eine,Energie.,verschrottet.,Müll.,Herrn,nan,wiedergewählt.,Stimmung,Helmen,nichts,nan,köstlicher,Grases,jeden.,Einkommen,kaltem,Kunsteis,Besucher.,als,nan,köstlichen,dass,den,um,Schaumstoff,Gras,ml,um,eine,dichten,nan,ml,um,Schmuck,defekt,"vermiest,",schwarzem,jeden.,drei,jeden,aus,artgerecht,als,seiner,den,große,defekt,,,,,,,,,,,,,,,,,,,,,,,11,0,11,0,0,6,6,6,,,,,,,,space,0.253057003021,,,,,,2017_Jan_26_1255,59.898861947,spr_backupper,001,Do13,
,Boden,diskutiert.,nan,nan,ganz,Slums.,gehärtet.,warmem,des,nan,Gantenbein.,nan,warmen,selber,zur,Fall,Besatz,Slums.,ist.,ganz,Probleme,Frau,verdünnt.,als,zurückgekehrt.,Einsatz,mit,des,überführt,liegen.,nan,als,nan,Menge,Wohnung.,Japan.,fahren.,Wohnung.,mit,nan,überführt,Stoff,nan,nan,nan,Tee,trug.,mitbringen.,nan,dem,stattfinden.,Sammlung,nan,nan,nan,Gantenbeins.,nan,nan,ziemlich,zur,mitbringen.,nan,Wein,zwängen.,nan,haftbar.,Saft,eingesprüht.,nan,einmal,nan,Weins,das,Problemen,jede,gefertigt.,zwängen.,warmer,jede,Sammlung,Gewebe,nan,warme,Nadelhölzer,umgearbeitet.,war.,dass,Kaffee,nan,Tage.,Fall,dem,gehalten.,einmal,Frau,Boden,Menge,war.,,,,,,,,,,,,,,,,,,,,,,,11,0,11,0,0,7,7,7,,,,,,,,space,0.216331005096,,,,,,2017_Jan_26_1255,59.898861947,spr_backupper,001,Do13,
,berührt.,nan,nan,nan,deutlich.,nan,nan,Honig,zweiten,nan,nan,nan,Honigs,kaufen.,Schule.,genug.,rekonstruiert.,nan,nan,deutlich.,im,gepasst.,nan,gerne.,nan,sinken.,an,zweiten,wurden.,nan,nan,gerne.,nan,dunkle,nan,nan,nan,nan,an,nan,wurden.,gefertigt.,nan,nan,nan,wieder,nan,nan,nan,Haus,nan,dumme,nan,nan,nan,nan,nan,nan,vermiest.,Schule.,nan,nan,schon,nan,nan,nan,besprochen.,nan,nan,Rilke,nan,schon,Medikament,im,Menge,nan,nan,Milch.,Menge,dummer,wiederhergestellt.,nan,Milch.,umzusetzen.,nan,nan,es,wiederbelebt.,nan,nan,genug.,Haus,nan,Rilke.,gepasst,berührt.,dunkler,nan,,,,,,,,,,,,,,,,,,,,,,,11,0,11,0,0,8,8,8,,,,,,,,space,0.19734287262,,,,,,2017_Jan_26_1255,59.898861947,spr_backupper,001,Do13,
,,,,,,,,,,,,,,,,,,,,,,,,,,,,,,,,,,,,,,,,,,,,,,,,,,,,,,,,,,,,,,,,,,,,,,,,,,,,,,,,,,,,,,,,,,,,,,,,,,,,,,,,,,,,,,,,,,,,,,,,,11,0,11,0,,,,,,,,,,,,,,None,j,1.32107186317,,,2017_Jan_26_1255,59.898861947,spr_backupper,001,Do13,
,Nicht,Fernab,Die,Die,Im,Am,Die,Er,Bei,Dort,Die,Walter,Er,Jugendliche,Die,100,Das,Am,Die,Im,In,Die,Die,Wir,Als,Ihr,Ich,Bei,Es,Jungtiere,Beträchtliche,Wir,Er,Mit,Sie,Die,Wir,Sie,Ich,Sie,Es,Er,Die,Viele,Wir,Ich,Die,Außer,Es,Wir,Unter,Sie,Die,Die,Viele,Die,Sie,Er,Dass,Die,Außer,Beträchtliche,Bei,Wir,Außer,Manche,Sie,Die,Wir,In,Dort,Bei,In,In,Man,Alle,Wir,In,Man,Sie,Danach,Es,In,Jetzt,Die,Die,Es,Die,Außer,Der,100,Wir,In,In,Die,Nicht,Mit,Die,,,,,,,,,,,,,,,,,,,,,,,12,0,12,0,0,0,0,0,,,,,,,space,space,0.488739013672,,,,1.0567882061,,2017_Jan_26_1255,59.898861947,spr_backupper,001,Do13,
,ein,des,Schule,Autos,Fernrohr,äußeren,Formen,stellt,der,türmen,Gäste,Scheel,stellt,können,Kinder,g,Tuch,äußersten,Teilnehmerinnen,Fernrohr,der,Schuhe,Lösung,übergaben,die,Blutdruck,nehme,der,waren,sollten,Stücke,übergaben,wurde,dieser,verlassen,"Uhr,",konnten,verlassen,nehme,verbrauchen,waren,hat,Linie,Tonnen,hatten,wurde,Uhr,dem,wurden,haben,keinen,hatte,Schule,Autos,Tonnen,Gäste,verbrauchen,wurde,es,Kinder,das,Stücke,unserer,mussten,dem,Kreditnehmer,haben,Eislaufbahnen,hatten,meinem,türmen,unserer,einer,der,machte,Betten,mussten,den,machte,hatte,wurde,wurden,den,ist,Stücke,Uhr,hat,müden,den,Flug,g,haben,diesem,meinem,Schuhe,ein,dieser,Uhr,,,,,,,,,,,,,,,,,,,,,,,12,0,12,0,0,1,1,1,,,,,,,,space,0.318994045258,,,,,,2017_Jan_26_1255,59.898861947,spr_backupper,001,Do13,
,Tropfen,Rummels,verbraucht,beider,sahen,Rand,wurden,die,Feier,sich,suchen,war,die,Kleidung,fuhren,brauner,wurde,Rand,wussten,sahen,Tat,in,wird,dem,Sonne,kann,eine,Feier,nur,immer,saftiges,das,trotz,Methode,wegen,die,dann,wegen,eine,60,nur,ein,101,gebrauchter,in,damals,war,Essen,Eimer,jede,Umständen,keine,verbraucht,beider,gebrauchte,suchen,60,trotz,"regnete,",fuhren,Essen,saftigen,Ankunft,uns,Bürgermeister,sind,die,wurden,in,Studium,sich,Ankunft,Studie,Tat,mal,wurden,uns,Kakao,mal,keine,die,Eimer,Kakao,genau,wurden,schlug,uns,Teilnehmer,Bürgermeister,zum,braunen,jede,Zirkus,Studium,in,Tropfen,Methode,schlug,,,,,,,,,,,,,,,,,,,,,,,12,0,12,0,0,2,2,2,,,,,,,,space,0.235594987869,,,,,,2017_Jan_26_1255,59.898861947,spr_backupper,001,Do13,
,königliches,wurde,260.000,beteiligter,wir,der,unter,Masse,gedachte,Berge,die,der,Masse,bei,mit,Zucker,dann,der,überwiegend,wir,wissen,Größe,mit,Mann,"unterging,",schon,große,gedachte,kleinere,auf,Fleisch,Auto,des,kann,des,er,mit,dem,große,Liter,kleinere,Hemd,hält,Kleidung,Dänemark,schnell,aus,kann,roter,Menge,können,Lust,260.000,beteiligten,Kleidung,die,Liter,dem,hat,mit,kann,Fleischs,stand,durch,beschuldigten,mit,Erlebnisse,mit,Dänemark,habe,Berge,stand,wurde,wissen,wieder,mit,durch,gehören,wieder,Lust,Leinwand,rote,gehören,die,aus,"sporadisch,",die,wurden,beschuldigten,Mond,Zuckers,Menge,werden,las,Größe,königlichen,kann,"sporadisch,",,,,,,,,,,,,,,,,,,,,,,,12,0,12,0,0,3,3,3,,,,,,,,space,0.199383974075,,,,,,2017_Jan_26_1255,59.898861947,spr_backupper,001,Do13,
,Blut,schon,Kilowattstunden,Fahrer,den,Stadt,"regelmäßigem,",mit,man,schmutzige,Wohnung,vierte,mit,ausreichendem,solchen,sind,mit,Stadt,"nicht,",den,wir,36,"reichlichem,",das,war,bei,Packung,man,"Delikte,",warmem,wurden,dem,bekannten,man,schönen,"trug,","minimalem,",schönen,Packung,sprudelndes,"Delikte,",aus,nicht,landen,gelegentlich,dank,"Japan,",ich,Farbe,alten,Neuwahlen,auf,Kilowattstunden,Fahrer,landen,Wohnung,sprudelnden,bekannten,uns,solch,ich,wurden,ein,Büschel,die,"sämtlichem,",bei,dauerhaftem,einen,ich,schmutziger,ein,jetzt,wir,viel,"üblichem,",Büschel,immer,viel,auf,aus,Farbe,immer,richtige,"wertvollem,",obwohl,Stimmung,mit,die,dauerte,sind,alten,die,ich,36,Bluts,man,obschon,,,,,,,,,,,,,,,,,,,,,,,12,0,12,0,0,4,4,4,,,,,,,,space,0.151437997818,,,,,,2017_Jan_26_1255,59.898861947,spr_backupper,001,Do13,
,hat,immer,elektrischer,wurden,roten,liegen,kaltem,einem,den,Wäsche.,des,Bundespräsident.,einem,monatlichem,unzureichenden,auf,"reichem,",liegen,was,roten,um,hätten,purem,Auto,die,minimalem,salziger,der,derer,weichem,serviert.,Mann,Skandals,eine,Wetters,war,sauberen,Wetter,salzige,Trinkwasser.,deren,feinem,am,im,einen,täglichem,die,leider,geschleudert.,Kram,vor,noch,elektrische,wurden,im,des,Trinkwassers.,Skandal,die,unzureichenden,leider,serviert.,Glas,frischen,Störenfriede,künftigem,"frischem,",feinem,gelegentlichen,mehr,Wäsche.,Glas,"nachgewiesen,",von,Lärm,harten,frisches,350,Lärm,noch,seltenem,geschleudert.,350,"Zeit,",klassischen,sie,ziemlich,zusätzlichem,Störenfriede,ungefähr,auf,Krams,Tiere,mehr,würden,hat,eine,sie,,,,,,,,,,,,,,,,,,,,,,,12,0,12,0,0,5,5,5,,,,,,,,space,0.15899181366,,,,,,2017_Jan_26_1255,59.898861947,spr_backupper,001,Do13,
,den,ruhig,Energie.,verschrottet.,Planet,die,Abduschen,Esslöffel,Soldaten,nan,Herrn,nan,Esslöffel,Taschengeld,Helmen,jeden,goldenen,die,Tupperware,Planeten,die,seiner,Alkohol,mehr,Flut,täglichen,Wurst,Soldaten,sie,Untergrund,nan,mehr,wiedergewählt.,große,die,aus,Kraftstoff,die,Wurst,nan,sie,dichten,Hauptbahnhof.,Müll.,Besucher.,grünen,er,nichts,nan,aus,Dezember,eine,Energie.,verschrottet.,Müll.,Herrn,nan,wiedergewählt.,Stimmung,Helmen,nichts,nan,köstlicher,Grases,jeden.,Einkommen,kaltem,Kunsteis,Besucher.,als,nan,köstlichen,dass,den,um,Schaumstoff,Gras,ml,um,eine,dichten,nan,ml,um,Schmuck,defekt,"vermiest,",schwarzem,jeden.,drei,jeden,aus,artgerecht,als,seiner,den,große,defekt,,,,,,,,,,,,,,,,,,,,,,,12,0,12,0,0,6,6,6,,,,,,,,space,0.16699385643,,,,,,2017_Jan_26_1255,59.898861947,spr_backupper,001,Do13,
,Boden,diskutiert.,nan,nan,ganz,Slums.,gehärtet.,warmem,des,nan,Gantenbein.,nan,warmen,selber,zur,Fall,Besatz,Slums.,ist.,ganz,Probleme,Frau,verdünnt.,als,zurückgekehrt.,Einsatz,mit,des,überführt,liegen.,nan,als,nan,Menge,Wohnung.,Japan.,fahren.,Wohnung.,mit,nan,überführt,Stoff,nan,nan,nan,Tee,trug.,mitbringen.,nan,dem,stattfinden.,Sammlung,nan,nan,nan,Gantenbeins.,nan,nan,ziemlich,zur,mitbringen.,nan,Wein,zwängen.,nan,haftbar.,Saft,eingesprüht.,nan,einmal,nan,Weins,das,Problemen,jede,gefertigt.,zwängen.,warmer,jede,Sammlung,Gewebe,nan,warme,Nadelhölzer,umgearbeitet.,war.,dass,Kaffee,nan,Tage.,Fall,dem,gehalten.,einmal,Frau,Boden,Menge,war.,,,,,,,,,,,,,,,,,,,,,,,12,0,12,0,0,7,7,7,,,,,,,,space,0.139182806015,,,,,,2017_Jan_26_1255,59.898861947,spr_backupper,001,Do13,
,berührt.,nan,nan,nan,deutlich.,nan,nan,Honig,zweiten,nan,nan,nan,Honigs,kaufen.,Schule.,genug.,rekonstruiert.,nan,nan,deutlich.,im,gepasst.,nan,gerne.,nan,sinken.,an,zweiten,wurden.,nan,nan,gerne.,nan,dunkle,nan,nan,nan,nan,an,nan,wurden.,gefertigt.,nan,nan,nan,wieder,nan,nan,nan,Haus,nan,dumme,nan,nan,nan,nan,nan,nan,vermiest.,Schule.,nan,nan,schon,nan,nan,nan,besprochen.,nan,nan,Rilke,nan,schon,Medikament,im,Menge,nan,nan,Milch.,Menge,dummer,wiederhergestellt.,nan,Milch.,umzusetzen.,nan,nan,es,wiederbelebt.,nan,nan,genug.,Haus,nan,Rilke.,gepasst,berührt.,dunkler,nan,,,,,,,,,,,,,,,,,,,,,,,12,0,12,0,0,8,8,8,,,,,,,,space,0.343240976334,,,,,,2017_Jan_26_1255,59.898861947,spr_backupper,001,Do13,
,nan,nan,nan,nan,nan,nan,nan,her.,Weltkriegs.,nan,nan,nan,her.,nan,nan,nan,nan,nan,nan,nan,Landkreis.,nan,nan,nan,nan,nan,den,Weltkriegs.,nan,nan,nan,nan,nan,Materie,nan,nan,nan,nan,den,nan,nan,nan,nan,nan,nan,fit.,nan,nan,nan,geschafft.,nan,Sprüche.,nan,nan,nan,nan,nan,nan,nan,nan,nan,nan,auf,nan,nan,nan,nan,nan,nan,gelesen.,nan,auf,nicht,Landkreis.,heißer,nan,nan,nan,heiße,Sprüche.,nan,nan,nan,nan,nan,nan,regnete.,nan,nan,nan,nan,geschafft.,nan,nan,haben.,nan,Materie,nan,,,,,,,,,,,,,,,,,,,,,,,12,0,12,0,0,9,9,9,,,,,,,,space,0.165099143982,,,,,,2017_Jan_26_1255,59.898861947,spr_backupper,001,Do13,
,,,,,,,,,,,,,,,,,,,,,,,,,,,,,,,,,,,,,,,,,,,,,,,,,,,,,,,,,,,,,,,,,,,,,,,,,,,,,,,,,,,,,,,,,,,,,,,,,,,,,,,,,,,,,,,,,,,,,,,,,12,0,12,0,,,,,,,,,,,,,,None,j,2.14697408676,,,2017_Jan_26_1255,59.898861947,spr_backupper,001,Do13,
,Nicht,Fernab,Die,Die,Im,Am,Die,Er,Bei,Dort,Die,Walter,Er,Jugendliche,Die,100,Das,Am,Die,Im,In,Die,Die,Wir,Als,Ihr,Ich,Bei,Es,Jungtiere,Beträchtliche,Wir,Er,Mit,Sie,Die,Wir,Sie,Ich,Sie,Es,Er,Die,Viele,Wir,Ich,Die,Außer,Es,Wir,Unter,Sie,Die,Die,Viele,Die,Sie,Er,Dass,Die,Außer,Beträchtliche,Bei,Wir,Außer,Manche,Sie,Die,Wir,In,Dort,Bei,In,In,Man,Alle,Wir,In,Man,Sie,Danach,Es,In,Jetzt,Die,Die,Es,Die,Außer,Der,100,Wir,In,In,Die,Nicht,Mit,Die,,,,,,,,,,,,,,,,,,,,,,,13,0,13,0,0,0,0,0,,,,,,,None,space,0.827279806137,,,,,,2017_Jan_26_1255,59.898861947,spr_backupper,001,Do13,
,ein,des,Schule,Autos,Fernrohr,äußeren,Formen,stellt,der,türmen,Gäste,Scheel,stellt,können,Kinder,g,Tuch,äußersten,Teilnehmerinnen,Fernrohr,der,Schuhe,Lösung,übergaben,die,Blutdruck,nehme,der,waren,sollten,Stücke,übergaben,wurde,dieser,verlassen,"Uhr,",konnten,verlassen,nehme,verbrauchen,waren,hat,Linie,Tonnen,hatten,wurde,Uhr,dem,wurden,haben,keinen,hatte,Schule,Autos,Tonnen,Gäste,verbrauchen,wurde,es,Kinder,das,Stücke,unserer,mussten,dem,Kreditnehmer,haben,Eislaufbahnen,hatten,meinem,türmen,unserer,einer,der,machte,Betten,mussten,den,machte,hatte,wurde,wurden,den,ist,Stücke,Uhr,hat,müden,den,Flug,g,haben,diesem,meinem,Schuhe,ein,dieser,Uhr,,,,,,,,,,,,,,,,,,,,,,,13,0,13,0,0,1,1,1,,,,,,,,space,0.196305036545,,,,,,2017_Jan_26_1255,59.898861947,spr_backupper,001,Do13,
,Tropfen,Rummels,verbraucht,beider,sahen,Rand,wurden,die,Feier,sich,suchen,war,die,Kleidung,fuhren,brauner,wurde,Rand,wussten,sahen,Tat,in,wird,dem,Sonne,kann,eine,Feier,nur,immer,saftiges,das,trotz,Methode,wegen,die,dann,wegen,eine,60,nur,ein,101,gebrauchter,in,damals,war,Essen,Eimer,jede,Umständen,keine,verbraucht,beider,gebrauchte,suchen,60,trotz,"regnete,",fuhren,Essen,saftigen,Ankunft,uns,Bürgermeister,sind,die,wurden,in,Studium,sich,Ankunft,Studie,Tat,mal,wurden,uns,Kakao,mal,keine,die,Eimer,Kakao,genau,wurden,schlug,uns,Teilnehmer,Bürgermeister,zum,braunen,jede,Zirkus,Studium,in,Tropfen,Methode,schlug,,,,,,,,,,,,,,,,,,,,,,,13,0,13,0,0,2,2,2,,,,,,,,space,0.180094957352,,,,,,2017_Jan_26_1255,59.898861947,spr_backupper,001,Do13,
,königliches,wurde,260.000,beteiligter,wir,der,unter,Masse,gedachte,Berge,die,der,Masse,bei,mit,Zucker,dann,der,überwiegend,wir,wissen,Größe,mit,Mann,"unterging,",schon,große,gedachte,kleinere,auf,Fleisch,Auto,des,kann,des,er,mit,dem,große,Liter,kleinere,Hemd,hält,Kleidung,Dänemark,schnell,aus,kann,roter,Menge,können,Lust,260.000,beteiligten,Kleidung,die,Liter,dem,hat,mit,kann,Fleischs,stand,durch,beschuldigten,mit,Erlebnisse,mit,Dänemark,habe,Berge,stand,wurde,wissen,wieder,mit,durch,gehören,wieder,Lust,Leinwand,rote,gehören,die,aus,"sporadisch,",die,wurden,beschuldigten,Mond,Zuckers,Menge,werden,las,Größe,königlichen,kann,"sporadisch,",,,,,,,,,,,,,,,,,,,,,,,13,0,13,0,0,3,3,3,,,,,,,,space,0.178785800934,,,,,,2017_Jan_26_1255,59.898861947,spr_backupper,001,Do13,
,Blut,schon,Kilowattstunden,Fahrer,den,Stadt,"regelmäßigem,",mit,man,schmutzige,Wohnung,vierte,mit,ausreichendem,solchen,sind,mit,Stadt,"nicht,",den,wir,36,"reichlichem,",das,war,bei,Packung,man,"Delikte,",warmem,wurden,dem,bekannten,man,schönen,"trug,","minimalem,",schönen,Packung,sprudelndes,"Delikte,",aus,nicht,landen,gelegentlich,dank,"Japan,",ich,Farbe,alten,Neuwahlen,auf,Kilowattstunden,Fahrer,landen,Wohnung,sprudelnden,bekannten,uns,solch,ich,wurden,ein,Büschel,die,"sämtlichem,",bei,dauerhaftem,einen,ich,schmutziger,ein,jetzt,wir,viel,"üblichem,",Büschel,immer,viel,auf,aus,Farbe,immer,richtige,"wertvollem,",obwohl,Stimmung,mit,die,dauerte,sind,alten,die,ich,36,Bluts,man,obschon,,,,,,,,,,,,,,,,,,,,,,,13,0,13,0,0,4,4,4,,,,,,,,space,0.168483972549,,,,,,2017_Jan_26_1255,59.898861947,spr_backupper,001,Do13,
,hat,immer,elektrischer,wurden,roten,liegen,kaltem,einem,den,Wäsche.,des,Bundespräsident.,einem,monatlichem,unzureichenden,auf,"reichem,",liegen,was,roten,um,hätten,purem,Auto,die,minimalem,salziger,der,derer,weichem,serviert.,Mann,Skandals,eine,Wetters,war,sauberen,Wetter,salzige,Trinkwasser.,deren,feinem,am,im,einen,täglichem,die,leider,geschleudert.,Kram,vor,noch,elektrische,wurden,im,des,Trinkwassers.,Skandal,die,unzureichenden,leider,serviert.,Glas,frischen,Störenfriede,künftigem,"frischem,",feinem,gelegentlichen,mehr,Wäsche.,Glas,"nachgewiesen,",von,Lärm,harten,frisches,350,Lärm,noch,seltenem,geschleudert.,350,"Zeit,",klassischen,sie,ziemlich,zusätzlichem,Störenfriede,ungefähr,auf,Krams,Tiere,mehr,würden,hat,eine,sie,,,,,,,,,,,,,,,,,,,,,,,13,0,13,0,0,5,5,5,,,,,,,,space,0.184185028076,,,,,,2017_Jan_26_1255,59.898861947,spr_backupper,001,Do13,
,den,ruhig,Energie.,verschrottet.,Planet,die,Abduschen,Esslöffel,Soldaten,nan,Herrn,nan,Esslöffel,Taschengeld,Helmen,jeden,goldenen,die,Tupperware,Planeten,die,seiner,Alkohol,mehr,Flut,täglichen,Wurst,Soldaten,sie,Untergrund,nan,mehr,wiedergewählt.,große,die,aus,Kraftstoff,die,Wurst,nan,sie,dichten,Hauptbahnhof.,Müll.,Besucher.,grünen,er,nichts,nan,aus,Dezember,eine,Energie.,verschrottet.,Müll.,Herrn,nan,wiedergewählt.,Stimmung,Helmen,nichts,nan,köstlicher,Grases,jeden.,Einkommen,kaltem,Kunsteis,Besucher.,als,nan,köstlichen,dass,den,um,Schaumstoff,Gras,ml,um,eine,dichten,nan,ml,um,Schmuck,defekt,"vermiest,",schwarzem,jeden.,drei,jeden,aus,artgerecht,als,seiner,den,große,defekt,,,,,,,,,,,,,,,,,,,,,,,13,0,13,0,0,6,6,6,,,,,,,,space,0.151921033859,,,,,,2017_Jan_26_1255,59.898861947,spr_backupper,001,Do13,
,Boden,diskutiert.,nan,nan,ganz,Slums.,gehärtet.,warmem,des,nan,Gantenbein.,nan,warmen,selber,zur,Fall,Besatz,Slums.,ist.,ganz,Probleme,Frau,verdünnt.,als,zurückgekehrt.,Einsatz,mit,des,überführt,liegen.,nan,als,nan,Menge,Wohnung.,Japan.,fahren.,Wohnung.,mit,nan,überführt,Stoff,nan,nan,nan,Tee,trug.,mitbringen.,nan,dem,stattfinden.,Sammlung,nan,nan,nan,Gantenbeins.,nan,nan,ziemlich,zur,mitbringen.,nan,Wein,zwängen.,nan,haftbar.,Saft,eingesprüht.,nan,einmal,nan,Weins,das,Problemen,jede,gefertigt.,zwängen.,warmer,jede,Sammlung,Gewebe,nan,warme,Nadelhölzer,umgearbeitet.,war.,dass,Kaffee,nan,Tage.,Fall,dem,gehalten.,einmal,Frau,Boden,Menge,war.,,,,,,,,,,,,,,,,,,,,,,,13,0,13,0,0,7,7,7,,,,,,,,space,0.157294034958,,,,,,2017_Jan_26_1255,59.898861947,spr_backupper,001,Do13,
,berührt.,nan,nan,nan,deutlich.,nan,nan,Honig,zweiten,nan,nan,nan,Honigs,kaufen.,Schule.,genug.,rekonstruiert.,nan,nan,deutlich.,im,gepasst.,nan,gerne.,nan,sinken.,an,zweiten,wurden.,nan,nan,gerne.,nan,dunkle,nan,nan,nan,nan,an,nan,wurden.,gefertigt.,nan,nan,nan,wieder,nan,nan,nan,Haus,nan,dumme,nan,nan,nan,nan,nan,nan,vermiest.,Schule.,nan,nan,schon,nan,nan,nan,besprochen.,nan,nan,Rilke,nan,schon,Medikament,im,Menge,nan,nan,Milch.,Menge,dummer,wiederhergestellt.,nan,Milch.,umzusetzen.,nan,nan,es,wiederbelebt.,nan,nan,genug.,Haus,nan,Rilke.,gepasst,berührt.,dunkler,nan,,,,,,,,,,,,,,,,,,,,,,,13,0,13,0,0,8,8,8,,,,,,,,space,0.168375968933,,,,,,2017_Jan_26_1255,59.898861947,spr_backupper,001,Do13,
,nan,nan,nan,nan,nan,nan,nan,her.,Weltkriegs.,nan,nan,nan,her.,nan,nan,nan,nan,nan,nan,nan,Landkreis.,nan,nan,nan,nan,nan,den,Weltkriegs.,nan,nan,nan,nan,nan,Materie,nan,nan,nan,nan,den,nan,nan,nan,nan,nan,nan,fit.,nan,nan,nan,geschafft.,nan,Sprüche.,nan,nan,nan,nan,nan,nan,nan,nan,nan,nan,auf,nan,nan,nan,nan,nan,nan,gelesen.,nan,auf,nicht,Landkreis.,heißer,nan,nan,nan,heiße,Sprüche.,nan,nan,nan,nan,nan,nan,regnete.,nan,nan,nan,nan,geschafft.,nan,nan,haben.,nan,Materie,nan,,,,,,,,,,,,,,,,,,,,,,,13,0,13,0,0,9,9,9,,,,,,,,space,0.174746990204,,,,,,2017_Jan_26_1255,59.898861947,spr_backupper,001,Do13,
,,,,,,,,,,,,,,,,,,,,,,,,,,,,,,,,,,,,,,,,,,,,,,,,,,,,,,,,,,,,,,,,,,,,,,,,,,,,,,,,,,,,,,,,,,,,,,,,,,,,,,,,,,,,,,,,,,,,,,,,,13,0,13,0,,,,,,,,,,,,,,None,j,2.03025698662,,,2017_Jan_26_1255,59.898861947,spr_backupper,001,Do13,
,Nicht,Fernab,Die,Die,Im,Am,Die,Er,Bei,Dort,Die,Walter,Er,Jugendliche,Die,100,Das,Am,Die,Im,In,Die,Die,Wir,Als,Ihr,Ich,Bei,Es,Jungtiere,Beträchtliche,Wir,Er,Mit,Sie,Die,Wir,Sie,Ich,Sie,Es,Er,Die,Viele,Wir,Ich,Die,Außer,Es,Wir,Unter,Sie,Die,Die,Viele,Die,Sie,Er,Dass,Die,Außer,Beträchtliche,Bei,Wir,Außer,Manche,Sie,Die,Wir,In,Dort,Bei,In,In,Man,Alle,Wir,In,Man,Sie,Danach,Es,In,Jetzt,Die,Die,Es,Die,Außer,Der,100,Wir,In,In,Die,Nicht,Mit,Die,,,,,,,,,,,,,,,,,,,,,,,14,0,14,0,0,0,0,0,,,,,,,None,space,1.44293689728,,,,,,2017_Jan_26_1255,59.898861947,spr_backupper,001,Do13,
,ein,des,Schule,Autos,Fernrohr,äußeren,Formen,stellt,der,türmen,Gäste,Scheel,stellt,können,Kinder,g,Tuch,äußersten,Teilnehmerinnen,Fernrohr,der,Schuhe,Lösung,übergaben,die,Blutdruck,nehme,der,waren,sollten,Stücke,übergaben,wurde,dieser,verlassen,"Uhr,",konnten,verlassen,nehme,verbrauchen,waren,hat,Linie,Tonnen,hatten,wurde,Uhr,dem,wurden,haben,keinen,hatte,Schule,Autos,Tonnen,Gäste,verbrauchen,wurde,es,Kinder,das,Stücke,unserer,mussten,dem,Kreditnehmer,haben,Eislaufbahnen,hatten,meinem,türmen,unserer,einer,der,machte,Betten,mussten,den,machte,hatte,wurde,wurden,den,ist,Stücke,Uhr,hat,müden,den,Flug,g,haben,diesem,meinem,Schuhe,ein,dieser,Uhr,,,,,,,,,,,,,,,,,,,,,,,14,0,14,0,0,1,1,1,,,,,,,,space,0.164464950562,,,,,,2017_Jan_26_1255,59.898861947,spr_backupper,001,Do13,
,Tropfen,Rummels,verbraucht,beider,sahen,Rand,wurden,die,Feier,sich,suchen,war,die,Kleidung,fuhren,brauner,wurde,Rand,wussten,sahen,Tat,in,wird,dem,Sonne,kann,eine,Feier,nur,immer,saftiges,das,trotz,Methode,wegen,die,dann,wegen,eine,60,nur,ein,101,gebrauchter,in,damals,war,Essen,Eimer,jede,Umständen,keine,verbraucht,beider,gebrauchte,suchen,60,trotz,"regnete,",fuhren,Essen,saftigen,Ankunft,uns,Bürgermeister,sind,die,wurden,in,Studium,sich,Ankunft,Studie,Tat,mal,wurden,uns,Kakao,mal,keine,die,Eimer,Kakao,genau,wurden,schlug,uns,Teilnehmer,Bürgermeister,zum,braunen,jede,Zirkus,Studium,in,Tropfen,Methode,schlug,,,,,,,,,,,,,,,,,,,,,,,14,0,14,0,0,2,2,2,,,,,,,,space,0.158210039139,,,,,,2017_Jan_26_1255,59.898861947,spr_backupper,001,Do13,
