text,sent48,sent9,sent8,sent15,sent3,sent2,sent1,sent14,sent7,sent6,sent5,sent4,sent57,sent56,sent55,sent54,sent53,sent52,sent51,sent50,sent13,sent12,sent11,sent10,sent17,sent16,sent59,sent58,sent93,sent92,sent91,sent90,sent97,sent96,sent95,sent94,sent98,sent22,sent23,sent20,sent21,sent26,sent27,sent24,sent25,sent28,sent29,sent68,sent69,sent66,sent67,sent64,sent65,sent62,sent63,sent60,sent61,sent31,sent30,sent33,sent32,sent35,sent34,sent37,sent36,sent39,sent38,sent79,sent78,sent75,sent74,sent77,sent76,sent71,sent70,sent73,sent72,sent19,sent49,sent18,sent44,sent45,sent84,sent85,sent86,sent87,sent80,sent81,sent82,sent83,sent40,sent41,sent42,sent43,sent88,sent89,sent46,sent47,intros.thisRepN,intros.thisTrialN,intros.thisN,intros.thisIndex,trials.thisRepN,trials.thisTrialN,trials.thisN,trials.thisIndex,testWords.thisRepN,testWords.thisTrialN,testWords.thisN,testWords.thisIndex,test1,test3,test2,test5,test4,test7,test6,test9,test8,test10,realTrials.thisRepN,realTrials.thisTrialN,realTrials.thisN,realTrials.thisIndex,words.thisRepN,words.thisTrialN,words.thisN,words.thisIndex,key_resp_3.keys,key_resp_3.rt,key_resp_8.keys,key_resp_10.keys,key_resp_10.rt,key_resp_6.keys,wordRead.keys,wordRead.rt,key_resp_5.keys,questAnswer.keys,questAnswer.rt,key_resp_6.rt,key_resp_5.rt,date,frameRate,expName,session,participant,
"Vielen Dank, dass Sie an diesem Experiment teilnehmen. Vor dem eigentlichen Experiment sehen Sie nun zuerst eine kurze Erläuterung, und Sie absolvieren ein kurze Übungsphase.

Das Experiment dauert insgesamt nicht mehr als 45 Minuten.",,,,,,,,,,,,,,,,,,,,,,,,,,,,,,,,,,,,,,,,,,,,,,,,,,,,,,,,,,,,,,,,,,,,,,,,,,,,,,,,,,,,,,,,,,,,,,,,,,,0,0,0,0,,,,,,,,,,,,,,,,,,,,,,,,,,,,,,,,,,,,,,,,2017_Jan_26_1356,59.8057665463,spr_backupper,001,Do14,
"In diesem Experiment lesen Sie deutsche Sätze, indem Sie sich von Wort zu Wort mit der Leertaste durch den Satz klicken.",,,,,,,,,,,,,,,,,,,,,,,,,,,,,,,,,,,,,,,,,,,,,,,,,,,,,,,,,,,,,,,,,,,,,,,,,,,,,,,,,,,,,,,,,,,,,,,,,,,0,1,1,1,,,,,,,,,,,,,,,,,,,,,,,,,,,,,,,,,,,,,,,,2017_Jan_26_1356,59.8057665463,spr_backupper,001,Do14,
"Sie sehen dabei immer nur das aktuelle Wort. Die Lesegeschwindigkeit bestimmen Sie vollständig selber. Vor jedem Satz sehen Sie in der Bildschirmmitte für zwei Sekunden ein + an der Stelle, an der dann die Wörter erscheinen.",,,,,,,,,,,,,,,,,,,,,,,,,,,,,,,,,,,,,,,,,,,,,,,,,,,,,,,,,,,,,,,,,,,,,,,,,,,,,,,,,,,,,,,,,,,,,,,,,,,0,2,2,2,,,,,,,,,,,,,,,,,,,,,,,,,,,,,,,,,,,,,,,,2017_Jan_26_1356,59.8057665463,spr_backupper,001,Do14,
"Nach jedem Satz wird Ihnen eine Ja/Nein-Verständnisfrage zum zuvor gelesenen Satz gestellt, die Sie mit der J-Taste für "Ja" und der N-Taste für "Nein" beantworten. Antworten Sie möglichst spontan und ohne lange Nachzudenken.",,,,,,,,,,,,,,,,,,,,,,,,,,,,,,,,,,,,,,,,,,,,,,,,,,,,,,,,,,,,,,,,,,,,,,,,,,,,,,,,,,,,,,,,,,,,,,,,,,,0,3,3,3,,,,,,,,,,,,,,,,,,,,,,,,,,,,,,,,,,,,,,,,2017_Jan_26_1356,59.8057665463,spr_backupper,001,Do14,
"Unterbrechen Sie das Experiment bitte auf keinen Fall, stellen Sie den ExperimentatorInnen nach dem Experimentbeginn keine Fragen, und lassen Sie sich nicht durch Umgebungsgeräusche ablenken.",,,,,,,,,,,,,,,,,,,,,,,,,,,,,,,,,,,,,,,,,,,,,,,,,,,,,,,,,,,,,,,,,,,,,,,,,,,,,,,,,,,,,,,,,,,,,,,,,,,0,4,4,4,,,,,,,,,,,,,,,,,,,,,,,,,,,,,,,,,,,,,,,,2017_Jan_26_1356,59.8057665463,spr_backupper,001,Do14,
"Im nächsten Schritt beantworten Sie bitte eine Frage zu Ihren Deutschkenntnissen. Danach beginnt eine Übungseinheit, mit der Sie sich an die Art der Durchführung dieses Experiments gewöhnen können.",,,,,,,,,,,,,,,,,,,,,,,,,,,,,,,,,,,,,,,,,,,,,,,,,,,,,,,,,,,,,,,,,,,,,,,,,,,,,,,,,,,,,,,,,,,,,,,,,,,0,5,5,5,,,,,,,,,,,,,,,,,,,,,,,,,,,,,,,,,,,,,,,,2017_Jan_26_1356,59.8057665463,spr_backupper,001,Do14,
,,,,,,,,,,,,,,,,,,,,,,,,,,,,,,,,,,,,,,,,,,,,,,,,,,,,,,,,,,,,,,,,,,,,,,,,,,,,,,,,,,,,,,,,,,,,,,,,,,,,,,,,,,,,,,,,,,,,,,,,,,,,,,,,,j,5.93684697151,,,,,,,,,,,,2017_Jan_26_1356,59.8057665463,spr_backupper,001,Do14,
,,,,,,,,,,,,,,,,,,,,,,,,,,,,,,,,,,,,,,,,,,,,,,,,,,,,,,,,,,,,,,,,,,,,,,,,,,,,,,,,,,,,,,,,,,,,,,,,,,,,,,,0,0,0,0,,,,,,,,,,,,,,,,,,,,,,,,,None,,,,,,,,,,,2017_Jan_26_1356,59.8057665463,spr_backupper,001,Do14,
,,,,,,,,,,,,,,,,,,,,,,,,,,,,,,,,,,,,,,,,,,,,,,,,,,,,,,,,,,,,,,,,,,,,,,,,,,,,,,,,,,,,,,,,,,,,,,,,,,,,,,,1,0,1,0,,,,,,,,,,,,,,,,,,,,,,,,,None,,,,,,,,,,,2017_Jan_26_1356,59.8057665463,spr_backupper,001,Do14,
,,,,,,,,,,,,,,,,,,,,,,,,,,,,,,,,,,,,,,,,,,,,,,,,,,,,,,,,,,,,,,,,,,,,,,,,,,,,,,,,,,,,,,,,,,,,,,,,,,,,,,,2,0,2,0,,,,,,,,,,,,,,,,,,,,,,,,,None,,,,,,,,,,,2017_Jan_26_1356,59.8057665463,spr_backupper,001,Do14,
,,,,,,,,,,,,,,,,,,,,,,,,,,,,,,,,,,,,,,,,,,,,,,,,,,,,,,,,,,,,,,,,,,,,,,,,,,,,,,,,,,,,,,,,,,,,,,,,,,,,,,,3,0,3,0,,,,,,,,,,,,,,,,,,,,,,,,,None,,,,,,,,,,,2017_Jan_26_1356,59.8057665463,spr_backupper,001,Do14,
,,,,,,,,,,,,,,,,,,,,,,,,,,,,,,,,,,,,,,,,,,,,,,,,,,,,,,,,,,,,,,,,,,,,,,,,,,,,,,,,,,,,,,,,,,,,,,,,,,,,,,,4,0,4,0,,,,,,,,,,,,,,,,,,,,,,,,,None,,,,,,,,,,,2017_Jan_26_1356,59.8057665463,spr_backupper,001,Do14,
,,,,,,,,,,,,,,,,,,,,,,,,,,,,,,,,,,,,,,,,,,,,,,,,,,,,,,,,,,,,,,,,,,,,,,,,,,,,,,,,,,,,,,,,,,,,,,,,,,,,,,,5,0,5,0,,,,,,,,,,,,,,,,,,,,,,,,,None,,,,,,,,,,,2017_Jan_26_1356,59.8057665463,spr_backupper,001,Do14,
,,,,,,,,,,,,,,,,,,,,,,,,,,,,,,,,,,,,,,,,,,,,,,,,,,,,,,,,,,,,,,,,,,,,,,,,,,,,,,,,,,,,,,,,,,,,,,,,,,,,,,,6,0,6,0,,,,,,,,,,,,,,,,,,,,,,,,,None,,,,,,,,,,,2017_Jan_26_1356,59.8057665463,spr_backupper,001,Do14,
,,,,,,,,,,,,,,,,,,,,,,,,,,,,,,,,,,,,,,,,,,,,,,,,,,,,,,,,,,,,,,,,,,,,,,,,,,,,,,,,,,,,,,,,,,,,,,,,,,,,,,,7,0,7,0,,,,,,,,,,,,,,,,,,,,,,,,,None,,,,,,,,,,,2017_Jan_26_1356,59.8057665463,spr_backupper,001,Do14,
,,,,,,,,,,,,,,,,,,,,,,,,,,,,,,,,,,,,,,,,,,,,,,,,,,,,,,,,,,,,,,,,,,,,,,,,,,,,,,,,,,,,,,,,,,,,,,,,,,,,,,,8,0,8,0,,,,,,,,,,,,,,,,,,,,,,,,,None,,,,,,,,,,,2017_Jan_26_1356,59.8057665463,spr_backupper,001,Do14,
,,,,,,,,,,,,,,,,,,,,,,,,,,,,,,,,,,,,,,,,,,,,,,,,,,,,,,,,,,,,,,,,,,,,,,,,,,,,,,,,,,,,,,,,,,,,,,,,,,,,,,,9,0,9,0,,,,,,,,,,,,,,,,,,,,,,,,,None,,,,,,,,,,,2017_Jan_26_1356,59.8057665463,spr_backupper,001,Do14,
,,,,,,,,,,,,,,,,,,,,,,,,,,,,,,,,,,,,,,,,,,,,,,,,,,,,,,,,,,,,,,,,,,,,,,,,,,,,,,,,,,,,,,,,,,,,,,,,,,,,,,,,,,,,,,,,,,,,,,,,,,,,,,,,,,,,space,3.35381793976,,,,,,,,,2017_Jan_26_1356,59.8057665463,spr_backupper,001,Do14,
,Die,Die,Alle,Sie,Beträchtliche,Nicht,Er,Sie,Im,Es,Die,In,Außer,Die,Manche,Die,Wir,Die,Dort,Bei,Jungtiere,Jetzt,Man,Der,Bei,Außer,Sie,Beträchtliche,Am,Als,In,Wir,Er,Man,Die,Fernab,Er,Das,Dort,In,Es,Sie,Es,Wir,Mit,Er,Die,Es,100,Sie,Die,Die,Ihr,Mit,Danach,Die,Dass,In,Wir,Am,Die,Unter,Wir,100,Bei,Jugendliche,Die,Sie,Viele,Im,Es,Die,Walter,Er,Die,Sie,Außer,Die,Wir,Die,Außer,Ich,Ich,Wir,Wir,Bei,In,In,In,Die,Viele,In,Die,Wir,Ich,Nicht,Die,Die,,,,,,,,,,,,,,,,,,,,,,,0,0,0,0,0,0,0,0,,,,,,None,space,0.669055938721,,,,,,2017_Jan_26_1356,59.8057665463,spr_backupper,001,Do14,
,Eislaufbahnen,Schule,Betten,verbrauchen,Stücke,ein,stellt,verlassen,Fernrohr,hat,Uhr,den,das,Formen,Kreditnehmer,Uhr,mussten,Lösung,türmen,unserer,sollten,ist,machte,Flug,der,dem,hatte,Stücke,äußeren,die,meinem,hatten,wurde,machte,Schuhe,des,hat,Tuch,türmen,der,waren,hatte,wurden,hatten,dieser,wurde,Kinder,wurden,g,haben,Schule,Kinder,Blutdruck,dieser,wurde,Uhr,es,einer,konnten,äußersten,Teilnehmerinnen,keinen,übergaben,g,unserer,können,müden,verbrauchen,Tonnen,Fernrohr,waren,Autos,Scheel,stellt,Linie,verlassen,dem,Autos,mussten,Stücke,den,nehme,nehme,übergaben,haben,der,der,den,diesem,Gäste,Tonnen,meinem,"Uhr,",haben,wurde,ein,Schuhe,Gäste,,,,,,,,,,,,,,,,,,,,,,,0,0,0,0,0,1,1,1,,,,,,,space,0.373470067978,,,,,,2017_Jan_26_1356,59.8057665463,spr_backupper,001,Do14,
,wurden,verbraucht,wurden,60,saftiges,Tropfen,die,wegen,sahen,uns,schlug,Kakao,Essen,wurden,sind,war,uns,wird,sich,Ankunft,immer,genau,mal,zum,Feier,Essen,keine,saftigen,Rand,Sonne,Studium,in,trotz,mal,in,Rummels,ein,wurde,sich,Tat,nur,keine,Eimer,in,Methode,trotz,fuhren,Eimer,braunen,die,verbraucht,fuhren,kann,Methode,die,schlug,"regnete,",Studie,dann,Rand,wussten,Umständen,das,brauner,Ankunft,Kleidung,Teilnehmer,60,gebrauchter,sahen,nur,beider,war,die,101,wegen,Bürgermeister,beider,uns,wurden,Bürgermeister,eine,eine,dem,jede,Feier,Tat,Kakao,Zirkus,suchen,gebrauchte,Studium,die,jede,damals,Tropfen,in,suchen,,,,,,,,,,,,,,,,,,,,,,,0,0,0,0,0,2,2,2,,,,,,,space,0.363755226135,,,,,,2017_Jan_26_1356,59.8057665463,spr_backupper,001,Do14,
,mit,260.000,mit,Liter,Fleisch,königlichen,Masse,des,wir,die,"sporadisch,",gehören,kann,unter,mit,aus,durch,mit,Berge,stand,auf,die,wieder,Mond,gedachte,kann,Lust,Fleischs,der,"unterging,",las,Dänemark,dem,wieder,Größe,wurde,Hemd,dann,Berge,wissen,kleinere,Lust,roter,Dänemark,kann,des,mit,rote,Zuckers,Erlebnisse,260.000,mit,schon,kann,Leinwand,"sporadisch,",hat,wurde,mit,der,überwiegend,können,Auto,Zucker,stand,bei,wurden,Liter,Kleidung,wir,kleinere,beteiligter,der,Masse,hält,dem,beschuldigten,beteiligten,durch,aus,beschuldigten,große,große,Mann,Menge,gedachte,wissen,gehören,werden,die,Kleidung,habe,er,Menge,schnell,königliches,Größe,die,,,,,,,,,,,,,,,,,,,,,,,0,0,0,0,0,3,3,3,,,,,,,space,0.392469882965,,,,,,2017_Jan_26_1356,59.8057665463,spr_backupper,001,Do14,
,dauerhaftem,Kilowattstunden,"üblichem,",sprudelnden,wurden,Bluts,mit,schönen,den,Stimmung,obwohl,immer,ich,"regelmäßigem,","sämtlichem,","Japan,",Büschel,"reichlichem,",schmutzige,ein,warmem,richtige,viel,dauerte,man,ich,auf,wurden,Stadt,war,ich,gelegentlich,bekannten,viel,36,schon,aus,mit,schmutziger,wir,"Delikte,",auf,Farbe,einen,man,bekannten,solchen,Farbe,sind,bei,Kilowattstunden,solch,bei,man,aus,obschon,uns,jetzt,"minimalem,",Stadt,"nicht,",Neuwahlen,dem,sind,ein,ausreichendem,mit,sprudelndes,landen,den,"Delikte,",Fahrer,vierte,mit,nicht,schönen,die,Fahrer,Büschel,"wertvollem,",die,Packung,Packung,das,alten,man,wir,immer,die,Wohnung,landen,ich,"trug,",alten,dank,Blut,36,Wohnung,,,,,,,,,,,,,,,,,,,,,,,0,0,0,0,0,4,4,4,,,,,,,space,0.327794075012,,,,,,2017_Jan_26_1356,59.8057665463,spr_backupper,001,Do14,
,feinem,elektrische,harten,Trinkwassers.,serviert.,hat,einem,Wetters,roten,ziemlich,sie,350,leider,kaltem,künftigem,die,frischen,purem,Wäsche.,Glas,weichem,"Zeit,",Lärm,ungefähr,der,leider,noch,serviert.,liegen,die,mehr,einen,Skandal,Lärm,hätten,immer,feinem,"reichem,",Wäsche.,von,derer,noch,geschleudert.,gelegentlichen,eine,Skandals,unzureichenden,geschleudert.,auf,"frischem,",elektrischer,unzureichenden,minimalem,eine,seltenem,sie,die,"nachgewiesen,",sauberen,liegen,was,vor,Mann,auf,Glas,monatlichem,zusätzlichem,Trinkwasser.,im,roten,deren,wurden,Bundespräsident.,einem,am,Wetter,Störenfriede,wurden,frisches,klassischen,Störenfriede,salziger,salzige,Auto,Krams,den,um,350,Tiere,des,im,mehr,war,Kram,täglichem,hat,würden,des,,,,,,,,,,,,,,,,,,,,,,,0,0,0,0,0,5,5,5,,,,,,,space,0.353677988052,,,,,,2017_Jan_26_1356,59.8057665463,spr_backupper,001,Do14,
,Kunsteis,Energie.,Schaumstoff,nan,nan,den,Esslöffel,die,Planeten,"vermiest,",defekt,ml,nichts,Abduschen,Einkommen,er,Grases,Alkohol,nan,köstlicher,Untergrund,um,um,drei,Soldaten,nichts,eine,nan,die,Flut,als,Besucher.,wiedergewählt.,um,seiner,ruhig,dichten,goldenen,nan,den,sie,eine,nan,Besucher.,große,wiedergewählt.,Helmen,nan,jeden,kaltem,Energie.,Helmen,täglichen,große,dichten,defekt,Stimmung,dass,Kraftstoff,die,Tupperware,Dezember,mehr,jeden,köstlichen,Taschengeld,schwarzem,nan,Müll.,Planet,sie,verschrottet.,nan,Esslöffel,Hauptbahnhof.,die,jeden.,verschrottet.,Gras,Schmuck,jeden.,Wurst,Wurst,mehr,aus,Soldaten,die,ml,artgerecht,Herrn,Müll.,als,aus,aus,grünen,den,seiner,Herrn,,,,,,,,,,,,,,,,,,,,,,,0,0,0,0,0,6,6,6,,,,,,,space,0.474113941193,,,,,,2017_Jan_26_1356,59.8057665463,spr_backupper,001,Do14,
,eingesprüht.,nan,gefertigt.,nan,nan,Boden,warmen,Wohnung.,ganz,dass,war.,warme,mitbringen.,gehärtet.,haftbar.,trug.,zwängen.,verdünnt.,nan,Wein,liegen.,Nadelhölzer,jede,Tage.,des,mitbringen.,Sammlung,nan,Slums.,zurückgekehrt.,einmal,nan,nan,jede,Frau,diskutiert.,Stoff,Besatz,nan,Problemen,überführt,Sammlung,nan,nan,Menge,nan,zur,nan,Fall,Saft,nan,zur,Einsatz,Menge,Gewebe,war.,ziemlich,das,fahren.,Slums.,ist.,stattfinden.,als,Fall,Weins,selber,Kaffee,nan,nan,ganz,überführt,nan,nan,warmem,nan,Wohnung.,nan,nan,zwängen.,umgearbeitet.,nan,mit,mit,als,dem,des,Probleme,warmer,gehalten.,Gantenbein.,nan,einmal,Japan.,dem,Tee,Boden,Frau,Gantenbeins.,,,,,,,,,,,,,,,,,,,,,,,0,0,0,0,0,7,7,7,,,,,,,space,0.492907047272,,,,,,2017_Jan_26_1356,59.8057665463,spr_backupper,001,Do14,
,nan,nan,nan,nan,nan,berührt.,Honigs,nan,deutlich.,es,nan,Milch.,nan,nan,nan,nan,nan,nan,nan,schon,nan,umzusetzen.,Menge,nan,zweiten,nan,dummer,nan,nan,nan,Rilke.,nan,nan,Menge,gepasst.,nan,gefertigt.,rekonstruiert.,nan,im,wurden.,dumme,nan,nan,dunkle,nan,Schule.,nan,genug.,besprochen.,nan,Schule.,sinken.,dunkler,wiederhergestellt.,nan,vermiest.,Medikament,nan,nan,nan,nan,gerne.,genug.,schon,kaufen.,wiederbelebt.,nan,nan,deutlich.,wurden.,nan,nan,Honig,nan,nan,nan,nan,nan,nan,nan,an,an,gerne.,Haus,zweiten,im,Milch.,nan,nan,nan,Rilke,nan,Haus,wieder,berührt.,gepasst,nan,,,,,,,,,,,,,,,,,,,,,,,0,0,0,0,0,8,8,8,,,,,,,space,0.485065937042,,,,,,2017_Jan_26_1356,59.8057665463,spr_backupper,001,Do14,
,nan,nan,nan,nan,nan,nan,her.,nan,nan,regnete.,nan,nan,nan,nan,nan,nan,nan,nan,nan,auf,nan,nan,heißer,nan,Weltkriegs.,nan,Sprüche.,nan,nan,nan,nan,nan,nan,heiße,nan,nan,nan,nan,nan,Landkreis.,nan,Sprüche.,nan,nan,Materie,nan,nan,nan,nan,nan,nan,nan,nan,Materie,nan,nan,nan,nicht,nan,nan,nan,nan,nan,nan,auf,nan,nan,nan,nan,nan,nan,nan,nan,her.,nan,nan,nan,nan,nan,nan,nan,den,den,nan,geschafft.,Weltkriegs.,Landkreis.,nan,nan,nan,nan,gelesen.,nan,geschafft.,fit.,nan,haben.,nan,,,,,,,,,,,,,,,,,,,,,,,0,0,0,0,0,9,9,9,,,,,,,space,0.376935005188,,,,,,2017_Jan_26_1356,59.8057665463,spr_backupper,001,Do14,
,,,,,,,,,,,,,,,,,,,,,,,,,,,,,,,,,,,,,,,,,,,,,,,,,,,,,,,,,,,,,,,,,,,,,,,,,,,,,,,,,,,,,,,,,,,,,,,,,,,,,,,,,,,,,,,,,,,,,,,,,0,0,0,0,,,,,,,,,,,,,None,n,6.25600886345,,,2017_Jan_26_1356,59.8057665463,spr_backupper,001,Do14,
,Die,Die,Alle,Sie,Beträchtliche,Nicht,Er,Sie,Im,Es,Die,In,Außer,Die,Manche,Die,Wir,Die,Dort,Bei,Jungtiere,Jetzt,Man,Der,Bei,Außer,Sie,Beträchtliche,Am,Als,In,Wir,Er,Man,Die,Fernab,Er,Das,Dort,In,Es,Sie,Es,Wir,Mit,Er,Die,Es,100,Sie,Die,Die,Ihr,Mit,Danach,Die,Dass,In,Wir,Am,Die,Unter,Wir,100,Bei,Jugendliche,Die,Sie,Viele,Im,Es,Die,Walter,Er,Die,Sie,Außer,Die,Wir,Die,Außer,Ich,Ich,Wir,Wir,Bei,In,In,In,Die,Viele,In,Die,Wir,Ich,Nicht,Die,Die,,,,,,,,,,,,,,,,,,,,,,,1,0,1,0,0,0,0,0,,,,,,None,space,0.373674154282,,,,,,2017_Jan_26_1356,59.8057665463,spr_backupper,001,Do14,
,Eislaufbahnen,Schule,Betten,verbrauchen,Stücke,ein,stellt,verlassen,Fernrohr,hat,Uhr,den,das,Formen,Kreditnehmer,Uhr,mussten,Lösung,türmen,unserer,sollten,ist,machte,Flug,der,dem,hatte,Stücke,äußeren,die,meinem,hatten,wurde,machte,Schuhe,des,hat,Tuch,türmen,der,waren,hatte,wurden,hatten,dieser,wurde,Kinder,wurden,g,haben,Schule,Kinder,Blutdruck,dieser,wurde,Uhr,es,einer,konnten,äußersten,Teilnehmerinnen,keinen,übergaben,g,unserer,können,müden,verbrauchen,Tonnen,Fernrohr,waren,Autos,Scheel,stellt,Linie,verlassen,dem,Autos,mussten,Stücke,den,nehme,nehme,übergaben,haben,der,der,den,diesem,Gäste,Tonnen,meinem,"Uhr,",haben,wurde,ein,Schuhe,Gäste,,,,,,,,,,,,,,,,,,,,,,,1,0,1,0,0,1,1,1,,,,,,,space,0.420029163361,,,,,,2017_Jan_26_1356,59.8057665463,spr_backupper,001,Do14,
,wurden,verbraucht,wurden,60,saftiges,Tropfen,die,wegen,sahen,uns,schlug,Kakao,Essen,wurden,sind,war,uns,wird,sich,Ankunft,immer,genau,mal,zum,Feier,Essen,keine,saftigen,Rand,Sonne,Studium,in,trotz,mal,in,Rummels,ein,wurde,sich,Tat,nur,keine,Eimer,in,Methode,trotz,fuhren,Eimer,braunen,die,verbraucht,fuhren,kann,Methode,die,schlug,"regnete,",Studie,dann,Rand,wussten,Umständen,das,brauner,Ankunft,Kleidung,Teilnehmer,60,gebrauchter,sahen,nur,beider,war,die,101,wegen,Bürgermeister,beider,uns,wurden,Bürgermeister,eine,eine,dem,jede,Feier,Tat,Kakao,Zirkus,suchen,gebrauchte,Studium,die,jede,damals,Tropfen,in,suchen,,,,,,,,,,,,,,,,,,,,,,,1,0,1,0,0,2,2,2,,,,,,,space,0.368736982346,,,,,,2017_Jan_26_1356,59.8057665463,spr_backupper,001,Do14,
,mit,260.000,mit,Liter,Fleisch,königlichen,Masse,des,wir,die,"sporadisch,",gehören,kann,unter,mit,aus,durch,mit,Berge,stand,auf,die,wieder,Mond,gedachte,kann,Lust,Fleischs,der,"unterging,",las,Dänemark,dem,wieder,Größe,wurde,Hemd,dann,Berge,wissen,kleinere,Lust,roter,Dänemark,kann,des,mit,rote,Zuckers,Erlebnisse,260.000,mit,schon,kann,Leinwand,"sporadisch,",hat,wurde,mit,der,überwiegend,können,Auto,Zucker,stand,bei,wurden,Liter,Kleidung,wir,kleinere,beteiligter,der,Masse,hält,dem,beschuldigten,beteiligten,durch,aus,beschuldigten,große,große,Mann,Menge,gedachte,wissen,gehören,werden,die,Kleidung,habe,er,Menge,schnell,königliches,Größe,die,,,,,,,,,,,,,,,,,,,,,,,1,0,1,0,0,3,3,3,,,,,,,space,0.40355014801,,,,,,2017_Jan_26_1356,59.8057665463,spr_backupper,001,Do14,
,dauerhaftem,Kilowattstunden,"üblichem,",sprudelnden,wurden,Bluts,mit,schönen,den,Stimmung,obwohl,immer,ich,"regelmäßigem,","sämtlichem,","Japan,",Büschel,"reichlichem,",schmutzige,ein,warmem,richtige,viel,dauerte,man,ich,auf,wurden,Stadt,war,ich,gelegentlich,bekannten,viel,36,schon,aus,mit,schmutziger,wir,"Delikte,",auf,Farbe,einen,man,bekannten,solchen,Farbe,sind,bei,Kilowattstunden,solch,bei,man,aus,obschon,uns,jetzt,"minimalem,",Stadt,"nicht,",Neuwahlen,dem,sind,ein,ausreichendem,mit,sprudelndes,landen,den,"Delikte,",Fahrer,vierte,mit,nicht,schönen,die,Fahrer,Büschel,"wertvollem,",die,Packung,Packung,das,alten,man,wir,immer,die,Wohnung,landen,ich,"trug,",alten,dank,Blut,36,Wohnung,,,,,,,,,,,,,,,,,,,,,,,1,0,1,0,0,4,4,4,,,,,,,space,0.434833049774,,,,,,2017_Jan_26_1356,59.8057665463,spr_backupper,001,Do14,
,feinem,elektrische,harten,Trinkwassers.,serviert.,hat,einem,Wetters,roten,ziemlich,sie,350,leider,kaltem,künftigem,die,frischen,purem,Wäsche.,Glas,weichem,"Zeit,",Lärm,ungefähr,der,leider,noch,serviert.,liegen,die,mehr,einen,Skandal,Lärm,hätten,immer,feinem,"reichem,",Wäsche.,von,derer,noch,geschleudert.,gelegentlichen,eine,Skandals,unzureichenden,geschleudert.,auf,"frischem,",elektrischer,unzureichenden,minimalem,eine,seltenem,sie,die,"nachgewiesen,",sauberen,liegen,was,vor,Mann,auf,Glas,monatlichem,zusätzlichem,Trinkwasser.,im,roten,deren,wurden,Bundespräsident.,einem,am,Wetter,Störenfriede,wurden,frisches,klassischen,Störenfriede,salziger,salzige,Auto,Krams,den,um,350,Tiere,des,im,mehr,war,Kram,täglichem,hat,würden,des,,,,,,,,,,,,,,,,,,,,,,,1,0,1,0,0,5,5,5,,,,,,,space,0.420917034149,,,,,,2017_Jan_26_1356,59.8057665463,spr_backupper,001,Do14,
,Kunsteis,Energie.,Schaumstoff,nan,nan,den,Esslöffel,die,Planeten,"vermiest,",defekt,ml,nichts,Abduschen,Einkommen,er,Grases,Alkohol,nan,köstlicher,Untergrund,um,um,drei,Soldaten,nichts,eine,nan,die,Flut,als,Besucher.,wiedergewählt.,um,seiner,ruhig,dichten,goldenen,nan,den,sie,eine,nan,Besucher.,große,wiedergewählt.,Helmen,nan,jeden,kaltem,Energie.,Helmen,täglichen,große,dichten,defekt,Stimmung,dass,Kraftstoff,die,Tupperware,Dezember,mehr,jeden,köstlichen,Taschengeld,schwarzem,nan,Müll.,Planet,sie,verschrottet.,nan,Esslöffel,Hauptbahnhof.,die,jeden.,verschrottet.,Gras,Schmuck,jeden.,Wurst,Wurst,mehr,aus,Soldaten,die,ml,artgerecht,Herrn,Müll.,als,aus,aus,grünen,den,seiner,Herrn,,,,,,,,,,,,,,,,,,,,,,,1,0,1,0,0,6,6,6,,,,,,,space,0.357767105103,,,,,,2017_Jan_26_1356,59.8057665463,spr_backupper,001,Do14,
,eingesprüht.,nan,gefertigt.,nan,nan,Boden,warmen,Wohnung.,ganz,dass,war.,warme,mitbringen.,gehärtet.,haftbar.,trug.,zwängen.,verdünnt.,nan,Wein,liegen.,Nadelhölzer,jede,Tage.,des,mitbringen.,Sammlung,nan,Slums.,zurückgekehrt.,einmal,nan,nan,jede,Frau,diskutiert.,Stoff,Besatz,nan,Problemen,überführt,Sammlung,nan,nan,Menge,nan,zur,nan,Fall,Saft,nan,zur,Einsatz,Menge,Gewebe,war.,ziemlich,das,fahren.,Slums.,ist.,stattfinden.,als,Fall,Weins,selber,Kaffee,nan,nan,ganz,überführt,nan,nan,warmem,nan,Wohnung.,nan,nan,zwängen.,umgearbeitet.,nan,mit,mit,als,dem,des,Probleme,warmer,gehalten.,Gantenbein.,nan,einmal,Japan.,dem,Tee,Boden,Frau,Gantenbeins.,,,,,,,,,,,,,,,,,,,,,,,1,0,1,0,0,7,7,7,,,,,,,space,0.420068979263,,,,,,2017_Jan_26_1356,59.8057665463,spr_backupper,001,Do14,
,nan,nan,nan,nan,nan,berührt.,Honigs,nan,deutlich.,es,nan,Milch.,nan,nan,nan,nan,nan,nan,nan,schon,nan,umzusetzen.,Menge,nan,zweiten,nan,dummer,nan,nan,nan,Rilke.,nan,nan,Menge,gepasst.,nan,gefertigt.,rekonstruiert.,nan,im,wurden.,dumme,nan,nan,dunkle,nan,Schule.,nan,genug.,besprochen.,nan,Schule.,sinken.,dunkler,wiederhergestellt.,nan,vermiest.,Medikament,nan,nan,nan,nan,gerne.,genug.,schon,kaufen.,wiederbelebt.,nan,nan,deutlich.,wurden.,nan,nan,Honig,nan,nan,nan,nan,nan,nan,nan,an,an,gerne.,Haus,zweiten,im,Milch.,nan,nan,nan,Rilke,nan,Haus,wieder,berührt.,gepasst,nan,,,,,,,,,,,,,,,,,,,,,,,1,0,1,0,0,8,8,8,,,,,,,space,0.479333877563,,,,,,2017_Jan_26_1356,59.8057665463,spr_backupper,001,Do14,
,,,,,,,,,,,,,,,,,,,,,,,,,,,,,,,,,,,,,,,,,,,,,,,,,,,,,,,,,,,,,,,,,,,,,,,,,,,,,,,,,,,,,,,,,,,,,,,,,,,,,,,,,,,,,,,,,,,,,,,,,1,0,1,0,,,,,,,,,,,,,None,n,2.05596184731,,,2017_Jan_26_1356,59.8057665463,spr_backupper,001,Do14,
,Die,Die,Alle,Sie,Beträchtliche,Nicht,Er,Sie,Im,Es,Die,In,Außer,Die,Manche,Die,Wir,Die,Dort,Bei,Jungtiere,Jetzt,Man,Der,Bei,Außer,Sie,Beträchtliche,Am,Als,In,Wir,Er,Man,Die,Fernab,Er,Das,Dort,In,Es,Sie,Es,Wir,Mit,Er,Die,Es,100,Sie,Die,Die,Ihr,Mit,Danach,Die,Dass,In,Wir,Am,Die,Unter,Wir,100,Bei,Jugendliche,Die,Sie,Viele,Im,Es,Die,Walter,Er,Die,Sie,Außer,Die,Wir,Die,Außer,Ich,Ich,Wir,Wir,Bei,In,In,In,Die,Viele,In,Die,Wir,Ich,Nicht,Die,Die,,,,,,,,,,,,,,,,,,,,,,,2,0,2,0,0,0,0,0,,,,,,None,space,0.270182132721,,,,,,2017_Jan_26_1356,59.8057665463,spr_backupper,001,Do14,
,Eislaufbahnen,Schule,Betten,verbrauchen,Stücke,ein,stellt,verlassen,Fernrohr,hat,Uhr,den,das,Formen,Kreditnehmer,Uhr,mussten,Lösung,türmen,unserer,sollten,ist,machte,Flug,der,dem,hatte,Stücke,äußeren,die,meinem,hatten,wurde,machte,Schuhe,des,hat,Tuch,türmen,der,waren,hatte,wurden,hatten,dieser,wurde,Kinder,wurden,g,haben,Schule,Kinder,Blutdruck,dieser,wurde,Uhr,es,einer,konnten,äußersten,Teilnehmerinnen,keinen,übergaben,g,unserer,können,müden,verbrauchen,Tonnen,Fernrohr,waren,Autos,Scheel,stellt,Linie,verlassen,dem,Autos,mussten,Stücke,den,nehme,nehme,übergaben,haben,der,der,den,diesem,Gäste,Tonnen,meinem,"Uhr,",haben,wurde,ein,Schuhe,Gäste,,,,,,,,,,,,,,,,,,,,,,,2,0,2,0,0,1,1,1,,,,,,,space,0.409962892532,,,,,,2017_Jan_26_1356,59.8057665463,spr_backupper,001,Do14,
,wurden,verbraucht,wurden,60,saftiges,Tropfen,die,wegen,sahen,uns,schlug,Kakao,Essen,wurden,sind,war,uns,wird,sich,Ankunft,immer,genau,mal,zum,Feier,Essen,keine,saftigen,Rand,Sonne,Studium,in,trotz,mal,in,Rummels,ein,wurde,sich,Tat,nur,keine,Eimer,in,Methode,trotz,fuhren,Eimer,braunen,die,verbraucht,fuhren,kann,Methode,die,schlug,"regnete,",Studie,dann,Rand,wussten,Umständen,das,brauner,Ankunft,Kleidung,Teilnehmer,60,gebrauchter,sahen,nur,beider,war,die,101,wegen,Bürgermeister,beider,uns,wurden,Bürgermeister,eine,eine,dem,jede,Feier,Tat,Kakao,Zirkus,suchen,gebrauchte,Studium,die,jede,damals,Tropfen,in,suchen,,,,,,,,,,,,,,,,,,,,,,,2,0,2,0,0,2,2,2,,,,,,,space,0.342617988586,,,,,,2017_Jan_26_1356,59.8057665463,spr_backupper,001,Do14,
,mit,260.000,mit,Liter,Fleisch,königlichen,Masse,des,wir,die,"sporadisch,",gehören,kann,unter,mit,aus,durch,mit,Berge,stand,auf,die,wieder,Mond,gedachte,kann,Lust,Fleischs,der,"unterging,",las,Dänemark,dem,wieder,Größe,wurde,Hemd,dann,Berge,wissen,kleinere,Lust,roter,Dänemark,kann,des,mit,rote,Zuckers,Erlebnisse,260.000,mit,schon,kann,Leinwand,"sporadisch,",hat,wurde,mit,der,überwiegend,können,Auto,Zucker,stand,bei,wurden,Liter,Kleidung,wir,kleinere,beteiligter,der,Masse,hält,dem,beschuldigten,beteiligten,durch,aus,beschuldigten,große,große,Mann,Menge,gedachte,wissen,gehören,werden,die,Kleidung,habe,er,Menge,schnell,königliches,Größe,die,,,,,,,,,,,,,,,,,,,,,,,2,0,2,0,0,3,3,3,,,,,,,space,0.402030944824,,,,,,2017_Jan_26_1356,59.8057665463,spr_backupper,001,Do14,
,dauerhaftem,Kilowattstunden,"üblichem,",sprudelnden,wurden,Bluts,mit,schönen,den,Stimmung,obwohl,immer,ich,"regelmäßigem,","sämtlichem,","Japan,",Büschel,"reichlichem,",schmutzige,ein,warmem,richtige,viel,dauerte,man,ich,auf,wurden,Stadt,war,ich,gelegentlich,bekannten,viel,36,schon,aus,mit,schmutziger,wir,"Delikte,",auf,Farbe,einen,man,bekannten,solchen,Farbe,sind,bei,Kilowattstunden,solch,bei,man,aus,obschon,uns,jetzt,"minimalem,",Stadt,"nicht,",Neuwahlen,dem,sind,ein,ausreichendem,mit,sprudelndes,landen,den,"Delikte,",Fahrer,vierte,mit,nicht,schönen,die,Fahrer,Büschel,"wertvollem,",die,Packung,Packung,das,alten,man,wir,immer,die,Wohnung,landen,ich,"trug,",alten,dank,Blut,36,Wohnung,,,,,,,,,,,,,,,,,,,,,,,2,0,2,0,0,4,4,4,,,,,,,space,0.335843086243,,,,,,2017_Jan_26_1356,59.8057665463,spr_backupper,001,Do14,
,feinem,elektrische,harten,Trinkwassers.,serviert.,hat,einem,Wetters,roten,ziemlich,sie,350,leider,kaltem,künftigem,die,frischen,purem,Wäsche.,Glas,weichem,"Zeit,",Lärm,ungefähr,der,leider,noch,serviert.,liegen,die,mehr,einen,Skandal,Lärm,hätten,immer,feinem,"reichem,",Wäsche.,von,derer,noch,geschleudert.,gelegentlichen,eine,Skandals,unzureichenden,geschleudert.,auf,"frischem,",elektrischer,unzureichenden,minimalem,eine,seltenem,sie,die,"nachgewiesen,",sauberen,liegen,was,vor,Mann,auf,Glas,monatlichem,zusätzlichem,Trinkwasser.,im,roten,deren,wurden,Bundespräsident.,einem,am,Wetter,Störenfriede,wurden,frisches,klassischen,Störenfriede,salziger,salzige,Auto,Krams,den,um,350,Tiere,des,im,mehr,war,Kram,täglichem,hat,würden,des,,,,,,,,,,,,,,,,,,,,,,,2,0,2,0,0,5,5,5,,,,,,,space,0.380336046219,,,,,,2017_Jan_26_1356,59.8057665463,spr_backupper,001,Do14,
,,,,,,,,,,,,,,,,,,,,,,,,,,,,,,,,,,,,,,,,,,,,,,,,,,,,,,,,,,,,,,,,,,,,,,,,,,,,,,,,,,,,,,,,,,,,,,,,,,,,,,,,,,,,,,,,,,,,,,,,,2,0,2,0,,,,,,,,,,,,,None,n,2.27205705643,,,2017_Jan_26_1356,59.8057665463,spr_backupper,001,Do14,
,Die,Die,Alle,Sie,Beträchtliche,Nicht,Er,Sie,Im,Es,Die,In,Außer,Die,Manche,Die,Wir,Die,Dort,Bei,Jungtiere,Jetzt,Man,Der,Bei,Außer,Sie,Beträchtliche,Am,Als,In,Wir,Er,Man,Die,Fernab,Er,Das,Dort,In,Es,Sie,Es,Wir,Mit,Er,Die,Es,100,Sie,Die,Die,Ihr,Mit,Danach,Die,Dass,In,Wir,Am,Die,Unter,Wir,100,Bei,Jugendliche,Die,Sie,Viele,Im,Es,Die,Walter,Er,Die,Sie,Außer,Die,Wir,Die,Außer,Ich,Ich,Wir,Wir,Bei,In,In,In,Die,Viele,In,Die,Wir,Ich,Nicht,Die,Die,,,,,,,,,,,,,,,,,,,,,,,3,0,3,0,0,0,0,0,,,,,,None,space,0.579489946365,,,,,,2017_Jan_26_1356,59.8057665463,spr_backupper,001,Do14,
,Eislaufbahnen,Schule,Betten,verbrauchen,Stücke,ein,stellt,verlassen,Fernrohr,hat,Uhr,den,das,Formen,Kreditnehmer,Uhr,mussten,Lösung,türmen,unserer,sollten,ist,machte,Flug,der,dem,hatte,Stücke,äußeren,die,meinem,hatten,wurde,machte,Schuhe,des,hat,Tuch,türmen,der,waren,hatte,wurden,hatten,dieser,wurde,Kinder,wurden,g,haben,Schule,Kinder,Blutdruck,dieser,wurde,Uhr,es,einer,konnten,äußersten,Teilnehmerinnen,keinen,übergaben,g,unserer,können,müden,verbrauchen,Tonnen,Fernrohr,waren,Autos,Scheel,stellt,Linie,verlassen,dem,Autos,mussten,Stücke,den,nehme,nehme,übergaben,haben,der,der,den,diesem,Gäste,Tonnen,meinem,"Uhr,",haben,wurde,ein,Schuhe,Gäste,,,,,,,,,,,,,,,,,,,,,,,3,0,3,0,0,1,1,1,,,,,,,space,0.339286804199,,,,,,2017_Jan_26_1356,59.8057665463,spr_backupper,001,Do14,
,wurden,verbraucht,wurden,60,saftiges,Tropfen,die,wegen,sahen,uns,schlug,Kakao,Essen,wurden,sind,war,uns,wird,sich,Ankunft,immer,genau,mal,zum,Feier,Essen,keine,saftigen,Rand,Sonne,Studium,in,trotz,mal,in,Rummels,ein,wurde,sich,Tat,nur,keine,Eimer,in,Methode,trotz,fuhren,Eimer,braunen,die,verbraucht,fuhren,kann,Methode,die,schlug,"regnete,",Studie,dann,Rand,wussten,Umständen,das,brauner,Ankunft,Kleidung,Teilnehmer,60,gebrauchter,sahen,nur,beider,war,die,101,wegen,Bürgermeister,beider,uns,wurden,Bürgermeister,eine,eine,dem,jede,Feier,Tat,Kakao,Zirkus,suchen,gebrauchte,Studium,die,jede,damals,Tropfen,in,suchen,,,,,,,,,,,,,,,,,,,,,,,3,0,3,0,0,2,2,2,,,,,,,space,0.420677185059,,,,,,2017_Jan_26_1356,59.8057665463,spr_backupper,001,Do14,
,mit,260.000,mit,Liter,Fleisch,königlichen,Masse,des,wir,die,"sporadisch,",gehören,kann,unter,mit,aus,durch,mit,Berge,stand,auf,die,wieder,Mond,gedachte,kann,Lust,Fleischs,der,"unterging,",las,Dänemark,dem,wieder,Größe,wurde,Hemd,dann,Berge,wissen,kleinere,Lust,roter,Dänemark,kann,des,mit,rote,Zuckers,Erlebnisse,260.000,mit,schon,kann,Leinwand,"sporadisch,",hat,wurde,mit,der,überwiegend,können,Auto,Zucker,stand,bei,wurden,Liter,Kleidung,wir,kleinere,beteiligter,der,Masse,hält,dem,beschuldigten,beteiligten,durch,aus,beschuldigten,große,große,Mann,Menge,gedachte,wissen,gehören,werden,die,Kleidung,habe,er,Menge,schnell,königliches,Größe,die,,,,,,,,,,,,,,,,,,,,,,,3,0,3,0,0,3,3,3,,,,,,,space,0.373743057251,,,,,,2017_Jan_26_1356,59.8057665463,spr_backupper,001,Do14,
,dauerhaftem,Kilowattstunden,"üblichem,",sprudelnden,wurden,Bluts,mit,schönen,den,Stimmung,obwohl,immer,ich,"regelmäßigem,","sämtlichem,","Japan,",Büschel,"reichlichem,",schmutzige,ein,warmem,richtige,viel,dauerte,man,ich,auf,wurden,Stadt,war,ich,gelegentlich,bekannten,viel,36,schon,aus,mit,schmutziger,wir,"Delikte,",auf,Farbe,einen,man,bekannten,solchen,Farbe,sind,bei,Kilowattstunden,solch,bei,man,aus,obschon,uns,jetzt,"minimalem,",Stadt,"nicht,",Neuwahlen,dem,sind,ein,ausreichendem,mit,sprudelndes,landen,den,"Delikte,",Fahrer,vierte,mit,nicht,schönen,die,Fahrer,Büschel,"wertvollem,",die,Packung,Packung,das,alten,man,wir,immer,die,Wohnung,landen,ich,"trug,",alten,dank,Blut,36,Wohnung,,,,,,,,,,,,,,,,,,,,,,,3,0,3,0,0,4,4,4,,,,,,,space,0.39182806015,,,,,,2017_Jan_26_1356,59.8057665463,spr_backupper,001,Do14,
,feinem,elektrische,harten,Trinkwassers.,serviert.,hat,einem,Wetters,roten,ziemlich,sie,350,leider,kaltem,künftigem,die,frischen,purem,Wäsche.,Glas,weichem,"Zeit,",Lärm,ungefähr,der,leider,noch,serviert.,liegen,die,mehr,einen,Skandal,Lärm,hätten,immer,feinem,"reichem,",Wäsche.,von,derer,noch,geschleudert.,gelegentlichen,eine,Skandals,unzureichenden,geschleudert.,auf,"frischem,",elektrischer,unzureichenden,minimalem,eine,seltenem,sie,die,"nachgewiesen,",sauberen,liegen,was,vor,Mann,auf,Glas,monatlichem,zusätzlichem,Trinkwasser.,im,roten,deren,wurden,Bundespräsident.,einem,am,Wetter,Störenfriede,wurden,frisches,klassischen,Störenfriede,salziger,salzige,Auto,Krams,den,um,350,Tiere,des,im,mehr,war,Kram,täglichem,hat,würden,des,,,,,,,,,,,,,,,,,,,,,,,3,0,3,0,0,5,5,5,,,,,,,space,0.38693189621,,,,,,2017_Jan_26_1356,59.8057665463,spr_backupper,001,Do14,
,Kunsteis,Energie.,Schaumstoff,nan,nan,den,Esslöffel,die,Planeten,"vermiest,",defekt,ml,nichts,Abduschen,Einkommen,er,Grases,Alkohol,nan,köstlicher,Untergrund,um,um,drei,Soldaten,nichts,eine,nan,die,Flut,als,Besucher.,wiedergewählt.,um,seiner,ruhig,dichten,goldenen,nan,den,sie,eine,nan,Besucher.,große,wiedergewählt.,Helmen,nan,jeden,kaltem,Energie.,Helmen,täglichen,große,dichten,defekt,Stimmung,dass,Kraftstoff,die,Tupperware,Dezember,mehr,jeden,köstlichen,Taschengeld,schwarzem,nan,Müll.,Planet,sie,verschrottet.,nan,Esslöffel,Hauptbahnhof.,die,jeden.,verschrottet.,Gras,Schmuck,jeden.,Wurst,Wurst,mehr,aus,Soldaten,die,ml,artgerecht,Herrn,Müll.,als,aus,aus,grünen,den,seiner,Herrn,,,,,,,,,,,,,,,,,,,,,,,3,0,3,0,0,6,6,6,,,,,,,space,0.336225032806,,,,,,2017_Jan_26_1356,59.8057665463,spr_backupper,001,Do14,
,eingesprüht.,nan,gefertigt.,nan,nan,Boden,warmen,Wohnung.,ganz,dass,war.,warme,mitbringen.,gehärtet.,haftbar.,trug.,zwängen.,verdünnt.,nan,Wein,liegen.,Nadelhölzer,jede,Tage.,des,mitbringen.,Sammlung,nan,Slums.,zurückgekehrt.,einmal,nan,nan,jede,Frau,diskutiert.,Stoff,Besatz,nan,Problemen,überführt,Sammlung,nan,nan,Menge,nan,zur,nan,Fall,Saft,nan,zur,Einsatz,Menge,Gewebe,war.,ziemlich,das,fahren.,Slums.,ist.,stattfinden.,als,Fall,Weins,selber,Kaffee,nan,nan,ganz,überführt,nan,nan,warmem,nan,Wohnung.,nan,nan,zwängen.,umgearbeitet.,nan,mit,mit,als,dem,des,Probleme,warmer,gehalten.,Gantenbein.,nan,einmal,Japan.,dem,Tee,Boden,Frau,Gantenbeins.,,,,,,,,,,,,,,,,,,,,,,,3,0,3,0,0,7,7,7,,,,,,,space,0.464147090912,,,,,,2017_Jan_26_1356,59.8057665463,spr_backupper,001,Do14,
,nan,nan,nan,nan,nan,berührt.,Honigs,nan,deutlich.,es,nan,Milch.,nan,nan,nan,nan,nan,nan,nan,schon,nan,umzusetzen.,Menge,nan,zweiten,nan,dummer,nan,nan,nan,Rilke.,nan,nan,Menge,gepasst.,nan,gefertigt.,rekonstruiert.,nan,im,wurden.,dumme,nan,nan,dunkle,nan,Schule.,nan,genug.,besprochen.,nan,Schule.,sinken.,dunkler,wiederhergestellt.,nan,vermiest.,Medikament,nan,nan,nan,nan,gerne.,genug.,schon,kaufen.,wiederbelebt.,nan,nan,deutlich.,wurden.,nan,nan,Honig,nan,nan,nan,nan,nan,nan,nan,an,an,gerne.,Haus,zweiten,im,Milch.,nan,nan,nan,Rilke,nan,Haus,wieder,berührt.,gepasst,nan,,,,,,,,,,,,,,,,,,,,,,,3,0,3,0,0,8,8,8,,,,,,,space,0.395004034042,,,,,,2017_Jan_26_1356,59.8057665463,spr_backupper,001,Do14,
,,,,,,,,,,,,,,,,,,,,,,,,,,,,,,,,,,,,,,,,,,,,,,,,,,,,,,,,,,,,,,,,,,,,,,,,,,,,,,,,,,,,,,,,,,,,,,,,,,,,,,,,,,,,,,,,,,,,,,,,,3,0,3,0,,,,,,,,,,,,,None,j,2.01102304459,,,2017_Jan_26_1356,59.8057665463,spr_backupper,001,Do14,
,Die,Die,Alle,Sie,Beträchtliche,Nicht,Er,Sie,Im,Es,Die,In,Außer,Die,Manche,Die,Wir,Die,Dort,Bei,Jungtiere,Jetzt,Man,Der,Bei,Außer,Sie,Beträchtliche,Am,Als,In,Wir,Er,Man,Die,Fernab,Er,Das,Dort,In,Es,Sie,Es,Wir,Mit,Er,Die,Es,100,Sie,Die,Die,Ihr,Mit,Danach,Die,Dass,In,Wir,Am,Die,Unter,Wir,100,Bei,Jugendliche,Die,Sie,Viele,Im,Es,Die,Walter,Er,Die,Sie,Außer,Die,Wir,Die,Außer,Ich,Ich,Wir,Wir,Bei,In,In,In,Die,Viele,In,Die,Wir,Ich,Nicht,Die,Die,,,,,,,,,,,,,,,,,,,,,,,4,0,4,0,0,0,0,0,,,,,,None,space,0.405035018921,,,,,,2017_Jan_26_1356,59.8057665463,spr_backupper,001,Do14,
,Eislaufbahnen,Schule,Betten,verbrauchen,Stücke,ein,stellt,verlassen,Fernrohr,hat,Uhr,den,das,Formen,Kreditnehmer,Uhr,mussten,Lösung,türmen,unserer,sollten,ist,machte,Flug,der,dem,hatte,Stücke,äußeren,die,meinem,hatten,wurde,machte,Schuhe,des,hat,Tuch,türmen,der,waren,hatte,wurden,hatten,dieser,wurde,Kinder,wurden,g,haben,Schule,Kinder,Blutdruck,dieser,wurde,Uhr,es,einer,konnten,äußersten,Teilnehmerinnen,keinen,übergaben,g,unserer,können,müden,verbrauchen,Tonnen,Fernrohr,waren,Autos,Scheel,stellt,Linie,verlassen,dem,Autos,mussten,Stücke,den,nehme,nehme,übergaben,haben,der,der,den,diesem,Gäste,Tonnen,meinem,"Uhr,",haben,wurde,ein,Schuhe,Gäste,,,,,,,,,,,,,,,,,,,,,,,4,0,4,0,0,1,1,1,,,,,,,space,0.311486005783,,,,,,2017_Jan_26_1356,59.8057665463,spr_backupper,001,Do14,
,wurden,verbraucht,wurden,60,saftiges,Tropfen,die,wegen,sahen,uns,schlug,Kakao,Essen,wurden,sind,war,uns,wird,sich,Ankunft,immer,genau,mal,zum,Feier,Essen,keine,saftigen,Rand,Sonne,Studium,in,trotz,mal,in,Rummels,ein,wurde,sich,Tat,nur,keine,Eimer,in,Methode,trotz,fuhren,Eimer,braunen,die,verbraucht,fuhren,kann,Methode,die,schlug,"regnete,",Studie,dann,Rand,wussten,Umständen,das,brauner,Ankunft,Kleidung,Teilnehmer,60,gebrauchter,sahen,nur,beider,war,die,101,wegen,Bürgermeister,beider,uns,wurden,Bürgermeister,eine,eine,dem,jede,Feier,Tat,Kakao,Zirkus,suchen,gebrauchte,Studium,die,jede,damals,Tropfen,in,suchen,,,,,,,,,,,,,,,,,,,,,,,4,0,4,0,0,2,2,2,,,,,,,space,0.352679014206,,,,,,2017_Jan_26_1356,59.8057665463,spr_backupper,001,Do14,
,mit,260.000,mit,Liter,Fleisch,königlichen,Masse,des,wir,die,"sporadisch,",gehören,kann,unter,mit,aus,durch,mit,Berge,stand,auf,die,wieder,Mond,gedachte,kann,Lust,Fleischs,der,"unterging,",las,Dänemark,dem,wieder,Größe,wurde,Hemd,dann,Berge,wissen,kleinere,Lust,roter,Dänemark,kann,des,mit,rote,Zuckers,Erlebnisse,260.000,mit,schon,kann,Leinwand,"sporadisch,",hat,wurde,mit,der,überwiegend,können,Auto,Zucker,stand,bei,wurden,Liter,Kleidung,wir,kleinere,beteiligter,der,Masse,hält,dem,beschuldigten,beteiligten,durch,aus,beschuldigten,große,große,Mann,Menge,gedachte,wissen,gehören,werden,die,Kleidung,habe,er,Menge,schnell,königliches,Größe,die,,,,,,,,,,,,,,,,,,,,,,,4,0,4,0,0,3,3,3,,,,,,,space,0.568310022354,,,,,,2017_Jan_26_1356,59.8057665463,spr_backupper,001,Do14,
,dauerhaftem,Kilowattstunden,"üblichem,",sprudelnden,wurden,Bluts,mit,schönen,den,Stimmung,obwohl,immer,ich,"regelmäßigem,","sämtlichem,","Japan,",Büschel,"reichlichem,",schmutzige,ein,warmem,richtige,viel,dauerte,man,ich,auf,wurden,Stadt,war,ich,gelegentlich,bekannten,viel,36,schon,aus,mit,schmutziger,wir,"Delikte,",auf,Farbe,einen,man,bekannten,solchen,Farbe,sind,bei,Kilowattstunden,solch,bei,man,aus,obschon,uns,jetzt,"minimalem,",Stadt,"nicht,",Neuwahlen,dem,sind,ein,ausreichendem,mit,sprudelndes,landen,den,"Delikte,",Fahrer,vierte,mit,nicht,schönen,die,Fahrer,Büschel,"wertvollem,",die,Packung,Packung,das,alten,man,wir,immer,die,Wohnung,landen,ich,"trug,",alten,dank,Blut,36,Wohnung,,,,,,,,,,,,,,,,,,,,,,,4,0,4,0,0,4,4,4,,,,,,,space,0.436601161957,,,,,,2017_Jan_26_1356,59.8057665463,spr_backupper,001,Do14,
,feinem,elektrische,harten,Trinkwassers.,serviert.,hat,einem,Wetters,roten,ziemlich,sie,350,leider,kaltem,künftigem,die,frischen,purem,Wäsche.,Glas,weichem,"Zeit,",Lärm,ungefähr,der,leider,noch,serviert.,liegen,die,mehr,einen,Skandal,Lärm,hätten,immer,feinem,"reichem,",Wäsche.,von,derer,noch,geschleudert.,gelegentlichen,eine,Skandals,unzureichenden,geschleudert.,auf,"frischem,",elektrischer,unzureichenden,minimalem,eine,seltenem,sie,die,"nachgewiesen,",sauberen,liegen,was,vor,Mann,auf,Glas,monatlichem,zusätzlichem,Trinkwasser.,im,roten,deren,wurden,Bundespräsident.,einem,am,Wetter,Störenfriede,wurden,frisches,klassischen,Störenfriede,salziger,salzige,Auto,Krams,den,um,350,Tiere,des,im,mehr,war,Kram,täglichem,hat,würden,des,,,,,,,,,,,,,,,,,,,,,,,4,0,4,0,0,5,5,5,,,,,,,space,0.327224969864,,,,,,2017_Jan_26_1356,59.8057665463,spr_backupper,001,Do14,
,Kunsteis,Energie.,Schaumstoff,nan,nan,den,Esslöffel,die,Planeten,"vermiest,",defekt,ml,nichts,Abduschen,Einkommen,er,Grases,Alkohol,nan,köstlicher,Untergrund,um,um,drei,Soldaten,nichts,eine,nan,die,Flut,als,Besucher.,wiedergewählt.,um,seiner,ruhig,dichten,goldenen,nan,den,sie,eine,nan,Besucher.,große,wiedergewählt.,Helmen,nan,jeden,kaltem,Energie.,Helmen,täglichen,große,dichten,defekt,Stimmung,dass,Kraftstoff,die,Tupperware,Dezember,mehr,jeden,köstlichen,Taschengeld,schwarzem,nan,Müll.,Planet,sie,verschrottet.,nan,Esslöffel,Hauptbahnhof.,die,jeden.,verschrottet.,Gras,Schmuck,jeden.,Wurst,Wurst,mehr,aus,Soldaten,die,ml,artgerecht,Herrn,Müll.,als,aus,aus,grünen,den,seiner,Herrn,,,,,,,,,,,,,,,,,,,,,,,4,0,4,0,0,6,6,6,,,,,,,space,0.386244058609,,,,,,2017_Jan_26_1356,59.8057665463,spr_backupper,001,Do14,
,eingesprüht.,nan,gefertigt.,nan,nan,Boden,warmen,Wohnung.,ganz,dass,war.,warme,mitbringen.,gehärtet.,haftbar.,trug.,zwängen.,verdünnt.,nan,Wein,liegen.,Nadelhölzer,jede,Tage.,des,mitbringen.,Sammlung,nan,Slums.,zurückgekehrt.,einmal,nan,nan,jede,Frau,diskutiert.,Stoff,Besatz,nan,Problemen,überführt,Sammlung,nan,nan,Menge,nan,zur,nan,Fall,Saft,nan,zur,Einsatz,Menge,Gewebe,war.,ziemlich,das,fahren.,Slums.,ist.,stattfinden.,als,Fall,Weins,selber,Kaffee,nan,nan,ganz,überführt,nan,nan,warmem,nan,Wohnung.,nan,nan,zwängen.,umgearbeitet.,nan,mit,mit,als,dem,des,Probleme,warmer,gehalten.,Gantenbein.,nan,einmal,Japan.,dem,Tee,Boden,Frau,Gantenbeins.,,,,,,,,,,,,,,,,,,,,,,,4,0,4,0,0,7,7,7,,,,,,,space,0.359430074692,,,,,,2017_Jan_26_1356,59.8057665463,spr_backupper,001,Do14,
,,,,,,,,,,,,,,,,,,,,,,,,,,,,,,,,,,,,,,,,,,,,,,,,,,,,,,,,,,,,,,,,,,,,,,,,,,,,,,,,,,,,,,,,,,,,,,,,,,,,,,,,,,,,,,,,,,,,,,,,,4,0,4,0,,,,,,,,,,,,,None,n,5.58560490608,,,2017_Jan_26_1356,59.8057665463,spr_backupper,001,Do14,
,Die,Die,Alle,Sie,Beträchtliche,Nicht,Er,Sie,Im,Es,Die,In,Außer,Die,Manche,Die,Wir,Die,Dort,Bei,Jungtiere,Jetzt,Man,Der,Bei,Außer,Sie,Beträchtliche,Am,Als,In,Wir,Er,Man,Die,Fernab,Er,Das,Dort,In,Es,Sie,Es,Wir,Mit,Er,Die,Es,100,Sie,Die,Die,Ihr,Mit,Danach,Die,Dass,In,Wir,Am,Die,Unter,Wir,100,Bei,Jugendliche,Die,Sie,Viele,Im,Es,Die,Walter,Er,Die,Sie,Außer,Die,Wir,Die,Außer,Ich,Ich,Wir,Wir,Bei,In,In,In,Die,Viele,In,Die,Wir,Ich,Nicht,Die,Die,,,,,,,,,,,,,,,,,,,,,,,5,0,5,0,0,0,0,0,,,,,,None,space,0.357139110565,,,,,,2017_Jan_26_1356,59.8057665463,spr_backupper,001,Do14,
,Eislaufbahnen,Schule,Betten,verbrauchen,Stücke,ein,stellt,verlassen,Fernrohr,hat,Uhr,den,das,Formen,Kreditnehmer,Uhr,mussten,Lösung,türmen,unserer,sollten,ist,machte,Flug,der,dem,hatte,Stücke,äußeren,die,meinem,hatten,wurde,machte,Schuhe,des,hat,Tuch,türmen,der,waren,hatte,wurden,hatten,dieser,wurde,Kinder,wurden,g,haben,Schule,Kinder,Blutdruck,dieser,wurde,Uhr,es,einer,konnten,äußersten,Teilnehmerinnen,keinen,übergaben,g,unserer,können,müden,verbrauchen,Tonnen,Fernrohr,waren,Autos,Scheel,stellt,Linie,verlassen,dem,Autos,mussten,Stücke,den,nehme,nehme,übergaben,haben,der,der,den,diesem,Gäste,Tonnen,meinem,"Uhr,",haben,wurde,ein,Schuhe,Gäste,,,,,,,,,,,,,,,,,,,,,,,5,0,5,0,0,1,1,1,,,,,,,space,0.335410118103,,,,,,2017_Jan_26_1356,59.8057665463,spr_backupper,001,Do14,
,wurden,verbraucht,wurden,60,saftiges,Tropfen,die,wegen,sahen,uns,schlug,Kakao,Essen,wurden,sind,war,uns,wird,sich,Ankunft,immer,genau,mal,zum,Feier,Essen,keine,saftigen,Rand,Sonne,Studium,in,trotz,mal,in,Rummels,ein,wurde,sich,Tat,nur,keine,Eimer,in,Methode,trotz,fuhren,Eimer,braunen,die,verbraucht,fuhren,kann,Methode,die,schlug,"regnete,",Studie,dann,Rand,wussten,Umständen,das,brauner,Ankunft,Kleidung,Teilnehmer,60,gebrauchter,sahen,nur,beider,war,die,101,wegen,Bürgermeister,beider,uns,wurden,Bürgermeister,eine,eine,dem,jede,Feier,Tat,Kakao,Zirkus,suchen,gebrauchte,Studium,die,jede,damals,Tropfen,in,suchen,,,,,,,,,,,,,,,,,,,,,,,5,0,5,0,0,2,2,2,,,,,,,space,0.302577018738,,,,,,2017_Jan_26_1356,59.8057665463,spr_backupper,001,Do14,
,mit,260.000,mit,Liter,Fleisch,königlichen,Masse,des,wir,die,"sporadisch,",gehören,kann,unter,mit,aus,durch,mit,Berge,stand,auf,die,wieder,Mond,gedachte,kann,Lust,Fleischs,der,"unterging,",las,Dänemark,dem,wieder,Größe,wurde,Hemd,dann,Berge,wissen,kleinere,Lust,roter,Dänemark,kann,des,mit,rote,Zuckers,Erlebnisse,260.000,mit,schon,kann,Leinwand,"sporadisch,",hat,wurde,mit,der,überwiegend,können,Auto,Zucker,stand,bei,wurden,Liter,Kleidung,wir,kleinere,beteiligter,der,Masse,hält,dem,beschuldigten,beteiligten,durch,aus,beschuldigten,große,große,Mann,Menge,gedachte,wissen,gehören,werden,die,Kleidung,habe,er,Menge,schnell,königliches,Größe,die,,,,,,,,,,,,,,,,,,,,,,,5,0,5,0,0,3,3,3,,,,,,,space,0.284670829773,,,,,,2017_Jan_26_1356,59.8057665463,spr_backupper,001,Do14,
,dauerhaftem,Kilowattstunden,"üblichem,",sprudelnden,wurden,Bluts,mit,schönen,den,Stimmung,obwohl,immer,ich,"regelmäßigem,","sämtlichem,","Japan,",Büschel,"reichlichem,",schmutzige,ein,warmem,richtige,viel,dauerte,man,ich,auf,wurden,Stadt,war,ich,gelegentlich,bekannten,viel,36,schon,aus,mit,schmutziger,wir,"Delikte,",auf,Farbe,einen,man,bekannten,solchen,Farbe,sind,bei,Kilowattstunden,solch,bei,man,aus,obschon,uns,jetzt,"minimalem,",Stadt,"nicht,",Neuwahlen,dem,sind,ein,ausreichendem,mit,sprudelndes,landen,den,"Delikte,",Fahrer,vierte,mit,nicht,schönen,die,Fahrer,Büschel,"wertvollem,",die,Packung,Packung,das,alten,man,wir,immer,die,Wohnung,landen,ich,"trug,",alten,dank,Blut,36,Wohnung,,,,,,,,,,,,,,,,,,,,,,,5,0,5,0,0,4,4,4,,,,,,,space,0.402594804764,,,,,,2017_Jan_26_1356,59.8057665463,spr_backupper,001,Do14,
,feinem,elektrische,harten,Trinkwassers.,serviert.,hat,einem,Wetters,roten,ziemlich,sie,350,leider,kaltem,künftigem,die,frischen,purem,Wäsche.,Glas,weichem,"Zeit,",Lärm,ungefähr,der,leider,noch,serviert.,liegen,die,mehr,einen,Skandal,Lärm,hätten,immer,feinem,"reichem,",Wäsche.,von,derer,noch,geschleudert.,gelegentlichen,eine,Skandals,unzureichenden,geschleudert.,auf,"frischem,",elektrischer,unzureichenden,minimalem,eine,seltenem,sie,die,"nachgewiesen,",sauberen,liegen,was,vor,Mann,auf,Glas,monatlichem,zusätzlichem,Trinkwasser.,im,roten,deren,wurden,Bundespräsident.,einem,am,Wetter,Störenfriede,wurden,frisches,klassischen,Störenfriede,salziger,salzige,Auto,Krams,den,um,350,Tiere,des,im,mehr,war,Kram,täglichem,hat,würden,des,,,,,,,,,,,,,,,,,,,,,,,5,0,5,0,0,5,5,5,,,,,,,space,0.369914054871,,,,,,2017_Jan_26_1356,59.8057665463,spr_backupper,001,Do14,
,Kunsteis,Energie.,Schaumstoff,nan,nan,den,Esslöffel,die,Planeten,"vermiest,",defekt,ml,nichts,Abduschen,Einkommen,er,Grases,Alkohol,nan,köstlicher,Untergrund,um,um,drei,Soldaten,nichts,eine,nan,die,Flut,als,Besucher.,wiedergewählt.,um,seiner,ruhig,dichten,goldenen,nan,den,sie,eine,nan,Besucher.,große,wiedergewählt.,Helmen,nan,jeden,kaltem,Energie.,Helmen,täglichen,große,dichten,defekt,Stimmung,dass,Kraftstoff,die,Tupperware,Dezember,mehr,jeden,köstlichen,Taschengeld,schwarzem,nan,Müll.,Planet,sie,verschrottet.,nan,Esslöffel,Hauptbahnhof.,die,jeden.,verschrottet.,Gras,Schmuck,jeden.,Wurst,Wurst,mehr,aus,Soldaten,die,ml,artgerecht,Herrn,Müll.,als,aus,aus,grünen,den,seiner,Herrn,,,,,,,,,,,,,,,,,,,,,,,5,0,5,0,0,6,6,6,,,,,,,space,0.361923933029,,,,,,2017_Jan_26_1356,59.8057665463,spr_backupper,001,Do14,
,eingesprüht.,nan,gefertigt.,nan,nan,Boden,warmen,Wohnung.,ganz,dass,war.,warme,mitbringen.,gehärtet.,haftbar.,trug.,zwängen.,verdünnt.,nan,Wein,liegen.,Nadelhölzer,jede,Tage.,des,mitbringen.,Sammlung,nan,Slums.,zurückgekehrt.,einmal,nan,nan,jede,Frau,diskutiert.,Stoff,Besatz,nan,Problemen,überführt,Sammlung,nan,nan,Menge,nan,zur,nan,Fall,Saft,nan,zur,Einsatz,Menge,Gewebe,war.,ziemlich,das,fahren.,Slums.,ist.,stattfinden.,als,Fall,Weins,selber,Kaffee,nan,nan,ganz,überführt,nan,nan,warmem,nan,Wohnung.,nan,nan,zwängen.,umgearbeitet.,nan,mit,mit,als,dem,des,Probleme,warmer,gehalten.,Gantenbein.,nan,einmal,Japan.,dem,Tee,Boden,Frau,Gantenbeins.,,,,,,,,,,,,,,,,,,,,,,,5,0,5,0,0,7,7,7,,,,,,,space,0.319381952286,,,,,,2017_Jan_26_1356,59.8057665463,spr_backupper,001,Do14,
,nan,nan,nan,nan,nan,berührt.,Honigs,nan,deutlich.,es,nan,Milch.,nan,nan,nan,nan,nan,nan,nan,schon,nan,umzusetzen.,Menge,nan,zweiten,nan,dummer,nan,nan,nan,Rilke.,nan,nan,Menge,gepasst.,nan,gefertigt.,rekonstruiert.,nan,im,wurden.,dumme,nan,nan,dunkle,nan,Schule.,nan,genug.,besprochen.,nan,Schule.,sinken.,dunkler,wiederhergestellt.,nan,vermiest.,Medikament,nan,nan,nan,nan,gerne.,genug.,schon,kaufen.,wiederbelebt.,nan,nan,deutlich.,wurden.,nan,nan,Honig,nan,nan,nan,nan,nan,nan,nan,an,an,gerne.,Haus,zweiten,im,Milch.,nan,nan,nan,Rilke,nan,Haus,wieder,berührt.,gepasst,nan,,,,,,,,,,,,,,,,,,,,,,,5,0,5,0,0,8,8,8,,,,,,,space,0.319316864014,,,,,,2017_Jan_26_1356,59.8057665463,spr_backupper,001,Do14,
,nan,nan,nan,nan,nan,nan,her.,nan,nan,regnete.,nan,nan,nan,nan,nan,nan,nan,nan,nan,auf,nan,nan,heißer,nan,Weltkriegs.,nan,Sprüche.,nan,nan,nan,nan,nan,nan,heiße,nan,nan,nan,nan,nan,Landkreis.,nan,Sprüche.,nan,nan,Materie,nan,nan,nan,nan,nan,nan,nan,nan,Materie,nan,nan,nan,nicht,nan,nan,nan,nan,nan,nan,auf,nan,nan,nan,nan,nan,nan,nan,nan,her.,nan,nan,nan,nan,nan,nan,nan,den,den,nan,geschafft.,Weltkriegs.,Landkreis.,nan,nan,nan,nan,gelesen.,nan,geschafft.,fit.,nan,haben.,nan,,,,,,,,,,,,,,,,,,,,,,,5,0,5,0,0,9,9,9,,,,,,,space,0.316024065018,,,,,,2017_Jan_26_1356,59.8057665463,spr_backupper,001,Do14,
,,,,,,,,,,,,,,,,,,,,,,,,,,,,,,,,,,,,,,,,,,,,,,,,,,,,,,,,,,,,,,,,,,,,,,,,,,,,,,,,,,,,,,,,,,,,,,,,,,,,,,,,,,,,,,,,,,,,,,,,,5,0,5,0,,,,,,,,,,,,,None,j,1.46031713486,,,2017_Jan_26_1356,59.8057665463,spr_backupper,001,Do14,
,Die,Die,Alle,Sie,Beträchtliche,Nicht,Er,Sie,Im,Es,Die,In,Außer,Die,Manche,Die,Wir,Die,Dort,Bei,Jungtiere,Jetzt,Man,Der,Bei,Außer,Sie,Beträchtliche,Am,Als,In,Wir,Er,Man,Die,Fernab,Er,Das,Dort,In,Es,Sie,Es,Wir,Mit,Er,Die,Es,100,Sie,Die,Die,Ihr,Mit,Danach,Die,Dass,In,Wir,Am,Die,Unter,Wir,100,Bei,Jugendliche,Die,Sie,Viele,Im,Es,Die,Walter,Er,Die,Sie,Außer,Die,Wir,Die,Außer,Ich,Ich,Wir,Wir,Bei,In,In,In,Die,Viele,In,Die,Wir,Ich,Nicht,Die,Die,,,,,,,,,,,,,,,,,,,,,,,6,0,6,0,0,0,0,0,,,,,,None,space,0.441947937012,,,,,,2017_Jan_26_1356,59.8057665463,spr_backupper,001,Do14,
,Eislaufbahnen,Schule,Betten,verbrauchen,Stücke,ein,stellt,verlassen,Fernrohr,hat,Uhr,den,das,Formen,Kreditnehmer,Uhr,mussten,Lösung,türmen,unserer,sollten,ist,machte,Flug,der,dem,hatte,Stücke,äußeren,die,meinem,hatten,wurde,machte,Schuhe,des,hat,Tuch,türmen,der,waren,hatte,wurden,hatten,dieser,wurde,Kinder,wurden,g,haben,Schule,Kinder,Blutdruck,dieser,wurde,Uhr,es,einer,konnten,äußersten,Teilnehmerinnen,keinen,übergaben,g,unserer,können,müden,verbrauchen,Tonnen,Fernrohr,waren,Autos,Scheel,stellt,Linie,verlassen,dem,Autos,mussten,Stücke,den,nehme,nehme,übergaben,haben,der,der,den,diesem,Gäste,Tonnen,meinem,"Uhr,",haben,wurde,ein,Schuhe,Gäste,,,,,,,,,,,,,,,,,,,,,,,6,0,6,0,0,1,1,1,,,,,,,space,0.336236953735,,,,,,2017_Jan_26_1356,59.8057665463,spr_backupper,001,Do14,
,wurden,verbraucht,wurden,60,saftiges,Tropfen,die,wegen,sahen,uns,schlug,Kakao,Essen,wurden,sind,war,uns,wird,sich,Ankunft,immer,genau,mal,zum,Feier,Essen,keine,saftigen,Rand,Sonne,Studium,in,trotz,mal,in,Rummels,ein,wurde,sich,Tat,nur,keine,Eimer,in,Methode,trotz,fuhren,Eimer,braunen,die,verbraucht,fuhren,kann,Methode,die,schlug,"regnete,",Studie,dann,Rand,wussten,Umständen,das,brauner,Ankunft,Kleidung,Teilnehmer,60,gebrauchter,sahen,nur,beider,war,die,101,wegen,Bürgermeister,beider,uns,wurden,Bürgermeister,eine,eine,dem,jede,Feier,Tat,Kakao,Zirkus,suchen,gebrauchte,Studium,die,jede,damals,Tropfen,in,suchen,,,,,,,,,,,,,,,,,,,,,,,6,0,6,0,0,2,2,2,,,,,,,space,0.376353979111,,,,,,2017_Jan_26_1356,59.8057665463,spr_backupper,001,Do14,
,mit,260.000,mit,Liter,Fleisch,königlichen,Masse,des,wir,die,"sporadisch,",gehören,kann,unter,mit,aus,durch,mit,Berge,stand,auf,die,wieder,Mond,gedachte,kann,Lust,Fleischs,der,"unterging,",las,Dänemark,dem,wieder,Größe,wurde,Hemd,dann,Berge,wissen,kleinere,Lust,roter,Dänemark,kann,des,mit,rote,Zuckers,Erlebnisse,260.000,mit,schon,kann,Leinwand,"sporadisch,",hat,wurde,mit,der,überwiegend,können,Auto,Zucker,stand,bei,wurden,Liter,Kleidung,wir,kleinere,beteiligter,der,Masse,hält,dem,beschuldigten,beteiligten,durch,aus,beschuldigten,große,große,Mann,Menge,gedachte,wissen,gehören,werden,die,Kleidung,habe,er,Menge,schnell,königliches,Größe,die,,,,,,,,,,,,,,,,,,,,,,,6,0,6,0,0,3,3,3,,,,,,,space,0.335758924484,,,,,,2017_Jan_26_1356,59.8057665463,spr_backupper,001,Do14,
,dauerhaftem,Kilowattstunden,"üblichem,",sprudelnden,wurden,Bluts,mit,schönen,den,Stimmung,obwohl,immer,ich,"regelmäßigem,","sämtlichem,","Japan,",Büschel,"reichlichem,",schmutzige,ein,warmem,richtige,viel,dauerte,man,ich,auf,wurden,Stadt,war,ich,gelegentlich,bekannten,viel,36,schon,aus,mit,schmutziger,wir,"Delikte,",auf,Farbe,einen,man,bekannten,solchen,Farbe,sind,bei,Kilowattstunden,solch,bei,man,aus,obschon,uns,jetzt,"minimalem,",Stadt,"nicht,",Neuwahlen,dem,sind,ein,ausreichendem,mit,sprudelndes,landen,den,"Delikte,",Fahrer,vierte,mit,nicht,schönen,die,Fahrer,Büschel,"wertvollem,",die,Packung,Packung,das,alten,man,wir,immer,die,Wohnung,landen,ich,"trug,",alten,dank,Blut,36,Wohnung,,,,,,,,,,,,,,,,,,,,,,,6,0,6,0,0,4,4,4,,,,,,,space,0.319658994675,,,,,,2017_Jan_26_1356,59.8057665463,spr_backupper,001,Do14,
,feinem,elektrische,harten,Trinkwassers.,serviert.,hat,einem,Wetters,roten,ziemlich,sie,350,leider,kaltem,künftigem,die,frischen,purem,Wäsche.,Glas,weichem,"Zeit,",Lärm,ungefähr,der,leider,noch,serviert.,liegen,die,mehr,einen,Skandal,Lärm,hätten,immer,feinem,"reichem,",Wäsche.,von,derer,noch,geschleudert.,gelegentlichen,eine,Skandals,unzureichenden,geschleudert.,auf,"frischem,",elektrischer,unzureichenden,minimalem,eine,seltenem,sie,die,"nachgewiesen,",sauberen,liegen,was,vor,Mann,auf,Glas,monatlichem,zusätzlichem,Trinkwasser.,im,roten,deren,wurden,Bundespräsident.,einem,am,Wetter,Störenfriede,wurden,frisches,klassischen,Störenfriede,salziger,salzige,Auto,Krams,den,um,350,Tiere,des,im,mehr,war,Kram,täglichem,hat,würden,des,,,,,,,,,,,,,,,,,,,,,,,6,0,6,0,0,5,5,5,,,,,,,space,0.311335086823,,,,,,2017_Jan_26_1356,59.8057665463,spr_backupper,001,Do14,
,Kunsteis,Energie.,Schaumstoff,nan,nan,den,Esslöffel,die,Planeten,"vermiest,",defekt,ml,nichts,Abduschen,Einkommen,er,Grases,Alkohol,nan,köstlicher,Untergrund,um,um,drei,Soldaten,nichts,eine,nan,die,Flut,als,Besucher.,wiedergewählt.,um,seiner,ruhig,dichten,goldenen,nan,den,sie,eine,nan,Besucher.,große,wiedergewählt.,Helmen,nan,jeden,kaltem,Energie.,Helmen,täglichen,große,dichten,defekt,Stimmung,dass,Kraftstoff,die,Tupperware,Dezember,mehr,jeden,köstlichen,Taschengeld,schwarzem,nan,Müll.,Planet,sie,verschrottet.,nan,Esslöffel,Hauptbahnhof.,die,jeden.,verschrottet.,Gras,Schmuck,jeden.,Wurst,Wurst,mehr,aus,Soldaten,die,ml,artgerecht,Herrn,Müll.,als,aus,aus,grünen,den,seiner,Herrn,,,,,,,,,,,,,,,,,,,,,,,6,0,6,0,0,6,6,6,,,,,,,space,0.470869064331,,,,,,2017_Jan_26_1356,59.8057665463,spr_backupper,001,Do14,
,eingesprüht.,nan,gefertigt.,nan,nan,Boden,warmen,Wohnung.,ganz,dass,war.,warme,mitbringen.,gehärtet.,haftbar.,trug.,zwängen.,verdünnt.,nan,Wein,liegen.,Nadelhölzer,jede,Tage.,des,mitbringen.,Sammlung,nan,Slums.,zurückgekehrt.,einmal,nan,nan,jede,Frau,diskutiert.,Stoff,Besatz,nan,Problemen,überführt,Sammlung,nan,nan,Menge,nan,zur,nan,Fall,Saft,nan,zur,Einsatz,Menge,Gewebe,war.,ziemlich,das,fahren.,Slums.,ist.,stattfinden.,als,Fall,Weins,selber,Kaffee,nan,nan,ganz,überführt,nan,nan,warmem,nan,Wohnung.,nan,nan,zwängen.,umgearbeitet.,nan,mit,mit,als,dem,des,Probleme,warmer,gehalten.,Gantenbein.,nan,einmal,Japan.,dem,Tee,Boden,Frau,Gantenbeins.,,,,,,,,,,,,,,,,,,,,,,,6,0,6,0,0,7,7,7,,,,,,,space,0.443720817566,,,,,,2017_Jan_26_1356,59.8057665463,spr_backupper,001,Do14,
,nan,nan,nan,nan,nan,berührt.,Honigs,nan,deutlich.,es,nan,Milch.,nan,nan,nan,nan,nan,nan,nan,schon,nan,umzusetzen.,Menge,nan,zweiten,nan,dummer,nan,nan,nan,Rilke.,nan,nan,Menge,gepasst.,nan,gefertigt.,rekonstruiert.,nan,im,wurden.,dumme,nan,nan,dunkle,nan,Schule.,nan,genug.,besprochen.,nan,Schule.,sinken.,dunkler,wiederhergestellt.,nan,vermiest.,Medikament,nan,nan,nan,nan,gerne.,genug.,schon,kaufen.,wiederbelebt.,nan,nan,deutlich.,wurden.,nan,nan,Honig,nan,nan,nan,nan,nan,nan,nan,an,an,gerne.,Haus,zweiten,im,Milch.,nan,nan,nan,Rilke,nan,Haus,wieder,berührt.,gepasst,nan,,,,,,,,,,,,,,,,,,,,,,,6,0,6,0,0,8,8,8,,,,,,,space,0.417212963104,,,,,,2017_Jan_26_1356,59.8057665463,spr_backupper,001,Do14,
,,,,,,,,,,,,,,,,,,,,,,,,,,,,,,,,,,,,,,,,,,,,,,,,,,,,,,,,,,,,,,,,,,,,,,,,,,,,,,,,,,,,,,,,,,,,,,,,,,,,,,,,,,,,,,,,,,,,,,,,,6,0,6,0,,,,,,,,,,,,,None,j,2.22345995903,,,2017_Jan_26_1356,59.8057665463,spr_backupper,001,Do14,
,Die,Die,Alle,Sie,Beträchtliche,Nicht,Er,Sie,Im,Es,Die,In,Außer,Die,Manche,Die,Wir,Die,Dort,Bei,Jungtiere,Jetzt,Man,Der,Bei,Außer,Sie,Beträchtliche,Am,Als,In,Wir,Er,Man,Die,Fernab,Er,Das,Dort,In,Es,Sie,Es,Wir,Mit,Er,Die,Es,100,Sie,Die,Die,Ihr,Mit,Danach,Die,Dass,In,Wir,Am,Die,Unter,Wir,100,Bei,Jugendliche,Die,Sie,Viele,Im,Es,Die,Walter,Er,Die,Sie,Außer,Die,Wir,Die,Außer,Ich,Ich,Wir,Wir,Bei,In,In,In,Die,Viele,In,Die,Wir,Ich,Nicht,Die,Die,,,,,,,,,,,,,,,,,,,,,,,7,0,7,0,0,0,0,0,,,,,,None,space,0.450088024139,,,,,,2017_Jan_26_1356,59.8057665463,spr_backupper,001,Do14,
,Eislaufbahnen,Schule,Betten,verbrauchen,Stücke,ein,stellt,verlassen,Fernrohr,hat,Uhr,den,das,Formen,Kreditnehmer,Uhr,mussten,Lösung,türmen,unserer,sollten,ist,machte,Flug,der,dem,hatte,Stücke,äußeren,die,meinem,hatten,wurde,machte,Schuhe,des,hat,Tuch,türmen,der,waren,hatte,wurden,hatten,dieser,wurde,Kinder,wurden,g,haben,Schule,Kinder,Blutdruck,dieser,wurde,Uhr,es,einer,konnten,äußersten,Teilnehmerinnen,keinen,übergaben,g,unserer,können,müden,verbrauchen,Tonnen,Fernrohr,waren,Autos,Scheel,stellt,Linie,verlassen,dem,Autos,mussten,Stücke,den,nehme,nehme,übergaben,haben,der,der,den,diesem,Gäste,Tonnen,meinem,"Uhr,",haben,wurde,ein,Schuhe,Gäste,,,,,,,,,,,,,,,,,,,,,,,7,0,7,0,0,1,1,1,,,,,,,space,0.323356151581,,,,,,2017_Jan_26_1356,59.8057665463,spr_backupper,001,Do14,
,wurden,verbraucht,wurden,60,saftiges,Tropfen,die,wegen,sahen,uns,schlug,Kakao,Essen,wurden,sind,war,uns,wird,sich,Ankunft,immer,genau,mal,zum,Feier,Essen,keine,saftigen,Rand,Sonne,Studium,in,trotz,mal,in,Rummels,ein,wurde,sich,Tat,nur,keine,Eimer,in,Methode,trotz,fuhren,Eimer,braunen,die,verbraucht,fuhren,kann,Methode,die,schlug,"regnete,",Studie,dann,Rand,wussten,Umständen,das,brauner,Ankunft,Kleidung,Teilnehmer,60,gebrauchter,sahen,nur,beider,war,die,101,wegen,Bürgermeister,beider,uns,wurden,Bürgermeister,eine,eine,dem,jede,Feier,Tat,Kakao,Zirkus,suchen,gebrauchte,Studium,die,jede,damals,Tropfen,in,suchen,,,,,,,,,,,,,,,,,,,,,,,7,0,7,0,0,2,2,2,,,,,,,space,0.349919080734,,,,,,2017_Jan_26_1356,59.8057665463,spr_backupper,001,Do14,
,mit,260.000,mit,Liter,Fleisch,königlichen,Masse,des,wir,die,"sporadisch,",gehören,kann,unter,mit,aus,durch,mit,Berge,stand,auf,die,wieder,Mond,gedachte,kann,Lust,Fleischs,der,"unterging,",las,Dänemark,dem,wieder,Größe,wurde,Hemd,dann,Berge,wissen,kleinere,Lust,roter,Dänemark,kann,des,mit,rote,Zuckers,Erlebnisse,260.000,mit,schon,kann,Leinwand,"sporadisch,",hat,wurde,mit,der,überwiegend,können,Auto,Zucker,stand,bei,wurden,Liter,Kleidung,wir,kleinere,beteiligter,der,Masse,hält,dem,beschuldigten,beteiligten,durch,aus,beschuldigten,große,große,Mann,Menge,gedachte,wissen,gehören,werden,die,Kleidung,habe,er,Menge,schnell,königliches,Größe,die,,,,,,,,,,,,,,,,,,,,,,,7,0,7,0,0,3,3,3,,,,,,,space,0.319494962692,,,,,,2017_Jan_26_1356,59.8057665463,spr_backupper,001,Do14,
,dauerhaftem,Kilowattstunden,"üblichem,",sprudelnden,wurden,Bluts,mit,schönen,den,Stimmung,obwohl,immer,ich,"regelmäßigem,","sämtlichem,","Japan,",Büschel,"reichlichem,",schmutzige,ein,warmem,richtige,viel,dauerte,man,ich,auf,wurden,Stadt,war,ich,gelegentlich,bekannten,viel,36,schon,aus,mit,schmutziger,wir,"Delikte,",auf,Farbe,einen,man,bekannten,solchen,Farbe,sind,bei,Kilowattstunden,solch,bei,man,aus,obschon,uns,jetzt,"minimalem,",Stadt,"nicht,",Neuwahlen,dem,sind,ein,ausreichendem,mit,sprudelndes,landen,den,"Delikte,",Fahrer,vierte,mit,nicht,schönen,die,Fahrer,Büschel,"wertvollem,",die,Packung,Packung,das,alten,man,wir,immer,die,Wohnung,landen,ich,"trug,",alten,dank,Blut,36,Wohnung,,,,,,,,,,,,,,,,,,,,,,,7,0,7,0,0,4,4,4,,,,,,,space,0.36615395546,,,,,,2017_Jan_26_1356,59.8057665463,spr_backupper,001,Do14,
,feinem,elektrische,harten,Trinkwassers.,serviert.,hat,einem,Wetters,roten,ziemlich,sie,350,leider,kaltem,künftigem,die,frischen,purem,Wäsche.,Glas,weichem,"Zeit,",Lärm,ungefähr,der,leider,noch,serviert.,liegen,die,mehr,einen,Skandal,Lärm,hätten,immer,feinem,"reichem,",Wäsche.,von,derer,noch,geschleudert.,gelegentlichen,eine,Skandals,unzureichenden,geschleudert.,auf,"frischem,",elektrischer,unzureichenden,minimalem,eine,seltenem,sie,die,"nachgewiesen,",sauberen,liegen,was,vor,Mann,auf,Glas,monatlichem,zusätzlichem,Trinkwasser.,im,roten,deren,wurden,Bundespräsident.,einem,am,Wetter,Störenfriede,wurden,frisches,klassischen,Störenfriede,salziger,salzige,Auto,Krams,den,um,350,Tiere,des,im,mehr,war,Kram,täglichem,hat,würden,des,,,,,,,,,,,,,,,,,,,,,,,7,0,7,0,0,5,5,5,,,,,,,space,0.394484996796,,,,,,2017_Jan_26_1356,59.8057665463,spr_backupper,001,Do14,
,Kunsteis,Energie.,Schaumstoff,nan,nan,den,Esslöffel,die,Planeten,"vermiest,",defekt,ml,nichts,Abduschen,Einkommen,er,Grases,Alkohol,nan,köstlicher,Untergrund,um,um,drei,Soldaten,nichts,eine,nan,die,Flut,als,Besucher.,wiedergewählt.,um,seiner,ruhig,dichten,goldenen,nan,den,sie,eine,nan,Besucher.,große,wiedergewählt.,Helmen,nan,jeden,kaltem,Energie.,Helmen,täglichen,große,dichten,defekt,Stimmung,dass,Kraftstoff,die,Tupperware,Dezember,mehr,jeden,köstlichen,Taschengeld,schwarzem,nan,Müll.,Planet,sie,verschrottet.,nan,Esslöffel,Hauptbahnhof.,die,jeden.,verschrottet.,Gras,Schmuck,jeden.,Wurst,Wurst,mehr,aus,Soldaten,die,ml,artgerecht,Herrn,Müll.,als,aus,aus,grünen,den,seiner,Herrn,,,,,,,,,,,,,,,,,,,,,,,7,0,7,0,0,6,6,6,,,,,,,space,0.519984006882,,,,,,2017_Jan_26_1356,59.8057665463,spr_backupper,001,Do14,
,eingesprüht.,nan,gefertigt.,nan,nan,Boden,warmen,Wohnung.,ganz,dass,war.,warme,mitbringen.,gehärtet.,haftbar.,trug.,zwängen.,verdünnt.,nan,Wein,liegen.,Nadelhölzer,jede,Tage.,des,mitbringen.,Sammlung,nan,Slums.,zurückgekehrt.,einmal,nan,nan,jede,Frau,diskutiert.,Stoff,Besatz,nan,Problemen,überführt,Sammlung,nan,nan,Menge,nan,zur,nan,Fall,Saft,nan,zur,Einsatz,Menge,Gewebe,war.,ziemlich,das,fahren.,Slums.,ist.,stattfinden.,als,Fall,Weins,selber,Kaffee,nan,nan,ganz,überführt,nan,nan,warmem,nan,Wohnung.,nan,nan,zwängen.,umgearbeitet.,nan,mit,mit,als,dem,des,Probleme,warmer,gehalten.,Gantenbein.,nan,einmal,Japan.,dem,Tee,Boden,Frau,Gantenbeins.,,,,,,,,,,,,,,,,,,,,,,,7,0,7,0,0,7,7,7,,,,,,,space,0.503802061081,,,,,,2017_Jan_26_1356,59.8057665463,spr_backupper,001,Do14,
,,,,,,,,,,,,,,,,,,,,,,,,,,,,,,,,,,,,,,,,,,,,,,,,,,,,,,,,,,,,,,,,,,,,,,,,,,,,,,,,,,,,,,,,,,,,,,,,,,,,,,,,,,,,,,,,,,,,,,,,,7,0,7,0,,,,,,,,,,,,,None,n,2.07995891571,,,2017_Jan_26_1356,59.8057665463,spr_backupper,001,Do14,
,Die,Die,Alle,Sie,Beträchtliche,Nicht,Er,Sie,Im,Es,Die,In,Außer,Die,Manche,Die,Wir,Die,Dort,Bei,Jungtiere,Jetzt,Man,Der,Bei,Außer,Sie,Beträchtliche,Am,Als,In,Wir,Er,Man,Die,Fernab,Er,Das,Dort,In,Es,Sie,Es,Wir,Mit,Er,Die,Es,100,Sie,Die,Die,Ihr,Mit,Danach,Die,Dass,In,Wir,Am,Die,Unter,Wir,100,Bei,Jugendliche,Die,Sie,Viele,Im,Es,Die,Walter,Er,Die,Sie,Außer,Die,Wir,Die,Außer,Ich,Ich,Wir,Wir,Bei,In,In,In,Die,Viele,In,Die,Wir,Ich,Nicht,Die,Die,,,,,,,,,,,,,,,,,,,,,,,8,0,8,0,0,0,0,0,,,,,,space,space,0.397818088531,,,,0.369769096375,,2017_Jan_26_1356,59.8057665463,spr_backupper,001,Do14,
,Eislaufbahnen,Schule,Betten,verbrauchen,Stücke,ein,stellt,verlassen,Fernrohr,hat,Uhr,den,das,Formen,Kreditnehmer,Uhr,mussten,Lösung,türmen,unserer,sollten,ist,machte,Flug,der,dem,hatte,Stücke,äußeren,die,meinem,hatten,wurde,machte,Schuhe,des,hat,Tuch,türmen,der,waren,hatte,wurden,hatten,dieser,wurde,Kinder,wurden,g,haben,Schule,Kinder,Blutdruck,dieser,wurde,Uhr,es,einer,konnten,äußersten,Teilnehmerinnen,keinen,übergaben,g,unserer,können,müden,verbrauchen,Tonnen,Fernrohr,waren,Autos,Scheel,stellt,Linie,verlassen,dem,Autos,mussten,Stücke,den,nehme,nehme,übergaben,haben,der,der,den,diesem,Gäste,Tonnen,meinem,"Uhr,",haben,wurde,ein,Schuhe,Gäste,,,,,,,,,,,,,,,,,,,,,,,8,0,8,0,0,1,1,1,,,,,,,space,0.482640981674,,,,,,2017_Jan_26_1356,59.8057665463,spr_backupper,001,Do14,
,wurden,verbraucht,wurden,60,saftiges,Tropfen,die,wegen,sahen,uns,schlug,Kakao,Essen,wurden,sind,war,uns,wird,sich,Ankunft,immer,genau,mal,zum,Feier,Essen,keine,saftigen,Rand,Sonne,Studium,in,trotz,mal,in,Rummels,ein,wurde,sich,Tat,nur,keine,Eimer,in,Methode,trotz,fuhren,Eimer,braunen,die,verbraucht,fuhren,kann,Methode,die,schlug,"regnete,",Studie,dann,Rand,wussten,Umständen,das,brauner,Ankunft,Kleidung,Teilnehmer,60,gebrauchter,sahen,nur,beider,war,die,101,wegen,Bürgermeister,beider,uns,wurden,Bürgermeister,eine,eine,dem,jede,Feier,Tat,Kakao,Zirkus,suchen,gebrauchte,Studium,die,jede,damals,Tropfen,in,suchen,,,,,,,,,,,,,,,,,,,,,,,8,0,8,0,0,2,2,2,,,,,,,space,0.441097974777,,,,,,2017_Jan_26_1356,59.8057665463,spr_backupper,001,Do14,
,mit,260.000,mit,Liter,Fleisch,königlichen,Masse,des,wir,die,"sporadisch,",gehören,kann,unter,mit,aus,durch,mit,Berge,stand,auf,die,wieder,Mond,gedachte,kann,Lust,Fleischs,der,"unterging,",las,Dänemark,dem,wieder,Größe,wurde,Hemd,dann,Berge,wissen,kleinere,Lust,roter,Dänemark,kann,des,mit,rote,Zuckers,Erlebnisse,260.000,mit,schon,kann,Leinwand,"sporadisch,",hat,wurde,mit,der,überwiegend,können,Auto,Zucker,stand,bei,wurden,Liter,Kleidung,wir,kleinere,beteiligter,der,Masse,hält,dem,beschuldigten,beteiligten,durch,aus,beschuldigten,große,große,Mann,Menge,gedachte,wissen,gehören,werden,die,Kleidung,habe,er,Menge,schnell,königliches,Größe,die,,,,,,,,,,,,,,,,,,,,,,,8,0,8,0,0,3,3,3,,,,,,,space,0.639006137848,,,,,,2017_Jan_26_1356,59.8057665463,spr_backupper,001,Do14,
,dauerhaftem,Kilowattstunden,"üblichem,",sprudelnden,wurden,Bluts,mit,schönen,den,Stimmung,obwohl,immer,ich,"regelmäßigem,","sämtlichem,","Japan,",Büschel,"reichlichem,",schmutzige,ein,warmem,richtige,viel,dauerte,man,ich,auf,wurden,Stadt,war,ich,gelegentlich,bekannten,viel,36,schon,aus,mit,schmutziger,wir,"Delikte,",auf,Farbe,einen,man,bekannten,solchen,Farbe,sind,bei,Kilowattstunden,solch,bei,man,aus,obschon,uns,jetzt,"minimalem,",Stadt,"nicht,",Neuwahlen,dem,sind,ein,ausreichendem,mit,sprudelndes,landen,den,"Delikte,",Fahrer,vierte,mit,nicht,schönen,die,Fahrer,Büschel,"wertvollem,",die,Packung,Packung,das,alten,man,wir,immer,die,Wohnung,landen,ich,"trug,",alten,dank,Blut,36,Wohnung,,,,,,,,,,,,,,,,,,,,,,,8,0,8,0,0,4,4,4,,,,,,,space,0.835509061813,,,,,,2017_Jan_26_1356,59.8057665463,spr_backupper,001,Do14,
,feinem,elektrische,harten,Trinkwassers.,serviert.,hat,einem,Wetters,roten,ziemlich,sie,350,leider,kaltem,künftigem,die,frischen,purem,Wäsche.,Glas,weichem,"Zeit,",Lärm,ungefähr,der,leider,noch,serviert.,liegen,die,mehr,einen,Skandal,Lärm,hätten,immer,feinem,"reichem,",Wäsche.,von,derer,noch,geschleudert.,gelegentlichen,eine,Skandals,unzureichenden,geschleudert.,auf,"frischem,",elektrischer,unzureichenden,minimalem,eine,seltenem,sie,die,"nachgewiesen,",sauberen,liegen,was,vor,Mann,auf,Glas,monatlichem,zusätzlichem,Trinkwasser.,im,roten,deren,wurden,Bundespräsident.,einem,am,Wetter,Störenfriede,wurden,frisches,klassischen,Störenfriede,salziger,salzige,Auto,Krams,den,um,350,Tiere,des,im,mehr,war,Kram,täglichem,hat,würden,des,,,,,,,,,,,,,,,,,,,,,,,8,0,8,0,0,5,5,5,,,,,,,space,0.558387994766,,,,,,2017_Jan_26_1356,59.8057665463,spr_backupper,001,Do14,
,Kunsteis,Energie.,Schaumstoff,nan,nan,den,Esslöffel,die,Planeten,"vermiest,",defekt,ml,nichts,Abduschen,Einkommen,er,Grases,Alkohol,nan,köstlicher,Untergrund,um,um,drei,Soldaten,nichts,eine,nan,die,Flut,als,Besucher.,wiedergewählt.,um,seiner,ruhig,dichten,goldenen,nan,den,sie,eine,nan,Besucher.,große,wiedergewählt.,Helmen,nan,jeden,kaltem,Energie.,Helmen,täglichen,große,dichten,defekt,Stimmung,dass,Kraftstoff,die,Tupperware,Dezember,mehr,jeden,köstlichen,Taschengeld,schwarzem,nan,Müll.,Planet,sie,verschrottet.,nan,Esslöffel,Hauptbahnhof.,die,jeden.,verschrottet.,Gras,Schmuck,jeden.,Wurst,Wurst,mehr,aus,Soldaten,die,ml,artgerecht,Herrn,Müll.,als,aus,aus,grünen,den,seiner,Herrn,,,,,,,,,,,,,,,,,,,,,,,8,0,8,0,0,6,6,6,,,,,,,space,0.454050779343,,,,,,2017_Jan_26_1356,59.8057665463,spr_backupper,001,Do14,
,,,,,,,,,,,,,,,,,,,,,,,,,,,,,,,,,,,,,,,,,,,,,,,,,,,,,,,,,,,,,,,,,,,,,,,,,,,,,,,,,,,,,,,,,,,,,,,,,,,,,,,,,,,,,,,,,,,,,,,,,8,0,8,0,,,,,,,,,,,,,None,j,4.21042990685,,,2017_Jan_26_1356,59.8057665463,spr_backupper,001,Do14,
,Die,Die,Alle,Sie,Beträchtliche,Nicht,Er,Sie,Im,Es,Die,In,Außer,Die,Manche,Die,Wir,Die,Dort,Bei,Jungtiere,Jetzt,Man,Der,Bei,Außer,Sie,Beträchtliche,Am,Als,In,Wir,Er,Man,Die,Fernab,Er,Das,Dort,In,Es,Sie,Es,Wir,Mit,Er,Die,Es,100,Sie,Die,Die,Ihr,Mit,Danach,Die,Dass,In,Wir,Am,Die,Unter,Wir,100,Bei,Jugendliche,Die,Sie,Viele,Im,Es,Die,Walter,Er,Die,Sie,Außer,Die,Wir,Die,Außer,Ich,Ich,Wir,Wir,Bei,In,In,In,Die,Viele,In,Die,Wir,Ich,Nicht,Die,Die,,,,,,,,,,,,,,,,,,,,,,,9,0,9,0,0,0,0,0,,,,,,None,space,0.565335035324,,,,,,2017_Jan_26_1356,59.8057665463,spr_backupper,001,Do14,
,Eislaufbahnen,Schule,Betten,verbrauchen,Stücke,ein,stellt,verlassen,Fernrohr,hat,Uhr,den,das,Formen,Kreditnehmer,Uhr,mussten,Lösung,türmen,unserer,sollten,ist,machte,Flug,der,dem,hatte,Stücke,äußeren,die,meinem,hatten,wurde,machte,Schuhe,des,hat,Tuch,türmen,der,waren,hatte,wurden,hatten,dieser,wurde,Kinder,wurden,g,haben,Schule,Kinder,Blutdruck,dieser,wurde,Uhr,es,einer,konnten,äußersten,Teilnehmerinnen,keinen,übergaben,g,unserer,können,müden,verbrauchen,Tonnen,Fernrohr,waren,Autos,Scheel,stellt,Linie,verlassen,dem,Autos,mussten,Stücke,den,nehme,nehme,übergaben,haben,der,der,den,diesem,Gäste,Tonnen,meinem,"Uhr,",haben,wurde,ein,Schuhe,Gäste,,,,,,,,,,,,,,,,,,,,,,,9,0,9,0,0,1,1,1,,,,,,,space,0.356902122498,,,,,,2017_Jan_26_1356,59.8057665463,spr_backupper,001,Do14,
,wurden,verbraucht,wurden,60,saftiges,Tropfen,die,wegen,sahen,uns,schlug,Kakao,Essen,wurden,sind,war,uns,wird,sich,Ankunft,immer,genau,mal,zum,Feier,Essen,keine,saftigen,Rand,Sonne,Studium,in,trotz,mal,in,Rummels,ein,wurde,sich,Tat,nur,keine,Eimer,in,Methode,trotz,fuhren,Eimer,braunen,die,verbraucht,fuhren,kann,Methode,die,schlug,"regnete,",Studie,dann,Rand,wussten,Umständen,das,brauner,Ankunft,Kleidung,Teilnehmer,60,gebrauchter,sahen,nur,beider,war,die,101,wegen,Bürgermeister,beider,uns,wurden,Bürgermeister,eine,eine,dem,jede,Feier,Tat,Kakao,Zirkus,suchen,gebrauchte,Studium,die,jede,damals,Tropfen,in,suchen,,,,,,,,,,,,,,,,,,,,,,,9,0,9,0,0,2,2,2,,,,,,,space,0.386777162552,,,,,,2017_Jan_26_1356,59.8057665463,spr_backupper,001,Do14,
,mit,260.000,mit,Liter,Fleisch,königlichen,Masse,des,wir,die,"sporadisch,",gehören,kann,unter,mit,aus,durch,mit,Berge,stand,auf,die,wieder,Mond,gedachte,kann,Lust,Fleischs,der,"unterging,",las,Dänemark,dem,wieder,Größe,wurde,Hemd,dann,Berge,wissen,kleinere,Lust,roter,Dänemark,kann,des,mit,rote,Zuckers,Erlebnisse,260.000,mit,schon,kann,Leinwand,"sporadisch,",hat,wurde,mit,der,überwiegend,können,Auto,Zucker,stand,bei,wurden,Liter,Kleidung,wir,kleinere,beteiligter,der,Masse,hält,dem,beschuldigten,beteiligten,durch,aus,beschuldigten,große,große,Mann,Menge,gedachte,wissen,gehören,werden,die,Kleidung,habe,er,Menge,schnell,königliches,Größe,die,,,,,,,,,,,,,,,,,,,,,,,9,0,9,0,0,3,3,3,,,,,,,space,0.399349212646,,,,,,2017_Jan_26_1356,59.8057665463,spr_backupper,001,Do14,
,dauerhaftem,Kilowattstunden,"üblichem,",sprudelnden,wurden,Bluts,mit,schönen,den,Stimmung,obwohl,immer,ich,"regelmäßigem,","sämtlichem,","Japan,",Büschel,"reichlichem,",schmutzige,ein,warmem,richtige,viel,dauerte,man,ich,auf,wurden,Stadt,war,ich,gelegentlich,bekannten,viel,36,schon,aus,mit,schmutziger,wir,"Delikte,",auf,Farbe,einen,man,bekannten,solchen,Farbe,sind,bei,Kilowattstunden,solch,bei,man,aus,obschon,uns,jetzt,"minimalem,",Stadt,"nicht,",Neuwahlen,dem,sind,ein,ausreichendem,mit,sprudelndes,landen,den,"Delikte,",Fahrer,vierte,mit,nicht,schönen,die,Fahrer,Büschel,"wertvollem,",die,Packung,Packung,das,alten,man,wir,immer,die,Wohnung,landen,ich,"trug,",alten,dank,Blut,36,Wohnung,,,,,,,,,,,,,,,,,,,,,,,9,0,9,0,0,4,4,4,,,,,,,space,0.419876098633,,,,,,2017_Jan_26_1356,59.8057665463,spr_backupper,001,Do14,
,feinem,elektrische,harten,Trinkwassers.,serviert.,hat,einem,Wetters,roten,ziemlich,sie,350,leider,kaltem,künftigem,die,frischen,purem,Wäsche.,Glas,weichem,"Zeit,",Lärm,ungefähr,der,leider,noch,serviert.,liegen,die,mehr,einen,Skandal,Lärm,hätten,immer,feinem,"reichem,",Wäsche.,von,derer,noch,geschleudert.,gelegentlichen,eine,Skandals,unzureichenden,geschleudert.,auf,"frischem,",elektrischer,unzureichenden,minimalem,eine,seltenem,sie,die,"nachgewiesen,",sauberen,liegen,was,vor,Mann,auf,Glas,monatlichem,zusätzlichem,Trinkwasser.,im,roten,deren,wurden,Bundespräsident.,einem,am,Wetter,Störenfriede,wurden,frisches,klassischen,Störenfriede,salziger,salzige,Auto,Krams,den,um,350,Tiere,des,im,mehr,war,Kram,täglichem,hat,würden,des,,,,,,,,,,,,,,,,,,,,,,,9,0,9,0,0,5,5,5,,,,,,,space,0.386054039001,,,,,,2017_Jan_26_1356,59.8057665463,spr_backupper,001,Do14,
,Kunsteis,Energie.,Schaumstoff,nan,nan,den,Esslöffel,die,Planeten,"vermiest,",defekt,ml,nichts,Abduschen,Einkommen,er,Grases,Alkohol,nan,köstlicher,Untergrund,um,um,drei,Soldaten,nichts,eine,nan,die,Flut,als,Besucher.,wiedergewählt.,um,seiner,ruhig,dichten,goldenen,nan,den,sie,eine,nan,Besucher.,große,wiedergewählt.,Helmen,nan,jeden,kaltem,Energie.,Helmen,täglichen,große,dichten,defekt,Stimmung,dass,Kraftstoff,die,Tupperware,Dezember,mehr,jeden,köstlichen,Taschengeld,schwarzem,nan,Müll.,Planet,sie,verschrottet.,nan,Esslöffel,Hauptbahnhof.,die,jeden.,verschrottet.,Gras,Schmuck,jeden.,Wurst,Wurst,mehr,aus,Soldaten,die,ml,artgerecht,Herrn,Müll.,als,aus,aus,grünen,den,seiner,Herrn,,,,,,,,,,,,,,,,,,,,,,,9,0,9,0,0,6,6,6,,,,,,,space,0.571670055389,,,,,,2017_Jan_26_1356,59.8057665463,spr_backupper,001,Do14,
,eingesprüht.,nan,gefertigt.,nan,nan,Boden,warmen,Wohnung.,ganz,dass,war.,warme,mitbringen.,gehärtet.,haftbar.,trug.,zwängen.,verdünnt.,nan,Wein,liegen.,Nadelhölzer,jede,Tage.,des,mitbringen.,Sammlung,nan,Slums.,zurückgekehrt.,einmal,nan,nan,jede,Frau,diskutiert.,Stoff,Besatz,nan,Problemen,überführt,Sammlung,nan,nan,Menge,nan,zur,nan,Fall,Saft,nan,zur,Einsatz,Menge,Gewebe,war.,ziemlich,das,fahren.,Slums.,ist.,stattfinden.,als,Fall,Weins,selber,Kaffee,nan,nan,ganz,überführt,nan,nan,warmem,nan,Wohnung.,nan,nan,zwängen.,umgearbeitet.,nan,mit,mit,als,dem,des,Probleme,warmer,gehalten.,Gantenbein.,nan,einmal,Japan.,dem,Tee,Boden,Frau,Gantenbeins.,,,,,,,,,,,,,,,,,,,,,,,9,0,9,0,0,7,7,7,,,,,,,space,0.648962974548,,,,,,2017_Jan_26_1356,59.8057665463,spr_backupper,001,Do14,
,,,,,,,,,,,,,,,,,,,,,,,,,,,,,,,,,,,,,,,,,,,,,,,,,,,,,,,,,,,,,,,,,,,,,,,,,,,,,,,,,,,,,,,,,,,,,,,,,,,,,,,,,,,,,,,,,,,,,,,,,9,0,9,0,,,,,,,,,,,,,None,j,1.63120698929,,,2017_Jan_26_1356,59.8057665463,spr_backupper,001,Do14,
,Die,Die,Alle,Sie,Beträchtliche,Nicht,Er,Sie,Im,Es,Die,In,Außer,Die,Manche,Die,Wir,Die,Dort,Bei,Jungtiere,Jetzt,Man,Der,Bei,Außer,Sie,Beträchtliche,Am,Als,In,Wir,Er,Man,Die,Fernab,Er,Das,Dort,In,Es,Sie,Es,Wir,Mit,Er,Die,Es,100,Sie,Die,Die,Ihr,Mit,Danach,Die,Dass,In,Wir,Am,Die,Unter,Wir,100,Bei,Jugendliche,Die,Sie,Viele,Im,Es,Die,Walter,Er,Die,Sie,Außer,Die,Wir,Die,Außer,Ich,Ich,Wir,Wir,Bei,In,In,In,Die,Viele,In,Die,Wir,Ich,Nicht,Die,Die,,,,,,,,,,,,,,,,,,,,,,,10,0,10,0,0,0,0,0,,,,,,None,space,0.84336400032,,,,,,2017_Jan_26_1356,59.8057665463,spr_backupper,001,Do14,
,Eislaufbahnen,Schule,Betten,verbrauchen,Stücke,ein,stellt,verlassen,Fernrohr,hat,Uhr,den,das,Formen,Kreditnehmer,Uhr,mussten,Lösung,türmen,unserer,sollten,ist,machte,Flug,der,dem,hatte,Stücke,äußeren,die,meinem,hatten,wurde,machte,Schuhe,des,hat,Tuch,türmen,der,waren,hatte,wurden,hatten,dieser,wurde,Kinder,wurden,g,haben,Schule,Kinder,Blutdruck,dieser,wurde,Uhr,es,einer,konnten,äußersten,Teilnehmerinnen,keinen,übergaben,g,unserer,können,müden,verbrauchen,Tonnen,Fernrohr,waren,Autos,Scheel,stellt,Linie,verlassen,dem,Autos,mussten,Stücke,den,nehme,nehme,übergaben,haben,der,der,den,diesem,Gäste,Tonnen,meinem,"Uhr,",haben,wurde,ein,Schuhe,Gäste,,,,,,,,,,,,,,,,,,,,,,,10,0,10,0,0,1,1,1,,,,,,,space,0.58349609375,,,,,,2017_Jan_26_1356,59.8057665463,spr_backupper,001,Do14,
,wurden,verbraucht,wurden,60,saftiges,Tropfen,die,wegen,sahen,uns,schlug,Kakao,Essen,wurden,sind,war,uns,wird,sich,Ankunft,immer,genau,mal,zum,Feier,Essen,keine,saftigen,Rand,Sonne,Studium,in,trotz,mal,in,Rummels,ein,wurde,sich,Tat,nur,keine,Eimer,in,Methode,trotz,fuhren,Eimer,braunen,die,verbraucht,fuhren,kann,Methode,die,schlug,"regnete,",Studie,dann,Rand,wussten,Umständen,das,brauner,Ankunft,Kleidung,Teilnehmer,60,gebrauchter,sahen,nur,beider,war,die,101,wegen,Bürgermeister,beider,uns,wurden,Bürgermeister,eine,eine,dem,jede,Feier,Tat,Kakao,Zirkus,suchen,gebrauchte,Studium,die,jede,damals,Tropfen,in,suchen,,,,,,,,,,,,,,,,,,,,,,,10,0,10,0,0,2,2,2,,,,,,,space,0.419579982758,,,,,,2017_Jan_26_1356,59.8057665463,spr_backupper,001,Do14,
,mit,260.000,mit,Liter,Fleisch,königlichen,Masse,des,wir,die,"sporadisch,",gehören,kann,unter,mit,aus,durch,mit,Berge,stand,auf,die,wieder,Mond,gedachte,kann,Lust,Fleischs,der,"unterging,",las,Dänemark,dem,wieder,Größe,wurde,Hemd,dann,Berge,wissen,kleinere,Lust,roter,Dänemark,kann,des,mit,rote,Zuckers,Erlebnisse,260.000,mit,schon,kann,Leinwand,"sporadisch,",hat,wurde,mit,der,überwiegend,können,Auto,Zucker,stand,bei,wurden,Liter,Kleidung,wir,kleinere,beteiligter,der,Masse,hält,dem,beschuldigten,beteiligten,durch,aus,beschuldigten,große,große,Mann,Menge,gedachte,wissen,gehören,werden,die,Kleidung,habe,er,Menge,schnell,königliches,Größe,die,,,,,,,,,,,,,,,,,,,,,,,10,0,10,0,0,3,3,3,,,,,,,space,0.358467102051,,,,,,2017_Jan_26_1356,59.8057665463,spr_backupper,001,Do14,
,dauerhaftem,Kilowattstunden,"üblichem,",sprudelnden,wurden,Bluts,mit,schönen,den,Stimmung,obwohl,immer,ich,"regelmäßigem,","sämtlichem,","Japan,",Büschel,"reichlichem,",schmutzige,ein,warmem,richtige,viel,dauerte,man,ich,auf,wurden,Stadt,war,ich,gelegentlich,bekannten,viel,36,schon,aus,mit,schmutziger,wir,"Delikte,",auf,Farbe,einen,man,bekannten,solchen,Farbe,sind,bei,Kilowattstunden,solch,bei,man,aus,obschon,uns,jetzt,"minimalem,",Stadt,"nicht,",Neuwahlen,dem,sind,ein,ausreichendem,mit,sprudelndes,landen,den,"Delikte,",Fahrer,vierte,mit,nicht,schönen,die,Fahrer,Büschel,"wertvollem,",die,Packung,Packung,das,alten,man,wir,immer,die,Wohnung,landen,ich,"trug,",alten,dank,Blut,36,Wohnung,,,,,,,,,,,,,,,,,,,,,,,10,0,10,0,0,4,4,4,,,,,,,space,0.352348089218,,,,,,2017_Jan_26_1356,59.8057665463,spr_backupper,001,Do14,
,feinem,elektrische,harten,Trinkwassers.,serviert.,hat,einem,Wetters,roten,ziemlich,sie,350,leider,kaltem,künftigem,die,frischen,purem,Wäsche.,Glas,weichem,"Zeit,",Lärm,ungefähr,der,leider,noch,serviert.,liegen,die,mehr,einen,Skandal,Lärm,hätten,immer,feinem,"reichem,",Wäsche.,von,derer,noch,geschleudert.,gelegentlichen,eine,Skandals,unzureichenden,geschleudert.,auf,"frischem,",elektrischer,unzureichenden,minimalem,eine,seltenem,sie,die,"nachgewiesen,",sauberen,liegen,was,vor,Mann,auf,Glas,monatlichem,zusätzlichem,Trinkwasser.,im,roten,deren,wurden,Bundespräsident.,einem,am,Wetter,Störenfriede,wurden,frisches,klassischen,Störenfriede,salziger,salzige,Auto,Krams,den,um,350,Tiere,des,im,mehr,war,Kram,täglichem,hat,würden,des,,,,,,,,,,,,,,,,,,,,,,,10,0,10,0,0,5,5,5,,,,,,,space,0.351464986801,,,,,,2017_Jan_26_1356,59.8057665463,spr_backupper,001,Do14,
,Kunsteis,Energie.,Schaumstoff,nan,nan,den,Esslöffel,die,Planeten,"vermiest,",defekt,ml,nichts,Abduschen,Einkommen,er,Grases,Alkohol,nan,köstlicher,Untergrund,um,um,drei,Soldaten,nichts,eine,nan,die,Flut,als,Besucher.,wiedergewählt.,um,seiner,ruhig,dichten,goldenen,nan,den,sie,eine,nan,Besucher.,große,wiedergewählt.,Helmen,nan,jeden,kaltem,Energie.,Helmen,täglichen,große,dichten,defekt,Stimmung,dass,Kraftstoff,die,Tupperware,Dezember,mehr,jeden,köstlichen,Taschengeld,schwarzem,nan,Müll.,Planet,sie,verschrottet.,nan,Esslöffel,Hauptbahnhof.,die,jeden.,verschrottet.,Gras,Schmuck,jeden.,Wurst,Wurst,mehr,aus,Soldaten,die,ml,artgerecht,Herrn,Müll.,als,aus,aus,grünen,den,seiner,Herrn,,,,,,,,,,,,,,,,,,,,,,,10,0,10,0,0,6,6,6,,,,,,,space,0.349270820618,,,,,,2017_Jan_26_1356,59.8057665463,spr_backupper,001,Do14,
,eingesprüht.,nan,gefertigt.,nan,nan,Boden,warmen,Wohnung.,ganz,dass,war.,warme,mitbringen.,gehärtet.,haftbar.,trug.,zwängen.,verdünnt.,nan,Wein,liegen.,Nadelhölzer,jede,Tage.,des,mitbringen.,Sammlung,nan,Slums.,zurückgekehrt.,einmal,nan,nan,jede,Frau,diskutiert.,Stoff,Besatz,nan,Problemen,überführt,Sammlung,nan,nan,Menge,nan,zur,nan,Fall,Saft,nan,zur,Einsatz,Menge,Gewebe,war.,ziemlich,das,fahren.,Slums.,ist.,stattfinden.,als,Fall,Weins,selber,Kaffee,nan,nan,ganz,überführt,nan,nan,warmem,nan,Wohnung.,nan,nan,zwängen.,umgearbeitet.,nan,mit,mit,als,dem,des,Probleme,warmer,gehalten.,Gantenbein.,nan,einmal,Japan.,dem,Tee,Boden,Frau,Gantenbeins.,,,,,,,,,,,,,,,,,,,,,,,10,0,10,0,0,7,7,7,,,,,,,space,0.317690849304,,,,,,2017_Jan_26_1356,59.8057665463,spr_backupper,001,Do14,
,nan,nan,nan,nan,nan,berührt.,Honigs,nan,deutlich.,es,nan,Milch.,nan,nan,nan,nan,nan,nan,nan,schon,nan,umzusetzen.,Menge,nan,zweiten,nan,dummer,nan,nan,nan,Rilke.,nan,nan,Menge,gepasst.,nan,gefertigt.,rekonstruiert.,nan,im,wurden.,dumme,nan,nan,dunkle,nan,Schule.,nan,genug.,besprochen.,nan,Schule.,sinken.,dunkler,wiederhergestellt.,nan,vermiest.,Medikament,nan,nan,nan,nan,gerne.,genug.,schon,kaufen.,wiederbelebt.,nan,nan,deutlich.,wurden.,nan,nan,Honig,nan,nan,nan,nan,nan,nan,nan,an,an,gerne.,Haus,zweiten,im,Milch.,nan,nan,nan,Rilke,nan,Haus,wieder,berührt.,gepasst,nan,,,,,,,,,,,,,,,,,,,,,,,10,0,10,0,0,8,8,8,,,,,,,space,0.370018005371,,,,,,2017_Jan_26_1356,59.8057665463,spr_backupper,001,Do14,
,nan,nan,nan,nan,nan,nan,her.,nan,nan,regnete.,nan,nan,nan,nan,nan,nan,nan,nan,nan,auf,nan,nan,heißer,nan,Weltkriegs.,nan,Sprüche.,nan,nan,nan,nan,nan,nan,heiße,nan,nan,nan,nan,nan,Landkreis.,nan,Sprüche.,nan,nan,Materie,nan,nan,nan,nan,nan,nan,nan,nan,Materie,nan,nan,nan,nicht,nan,nan,nan,nan,nan,nan,auf,nan,nan,nan,nan,nan,nan,nan,nan,her.,nan,nan,nan,nan,nan,nan,nan,den,den,nan,geschafft.,Weltkriegs.,Landkreis.,nan,nan,nan,nan,gelesen.,nan,geschafft.,fit.,nan,haben.,nan,,,,,,,,,,,,,,,,,,,,,,,10,0,10,0,0,9,9,9,,,,,,,space,0.38436794281,,,,,,2017_Jan_26_1356,59.8057665463,spr_backupper,001,Do14,
,nan,nan,nan,nan,nan,nan,nan,nan,nan,nan,nan,nan,nan,nan,nan,nan,nan,nan,nan,dem,nan,nan,Luft.,nan,nan,nan,nan,nan,nan,nan,nan,nan,nan,Luft.,nan,nan,nan,nan,nan,nan,nan,nan,nan,nan,erzeugen.,nan,nan,nan,nan,nan,nan,nan,nan,erzeugen.,nan,nan,nan,wirkt.,nan,nan,nan,nan,nan,nan,dem,nan,nan,nan,nan,nan,nan,nan,nan,nan,nan,nan,nan,nan,nan,nan,nan,See.,See.,nan,nan,nan,nan,nan,nan,nan,nan,nan,nan,nan,nan,nan,nan,nan,,,,,,,,,,,,,,,,,,,,,,,10,0,10,0,0,10,10,10,,,,,,,space,0.392390966415,,,,,,2017_Jan_26_1356,59.8057665463,spr_backupper,001,Do14,
,,,,,,,,,,,,,,,,,,,,,,,,,,,,,,,,,,,,,,,,,,,,,,,,,,,,,,,,,,,,,,,,,,,,,,,,,,,,,,,,,,,,,,,,,,,,,,,,,,,,,,,,,,,,,,,,,,,,,,,,,10,0,10,0,,,,,,,,,,,,,None,n,2.01350784302,,,2017_Jan_26_1356,59.8057665463,spr_backupper,001,Do14,
,Die,Die,Alle,Sie,Beträchtliche,Nicht,Er,Sie,Im,Es,Die,In,Außer,Die,Manche,Die,Wir,Die,Dort,Bei,Jungtiere,Jetzt,Man,Der,Bei,Außer,Sie,Beträchtliche,Am,Als,In,Wir,Er,Man,Die,Fernab,Er,Das,Dort,In,Es,Sie,Es,Wir,Mit,Er,Die,Es,100,Sie,Die,Die,Ihr,Mit,Danach,Die,Dass,In,Wir,Am,Die,Unter,Wir,100,Bei,Jugendliche,Die,Sie,Viele,Im,Es,Die,Walter,Er,Die,Sie,Außer,Die,Wir,Die,Außer,Ich,Ich,Wir,Wir,Bei,In,In,In,Die,Viele,In,Die,Wir,Ich,Nicht,Die,Die,,,,,,,,,,,,,,,,,,,,,,,11,0,11,0,0,0,0,0,,,,,,None,space,0.592341899872,,,,,,2017_Jan_26_1356,59.8057665463,spr_backupper,001,Do14,
,Eislaufbahnen,Schule,Betten,verbrauchen,Stücke,ein,stellt,verlassen,Fernrohr,hat,Uhr,den,das,Formen,Kreditnehmer,Uhr,mussten,Lösung,türmen,unserer,sollten,ist,machte,Flug,der,dem,hatte,Stücke,äußeren,die,meinem,hatten,wurde,machte,Schuhe,des,hat,Tuch,türmen,der,waren,hatte,wurden,hatten,dieser,wurde,Kinder,wurden,g,haben,Schule,Kinder,Blutdruck,dieser,wurde,Uhr,es,einer,konnten,äußersten,Teilnehmerinnen,keinen,übergaben,g,unserer,können,müden,verbrauchen,Tonnen,Fernrohr,waren,Autos,Scheel,stellt,Linie,verlassen,dem,Autos,mussten,Stücke,den,nehme,nehme,übergaben,haben,der,der,den,diesem,Gäste,Tonnen,meinem,"Uhr,",haben,wurde,ein,Schuhe,Gäste,,,,,,,,,,,,,,,,,,,,,,,11,0,11,0,0,1,1,1,,,,,,,space,0.339809894562,,,,,,2017_Jan_26_1356,59.8057665463,spr_backupper,001,Do14,
,wurden,verbraucht,wurden,60,saftiges,Tropfen,die,wegen,sahen,uns,schlug,Kakao,Essen,wurden,sind,war,uns,wird,sich,Ankunft,immer,genau,mal,zum,Feier,Essen,keine,saftigen,Rand,Sonne,Studium,in,trotz,mal,in,Rummels,ein,wurde,sich,Tat,nur,keine,Eimer,in,Methode,trotz,fuhren,Eimer,braunen,die,verbraucht,fuhren,kann,Methode,die,schlug,"regnete,",Studie,dann,Rand,wussten,Umständen,das,brauner,Ankunft,Kleidung,Teilnehmer,60,gebrauchter,sahen,nur,beider,war,die,101,wegen,Bürgermeister,beider,uns,wurden,Bürgermeister,eine,eine,dem,jede,Feier,Tat,Kakao,Zirkus,suchen,gebrauchte,Studium,die,jede,damals,Tropfen,in,suchen,,,,,,,,,,,,,,,,,,,,,,,11,0,11,0,0,2,2,2,,,,,,,space,0.336008071899,,,,,,2017_Jan_26_1356,59.8057665463,spr_backupper,001,Do14,
,mit,260.000,mit,Liter,Fleisch,königlichen,Masse,des,wir,die,"sporadisch,",gehören,kann,unter,mit,aus,durch,mit,Berge,stand,auf,die,wieder,Mond,gedachte,kann,Lust,Fleischs,der,"unterging,",las,Dänemark,dem,wieder,Größe,wurde,Hemd,dann,Berge,wissen,kleinere,Lust,roter,Dänemark,kann,des,mit,rote,Zuckers,Erlebnisse,260.000,mit,schon,kann,Leinwand,"sporadisch,",hat,wurde,mit,der,überwiegend,können,Auto,Zucker,stand,bei,wurden,Liter,Kleidung,wir,kleinere,beteiligter,der,Masse,hält,dem,beschuldigten,beteiligten,durch,aus,beschuldigten,große,große,Mann,Menge,gedachte,wissen,gehören,werden,die,Kleidung,habe,er,Menge,schnell,königliches,Größe,die,,,,,,,,,,,,,,,,,,,,,,,11,0,11,0,0,3,3,3,,,,,,,space,0.328735113144,,,,,,2017_Jan_26_1356,59.8057665463,spr_backupper,001,Do14,
,dauerhaftem,Kilowattstunden,"üblichem,",sprudelnden,wurden,Bluts,mit,schönen,den,Stimmung,obwohl,immer,ich,"regelmäßigem,","sämtlichem,","Japan,",Büschel,"reichlichem,",schmutzige,ein,warmem,richtige,viel,dauerte,man,ich,auf,wurden,Stadt,war,ich,gelegentlich,bekannten,viel,36,schon,aus,mit,schmutziger,wir,"Delikte,",auf,Farbe,einen,man,bekannten,solchen,Farbe,sind,bei,Kilowattstunden,solch,bei,man,aus,obschon,uns,jetzt,"minimalem,",Stadt,"nicht,",Neuwahlen,dem,sind,ein,ausreichendem,mit,sprudelndes,landen,den,"Delikte,",Fahrer,vierte,mit,nicht,schönen,die,Fahrer,Büschel,"wertvollem,",die,Packung,Packung,das,alten,man,wir,immer,die,Wohnung,landen,ich,"trug,",alten,dank,Blut,36,Wohnung,,,,,,,,,,,,,,,,,,,,,,,11,0,11,0,0,4,4,4,,,,,,,space,0.319314956665,,,,,,2017_Jan_26_1356,59.8057665463,spr_backupper,001,Do14,
,feinem,elektrische,harten,Trinkwassers.,serviert.,hat,einem,Wetters,roten,ziemlich,sie,350,leider,kaltem,künftigem,die,frischen,purem,Wäsche.,Glas,weichem,"Zeit,",Lärm,ungefähr,der,leider,noch,serviert.,liegen,die,mehr,einen,Skandal,Lärm,hätten,immer,feinem,"reichem,",Wäsche.,von,derer,noch,geschleudert.,gelegentlichen,eine,Skandals,unzureichenden,geschleudert.,auf,"frischem,",elektrischer,unzureichenden,minimalem,eine,seltenem,sie,die,"nachgewiesen,",sauberen,liegen,was,vor,Mann,auf,Glas,monatlichem,zusätzlichem,Trinkwasser.,im,roten,deren,wurden,Bundespräsident.,einem,am,Wetter,Störenfriede,wurden,frisches,klassischen,Störenfriede,salziger,salzige,Auto,Krams,den,um,350,Tiere,des,im,mehr,war,Kram,täglichem,hat,würden,des,,,,,,,,,,,,,,,,,,,,,,,11,0,11,0,0,5,5,5,,,,,,,space,0.329540967941,,,,,,2017_Jan_26_1356,59.8057665463,spr_backupper,001,Do14,
,Kunsteis,Energie.,Schaumstoff,nan,nan,den,Esslöffel,die,Planeten,"vermiest,",defekt,ml,nichts,Abduschen,Einkommen,er,Grases,Alkohol,nan,köstlicher,Untergrund,um,um,drei,Soldaten,nichts,eine,nan,die,Flut,als,Besucher.,wiedergewählt.,um,seiner,ruhig,dichten,goldenen,nan,den,sie,eine,nan,Besucher.,große,wiedergewählt.,Helmen,nan,jeden,kaltem,Energie.,Helmen,täglichen,große,dichten,defekt,Stimmung,dass,Kraftstoff,die,Tupperware,Dezember,mehr,jeden,köstlichen,Taschengeld,schwarzem,nan,Müll.,Planet,sie,verschrottet.,nan,Esslöffel,Hauptbahnhof.,die,jeden.,verschrottet.,Gras,Schmuck,jeden.,Wurst,Wurst,mehr,aus,Soldaten,die,ml,artgerecht,Herrn,Müll.,als,aus,aus,grünen,den,seiner,Herrn,,,,,,,,,,,,,,,,,,,,,,,11,0,11,0,0,6,6,6,,,,,,,space,0.311213970184,,,,,,2017_Jan_26_1356,59.8057665463,spr_backupper,001,Do14,
,eingesprüht.,nan,gefertigt.,nan,nan,Boden,warmen,Wohnung.,ganz,dass,war.,warme,mitbringen.,gehärtet.,haftbar.,trug.,zwängen.,verdünnt.,nan,Wein,liegen.,Nadelhölzer,jede,Tage.,des,mitbringen.,Sammlung,nan,Slums.,zurückgekehrt.,einmal,nan,nan,jede,Frau,diskutiert.,Stoff,Besatz,nan,Problemen,überführt,Sammlung,nan,nan,Menge,nan,zur,nan,Fall,Saft,nan,zur,Einsatz,Menge,Gewebe,war.,ziemlich,das,fahren.,Slums.,ist.,stattfinden.,als,Fall,Weins,selber,Kaffee,nan,nan,ganz,überführt,nan,nan,warmem,nan,Wohnung.,nan,nan,zwängen.,umgearbeitet.,nan,mit,mit,als,dem,des,Probleme,warmer,gehalten.,Gantenbein.,nan,einmal,Japan.,dem,Tee,Boden,Frau,Gantenbeins.,,,,,,,,,,,,,,,,,,,,,,,11,0,11,0,0,7,7,7,,,,,,,space,0.638761997223,,,,,,2017_Jan_26_1356,59.8057665463,spr_backupper,001,Do14,
,nan,nan,nan,nan,nan,berührt.,Honigs,nan,deutlich.,es,nan,Milch.,nan,nan,nan,nan,nan,nan,nan,schon,nan,umzusetzen.,Menge,nan,zweiten,nan,dummer,nan,nan,nan,Rilke.,nan,nan,Menge,gepasst.,nan,gefertigt.,rekonstruiert.,nan,im,wurden.,dumme,nan,nan,dunkle,nan,Schule.,nan,genug.,besprochen.,nan,Schule.,sinken.,dunkler,wiederhergestellt.,nan,vermiest.,Medikament,nan,nan,nan,nan,gerne.,genug.,schon,kaufen.,wiederbelebt.,nan,nan,deutlich.,wurden.,nan,nan,Honig,nan,nan,nan,nan,nan,nan,nan,an,an,gerne.,Haus,zweiten,im,Milch.,nan,nan,nan,Rilke,nan,Haus,wieder,berührt.,gepasst,nan,,,,,,,,,,,,,,,,,,,,,,,11,0,11,0,0,8,8,8,,,,,,,space,0.53990983963,,,,,,2017_Jan_26_1356,59.8057665463,spr_backupper,001,Do14,
,,,,,,,,,,,,,,,,,,,,,,,,,,,,,,,,,,,,,,,,,,,,,,,,,,,,,,,,,,,,,,,,,,,,,,,,,,,,,,,,,,,,,,,,,,,,,,,,,,,,,,,,,,,,,,,,,,,,,,,,,11,0,11,0,,,,,,,,,,,,,None,n,2.60032916069,,,2017_Jan_26_1356,59.8057665463,spr_backupper,001,Do14,
,Die,Die,Alle,Sie,Beträchtliche,Nicht,Er,Sie,Im,Es,Die,In,Außer,Die,Manche,Die,Wir,Die,Dort,Bei,Jungtiere,Jetzt,Man,Der,Bei,Außer,Sie,Beträchtliche,Am,Als,In,Wir,Er,Man,Die,Fernab,Er,Das,Dort,In,Es,Sie,Es,Wir,Mit,Er,Die,Es,100,Sie,Die,Die,Ihr,Mit,Danach,Die,Dass,In,Wir,Am,Die,Unter,Wir,100,Bei,Jugendliche,Die,Sie,Viele,Im,Es,Die,Walter,Er,Die,Sie,Außer,Die,Wir,Die,Außer,Ich,Ich,Wir,Wir,Bei,In,In,In,Die,Viele,In,Die,Wir,Ich,Nicht,Die,Die,,,,,,,,,,,,,,,,,,,,,,,12,0,12,0,0,0,0,0,,,,,,space,space,0.353032112122,,,,0.653825998306,,2017_Jan_26_1356,59.8057665463,spr_backupper,001,Do14,
,Eislaufbahnen,Schule,Betten,verbrauchen,Stücke,ein,stellt,verlassen,Fernrohr,hat,Uhr,den,das,Formen,Kreditnehmer,Uhr,mussten,Lösung,türmen,unserer,sollten,ist,machte,Flug,der,dem,hatte,Stücke,äußeren,die,meinem,hatten,wurde,machte,Schuhe,des,hat,Tuch,türmen,der,waren,hatte,wurden,hatten,dieser,wurde,Kinder,wurden,g,haben,Schule,Kinder,Blutdruck,dieser,wurde,Uhr,es,einer,konnten,äußersten,Teilnehmerinnen,keinen,übergaben,g,unserer,können,müden,verbrauchen,Tonnen,Fernrohr,waren,Autos,Scheel,stellt,Linie,verlassen,dem,Autos,mussten,Stücke,den,nehme,nehme,übergaben,haben,der,der,den,diesem,Gäste,Tonnen,meinem,"Uhr,",haben,wurde,ein,Schuhe,Gäste,,,,,,,,,,,,,,,,,,,,,,,12,0,12,0,0,1,1,1,,,,,,,space,0.439414024353,,,,,,2017_Jan_26_1356,59.8057665463,spr_backupper,001,Do14,
,wurden,verbraucht,wurden,60,saftiges,Tropfen,die,wegen,sahen,uns,schlug,Kakao,Essen,wurden,sind,war,uns,wird,sich,Ankunft,immer,genau,mal,zum,Feier,Essen,keine,saftigen,Rand,Sonne,Studium,in,trotz,mal,in,Rummels,ein,wurde,sich,Tat,nur,keine,Eimer,in,Methode,trotz,fuhren,Eimer,braunen,die,verbraucht,fuhren,kann,Methode,die,schlug,"regnete,",Studie,dann,Rand,wussten,Umständen,das,brauner,Ankunft,Kleidung,Teilnehmer,60,gebrauchter,sahen,nur,beider,war,die,101,wegen,Bürgermeister,beider,uns,wurden,Bürgermeister,eine,eine,dem,jede,Feier,Tat,Kakao,Zirkus,suchen,gebrauchte,Studium,die,jede,damals,Tropfen,in,suchen,,,,,,,,,,,,,,,,,,,,,,,12,0,12,0,0,2,2,2,,,,,,,space,0.403763055801,,,,,,2017_Jan_26_1356,59.8057665463,spr_backupper,001,Do14,
,mit,260.000,mit,Liter,Fleisch,königlichen,Masse,des,wir,die,"sporadisch,",gehören,kann,unter,mit,aus,durch,mit,Berge,stand,auf,die,wieder,Mond,gedachte,kann,Lust,Fleischs,der,"unterging,",las,Dänemark,dem,wieder,Größe,wurde,Hemd,dann,Berge,wissen,kleinere,Lust,roter,Dänemark,kann,des,mit,rote,Zuckers,Erlebnisse,260.000,mit,schon,kann,Leinwand,"sporadisch,",hat,wurde,mit,der,überwiegend,können,Auto,Zucker,stand,bei,wurden,Liter,Kleidung,wir,kleinere,beteiligter,der,Masse,hält,dem,beschuldigten,beteiligten,durch,aus,beschuldigten,große,große,Mann,Menge,gedachte,wissen,gehören,werden,die,Kleidung,habe,er,Menge,schnell,königliches,Größe,die,,,,,,,,,,,,,,,,,,,,,,,12,0,12,0,0,3,3,3,,,,,,,space,0.359427928925,,,,,,2017_Jan_26_1356,59.8057665463,spr_backupper,001,Do14,
,dauerhaftem,Kilowattstunden,"üblichem,",sprudelnden,wurden,Bluts,mit,schönen,den,Stimmung,obwohl,immer,ich,"regelmäßigem,","sämtlichem,","Japan,",Büschel,"reichlichem,",schmutzige,ein,warmem,richtige,viel,dauerte,man,ich,auf,wurden,Stadt,war,ich,gelegentlich,bekannten,viel,36,schon,aus,mit,schmutziger,wir,"Delikte,",auf,Farbe,einen,man,bekannten,solchen,Farbe,sind,bei,Kilowattstunden,solch,bei,man,aus,obschon,uns,jetzt,"minimalem,",Stadt,"nicht,",Neuwahlen,dem,sind,ein,ausreichendem,mit,sprudelndes,landen,den,"Delikte,",Fahrer,vierte,mit,nicht,schönen,die,Fahrer,Büschel,"wertvollem,",die,Packung,Packung,das,alten,man,wir,immer,die,Wohnung,landen,ich,"trug,",alten,dank,Blut,36,Wohnung,,,,,,,,,,,,,,,,,,,,,,,12,0,12,0,0,4,4,4,,,,,,,space,0.410597085953,,,,,,2017_Jan_26_1356,59.8057665463,spr_backupper,001,Do14,
,feinem,elektrische,harten,Trinkwassers.,serviert.,hat,einem,Wetters,roten,ziemlich,sie,350,leider,kaltem,künftigem,die,frischen,purem,Wäsche.,Glas,weichem,"Zeit,",Lärm,ungefähr,der,leider,noch,serviert.,liegen,die,mehr,einen,Skandal,Lärm,hätten,immer,feinem,"reichem,",Wäsche.,von,derer,noch,geschleudert.,gelegentlichen,eine,Skandals,unzureichenden,geschleudert.,auf,"frischem,",elektrischer,unzureichenden,minimalem,eine,seltenem,sie,die,"nachgewiesen,",sauberen,liegen,was,vor,Mann,auf,Glas,monatlichem,zusätzlichem,Trinkwasser.,im,roten,deren,wurden,Bundespräsident.,einem,am,Wetter,Störenfriede,wurden,frisches,klassischen,Störenfriede,salziger,salzige,Auto,Krams,den,um,350,Tiere,des,im,mehr,war,Kram,täglichem,hat,würden,des,,,,,,,,,,,,,,,,,,,,,,,12,0,12,0,0,5,5,5,,,,,,,space,0.395263910294,,,,,,2017_Jan_26_1356,59.8057665463,spr_backupper,001,Do14,
,Kunsteis,Energie.,Schaumstoff,nan,nan,den,Esslöffel,die,Planeten,"vermiest,",defekt,ml,nichts,Abduschen,Einkommen,er,Grases,Alkohol,nan,köstlicher,Untergrund,um,um,drei,Soldaten,nichts,eine,nan,die,Flut,als,Besucher.,wiedergewählt.,um,seiner,ruhig,dichten,goldenen,nan,den,sie,eine,nan,Besucher.,große,wiedergewählt.,Helmen,nan,jeden,kaltem,Energie.,Helmen,täglichen,große,dichten,defekt,Stimmung,dass,Kraftstoff,die,Tupperware,Dezember,mehr,jeden,köstlichen,Taschengeld,schwarzem,nan,Müll.,Planet,sie,verschrottet.,nan,Esslöffel,Hauptbahnhof.,die,jeden.,verschrottet.,Gras,Schmuck,jeden.,Wurst,Wurst,mehr,aus,Soldaten,die,ml,artgerecht,Herrn,Müll.,als,aus,aus,grünen,den,seiner,Herrn,,,,,,,,,,,,,,,,,,,,,,,12,0,12,0,0,6,6,6,,,,,,,space,0.439960956573,,,,,,2017_Jan_26_1356,59.8057665463,spr_backupper,001,Do14,
,eingesprüht.,nan,gefertigt.,nan,nan,Boden,warmen,Wohnung.,ganz,dass,war.,warme,mitbringen.,gehärtet.,haftbar.,trug.,zwängen.,verdünnt.,nan,Wein,liegen.,Nadelhölzer,jede,Tage.,des,mitbringen.,Sammlung,nan,Slums.,zurückgekehrt.,einmal,nan,nan,jede,Frau,diskutiert.,Stoff,Besatz,nan,Problemen,überführt,Sammlung,nan,nan,Menge,nan,zur,nan,Fall,Saft,nan,zur,Einsatz,Menge,Gewebe,war.,ziemlich,das,fahren.,Slums.,ist.,stattfinden.,als,Fall,Weins,selber,Kaffee,nan,nan,ganz,überführt,nan,nan,warmem,nan,Wohnung.,nan,nan,zwängen.,umgearbeitet.,nan,mit,mit,als,dem,des,Probleme,warmer,gehalten.,Gantenbein.,nan,einmal,Japan.,dem,Tee,Boden,Frau,Gantenbeins.,,,,,,,,,,,,,,,,,,,,,,,12,0,12,0,0,7,7,7,,,,,,,space,0.90479516983,,,,,,2017_Jan_26_1356,59.8057665463,spr_backupper,001,Do14,
,,,,,,,,,,,,,,,,,,,,,,,,,,,,,,,,,,,,,,,,,,,,,,,,,,,,,,,,,,,,,,,,,,,,,,,,,,,,,,,,,,,,,,,,,,,,,,,,,,,,,,,,,,,,,,,,,,,,,,,,,12,0,12,0,,,,,,,,,,,,,None,n,1.6441450119,,,2017_Jan_26_1356,59.8057665463,spr_backupper,001,Do14,
,Die,Die,Alle,Sie,Beträchtliche,Nicht,Er,Sie,Im,Es,Die,In,Außer,Die,Manche,Die,Wir,Die,Dort,Bei,Jungtiere,Jetzt,Man,Der,Bei,Außer,Sie,Beträchtliche,Am,Als,In,Wir,Er,Man,Die,Fernab,Er,Das,Dort,In,Es,Sie,Es,Wir,Mit,Er,Die,Es,100,Sie,Die,Die,Ihr,Mit,Danach,Die,Dass,In,Wir,Am,Die,Unter,Wir,100,Bei,Jugendliche,Die,Sie,Viele,Im,Es,Die,Walter,Er,Die,Sie,Außer,Die,Wir,Die,Außer,Ich,Ich,Wir,Wir,Bei,In,In,In,Die,Viele,In,Die,Wir,Ich,Nicht,Die,Die,,,,,,,,,,,,,,,,,,,,,,,13,0,13,0,0,0,0,0,,,,,,None,space,0.4696829319,,,,,,2017_Jan_26_1356,59.8057665463,spr_backupper,001,Do14,
,Eislaufbahnen,Schule,Betten,verbrauchen,Stücke,ein,stellt,verlassen,Fernrohr,hat,Uhr,den,das,Formen,Kreditnehmer,Uhr,mussten,Lösung,türmen,unserer,sollten,ist,machte,Flug,der,dem,hatte,Stücke,äußeren,die,meinem,hatten,wurde,machte,Schuhe,des,hat,Tuch,türmen,der,waren,hatte,wurden,hatten,dieser,wurde,Kinder,wurden,g,haben,Schule,Kinder,Blutdruck,dieser,wurde,Uhr,es,einer,konnten,äußersten,Teilnehmerinnen,keinen,übergaben,g,unserer,können,müden,verbrauchen,Tonnen,Fernrohr,waren,Autos,Scheel,stellt,Linie,verlassen,dem,Autos,mussten,Stücke,den,nehme,nehme,übergaben,haben,der,der,den,diesem,Gäste,Tonnen,meinem,"Uhr,",haben,wurde,ein,Schuhe,Gäste,,,,,,,,,,,,,,,,,,,,,,,13,0,13,0,0,1,1,1,,,,,,,space,0.322813034058,,,,,,2017_Jan_26_1356,59.8057665463,spr_backupper,001,Do14,
,wurden,verbraucht,wurden,60,saftiges,Tropfen,die,wegen,sahen,uns,schlug,Kakao,Essen,wurden,sind,war,uns,wird,sich,Ankunft,immer,genau,mal,zum,Feier,Essen,keine,saftigen,Rand,Sonne,Studium,in,trotz,mal,in,Rummels,ein,wurde,sich,Tat,nur,keine,Eimer,in,Methode,trotz,fuhren,Eimer,braunen,die,verbraucht,fuhren,kann,Methode,die,schlug,"regnete,",Studie,dann,Rand,wussten,Umständen,das,brauner,Ankunft,Kleidung,Teilnehmer,60,gebrauchter,sahen,nur,beider,war,die,101,wegen,Bürgermeister,beider,uns,wurden,Bürgermeister,eine,eine,dem,jede,Feier,Tat,Kakao,Zirkus,suchen,gebrauchte,Studium,die,jede,damals,Tropfen,in,suchen,,,,,,,,,,,,,,,,,,,,,,,13,0,13,0,0,2,2,2,,,,,,,space,0.280846118927,,,,,,2017_Jan_26_1356,59.8057665463,spr_backupper,001,Do14,
,mit,260.000,mit,Liter,Fleisch,königlichen,Masse,des,wir,die,"sporadisch,",gehören,kann,unter,mit,aus,durch,mit,Berge,stand,auf,die,wieder,Mond,gedachte,kann,Lust,Fleischs,der,"unterging,",las,Dänemark,dem,wieder,Größe,wurde,Hemd,dann,Berge,wissen,kleinere,Lust,roter,Dänemark,kann,des,mit,rote,Zuckers,Erlebnisse,260.000,mit,schon,kann,Leinwand,"sporadisch,",hat,wurde,mit,der,überwiegend,können,Auto,Zucker,stand,bei,wurden,Liter,Kleidung,wir,kleinere,beteiligter,der,Masse,hält,dem,beschuldigten,beteiligten,durch,aus,beschuldigten,große,große,Mann,Menge,gedachte,wissen,gehören,werden,die,Kleidung,habe,er,Menge,schnell,königliches,Größe,die,,,,,,,,,,,,,,,,,,,,,,,13,0,13,0,0,3,3,3,,,,,,,space,0.285917043686,,,,,,2017_Jan_26_1356,59.8057665463,spr_backupper,001,Do14,
,dauerhaftem,Kilowattstunden,"üblichem,",sprudelnden,wurden,Bluts,mit,schönen,den,Stimmung,obwohl,immer,ich,"regelmäßigem,","sämtlichem,","Japan,",Büschel,"reichlichem,",schmutzige,ein,warmem,richtige,viel,dauerte,man,ich,auf,wurden,Stadt,war,ich,gelegentlich,bekannten,viel,36,schon,aus,mit,schmutziger,wir,"Delikte,",auf,Farbe,einen,man,bekannten,solchen,Farbe,sind,bei,Kilowattstunden,solch,bei,man,aus,obschon,uns,jetzt,"minimalem,",Stadt,"nicht,",Neuwahlen,dem,sind,ein,ausreichendem,mit,sprudelndes,landen,den,"Delikte,",Fahrer,vierte,mit,nicht,schönen,die,Fahrer,Büschel,"wertvollem,",die,Packung,Packung,das,alten,man,wir,immer,die,Wohnung,landen,ich,"trug,",alten,dank,Blut,36,Wohnung,,,,,,,,,,,,,,,,,,,,,,,13,0,13,0,0,4,4,4,,,,,,,space,0.329498052597,,,,,,2017_Jan_26_1356,59.8057665463,spr_backupper,001,Do14,
,feinem,elektrische,harten,Trinkwassers.,serviert.,hat,einem,Wetters,roten,ziemlich,sie,350,leider,kaltem,künftigem,die,frischen,purem,Wäsche.,Glas,weichem,"Zeit,",Lärm,ungefähr,der,leider,noch,serviert.,liegen,die,mehr,einen,Skandal,Lärm,hätten,immer,feinem,"reichem,",Wäsche.,von,derer,noch,geschleudert.,gelegentlichen,eine,Skandals,unzureichenden,geschleudert.,auf,"frischem,",elektrischer,unzureichenden,minimalem,eine,seltenem,sie,die,"nachgewiesen,",sauberen,liegen,was,vor,Mann,auf,Glas,monatlichem,zusätzlichem,Trinkwasser.,im,roten,deren,wurden,Bundespräsident.,einem,am,Wetter,Störenfriede,wurden,frisches,klassischen,Störenfriede,salziger,salzige,Auto,Krams,den,um,350,Tiere,des,im,mehr,war,Kram,täglichem,hat,würden,des,,,,,,,,,,,,,,,,,,,,,,,13,0,13,0,0,5,5,5,,,,,,,space,0.301391839981,,,,,,2017_Jan_26_1356,59.8057665463,spr_backupper,001,Do14,
,Kunsteis,Energie.,Schaumstoff,nan,nan,den,Esslöffel,die,Planeten,"vermiest,",defekt,ml,nichts,Abduschen,Einkommen,er,Grases,Alkohol,nan,köstlicher,Untergrund,um,um,drei,Soldaten,nichts,eine,nan,die,Flut,als,Besucher.,wiedergewählt.,um,seiner,ruhig,dichten,goldenen,nan,den,sie,eine,nan,Besucher.,große,wiedergewählt.,Helmen,nan,jeden,kaltem,Energie.,Helmen,täglichen,große,dichten,defekt,Stimmung,dass,Kraftstoff,die,Tupperware,Dezember,mehr,jeden,köstlichen,Taschengeld,schwarzem,nan,Müll.,Planet,sie,verschrottet.,nan,Esslöffel,Hauptbahnhof.,die,jeden.,verschrottet.,Gras,Schmuck,jeden.,Wurst,Wurst,mehr,aus,Soldaten,die,ml,artgerecht,Herrn,Müll.,als,aus,aus,grünen,den,seiner,Herrn,,,,,,,,,,,,,,,,,,,,,,,13,0,13,0,0,6,6,6,,,,,,,space,0.34401679039,,,,,,2017_Jan_26_1356,59.8057665463,spr_backupper,001,Do14,
,eingesprüht.,nan,gefertigt.,nan,nan,Boden,warmen,Wohnung.,ganz,dass,war.,warme,mitbringen.,gehärtet.,haftbar.,trug.,zwängen.,verdünnt.,nan,Wein,liegen.,Nadelhölzer,jede,Tage.,des,mitbringen.,Sammlung,nan,Slums.,zurückgekehrt.,einmal,nan,nan,jede,Frau,diskutiert.,Stoff,Besatz,nan,Problemen,überführt,Sammlung,nan,nan,Menge,nan,zur,nan,Fall,Saft,nan,zur,Einsatz,Menge,Gewebe,war.,ziemlich,das,fahren.,Slums.,ist.,stattfinden.,als,Fall,Weins,selber,Kaffee,nan,nan,ganz,überführt,nan,nan,warmem,nan,Wohnung.,nan,nan,zwängen.,umgearbeitet.,nan,mit,mit,als,dem,des,Probleme,warmer,gehalten.,Gantenbein.,nan,einmal,Japan.,dem,Tee,Boden,Frau,Gantenbeins.,,,,,,,,,,,,,,,,,,,,,,,13,0,13,0,0,7,7,7,,,,,,,space,0.291819095612,,,,,,2017_Jan_26_1356,59.8057665463,spr_backupper,001,Do14,
,,,,,,,,,,,,,,,,,,,,,,,,,,,,,,,,,,,,,,,,,,,,,,,,,,,,,,,,,,,,,,,,,,,,,,,,,,,,,,,,,,,,,,,,,,,,,,,,,,,,,,,,,,,,,,,,,,,,,,,,,13,0,13,0,,,,,,,,,,,,,None,j,1.87167692184,,,2017_Jan_26_1356,59.8057665463,spr_backupper,001,Do14,
