text,sent48,sent9,sent8,sent15,sent3,sent2,sent1,sent14,sent7,sent6,sent5,sent4,sent57,sent56,sent55,sent54,sent53,sent52,sent51,sent50,sent13,sent12,sent11,sent10,sent17,sent16,sent59,sent58,sent93,sent92,sent91,sent90,sent97,sent96,sent95,sent94,sent98,sent22,sent23,sent20,sent21,sent26,sent27,sent24,sent25,sent28,sent29,sent68,sent69,sent66,sent67,sent64,sent65,sent62,sent63,sent60,sent61,sent31,sent30,sent33,sent32,sent35,sent34,sent37,sent36,sent39,sent38,sent79,sent78,sent75,sent74,sent77,sent76,sent71,sent70,sent73,sent72,sent19,sent49,sent18,sent44,sent45,sent84,sent85,sent86,sent87,sent80,sent81,sent82,sent83,sent40,sent41,sent42,sent43,sent88,sent89,sent46,sent47,intros.thisRepN,intros.thisTrialN,intros.thisN,intros.thisIndex,trials.thisRepN,trials.thisTrialN,trials.thisN,trials.thisIndex,testWords.thisRepN,testWords.thisTrialN,testWords.thisN,testWords.thisIndex,test1,test3,test2,test5,test4,test7,test6,test9,test8,test10,realTrials.thisRepN,realTrials.thisTrialN,realTrials.thisN,realTrials.thisIndex,words.thisRepN,words.thisTrialN,words.thisN,words.thisIndex,key_resp_3.keys,key_resp_3.rt,key_resp_8.keys,key_resp_8.rt,key_resp_10.keys,key_resp_10.rt,key_resp_6.keys,key_resp_6.rt,wordRead.keys,wordRead.rt,key_resp_5.keys,questAnswer.keys,questAnswer.rt,key_resp_5.rt,date,frameRate,expName,session,participant,
"Vielen Dank, dass Sie an diesem Experiment teilnehmen. Vor dem eigentlichen Experiment sehen Sie nun zuerst eine kurze Erläuterung, und Sie absolvieren ein kurze Übungsphase.

Das Experiment dauert insgesamt nicht mehr als 45 Minuten.",,,,,,,,,,,,,,,,,,,,,,,,,,,,,,,,,,,,,,,,,,,,,,,,,,,,,,,,,,,,,,,,,,,,,,,,,,,,,,,,,,,,,,,,,,,,,,,,,,,0,0,0,0,,,,,,,,,,,,,,,,,,,,,,,,,,,,,,,,,,,,,,,,,2017_Jan_27_1205,59.7607747535,spr_backupper,001,Fr12,
"In diesem Experiment lesen Sie deutsche Sätze, indem Sie sich von Wort zu Wort mit der Leertaste durch den Satz klicken.",,,,,,,,,,,,,,,,,,,,,,,,,,,,,,,,,,,,,,,,,,,,,,,,,,,,,,,,,,,,,,,,,,,,,,,,,,,,,,,,,,,,,,,,,,,,,,,,,,,0,1,1,1,,,,,,,,,,,,,,,,,,,,,,,,,,,,,,,,,,,,,,,,,2017_Jan_27_1205,59.7607747535,spr_backupper,001,Fr12,
"Sie sehen dabei immer nur das aktuelle Wort. Die Lesegeschwindigkeit bestimmen Sie vollständig selber. Vor jedem Satz sehen Sie in der Bildschirmmitte für zwei Sekunden ein + an der Stelle, an der dann die Wörter erscheinen.",,,,,,,,,,,,,,,,,,,,,,,,,,,,,,,,,,,,,,,,,,,,,,,,,,,,,,,,,,,,,,,,,,,,,,,,,,,,,,,,,,,,,,,,,,,,,,,,,,,0,2,2,2,,,,,,,,,,,,,,,,,,,,,,,,,,,,,,,,,,,,,,,,,2017_Jan_27_1205,59.7607747535,spr_backupper,001,Fr12,
"Nach jedem Satz wird Ihnen eine Ja/Nein-Verständnisfrage zum zuvor gelesenen Satz gestellt, die Sie mit der J-Taste für "Ja" und der N-Taste für "Nein" beantworten. Antworten Sie möglichst spontan und ohne lange Nachzudenken.",,,,,,,,,,,,,,,,,,,,,,,,,,,,,,,,,,,,,,,,,,,,,,,,,,,,,,,,,,,,,,,,,,,,,,,,,,,,,,,,,,,,,,,,,,,,,,,,,,,0,3,3,3,,,,,,,,,,,,,,,,,,,,,,,,,,,,,,,,,,,,,,,,,2017_Jan_27_1205,59.7607747535,spr_backupper,001,Fr12,
"Unterbrechen Sie das Experiment bitte auf keinen Fall, stellen Sie den ExperimentatorInnen nach dem Experimentbeginn keine Fragen, und lassen Sie sich nicht durch Umgebungsgeräusche ablenken.",,,,,,,,,,,,,,,,,,,,,,,,,,,,,,,,,,,,,,,,,,,,,,,,,,,,,,,,,,,,,,,,,,,,,,,,,,,,,,,,,,,,,,,,,,,,,,,,,,,0,4,4,4,,,,,,,,,,,,,,,,,,,,,,,,,,,,,,,,,,,,,,,,,2017_Jan_27_1205,59.7607747535,spr_backupper,001,Fr12,
"Im nächsten Schritt beantworten Sie bitte eine Frage zu Ihren Deutschkenntnissen. Danach beginnt eine Übungseinheit, mit der Sie sich an die Art der Durchführung dieses Experiments gewöhnen können.",,,,,,,,,,,,,,,,,,,,,,,,,,,,,,,,,,,,,,,,,,,,,,,,,,,,,,,,,,,,,,,,,,,,,,,,,,,,,,,,,,,,,,,,,,,,,,,,,,,0,5,5,5,,,,,,,,,,,,,,,,,,,,,,,,,,,,,,,,,,,,,,,,,2017_Jan_27_1205,59.7607747535,spr_backupper,001,Fr12,
,,,,,,,,,,,,,,,,,,,,,,,,,,,,,,,,,,,,,,,,,,,,,,,,,,,,,,,,,,,,,,,,,,,,,,,,,,,,,,,,,,,,,,,,,,,,,,,,,,,,,,,,,,,,,,,,,,,,,,,,,,,,,,,,,j,6.96029686928,,,,,,,,,,,,,2017_Jan_27_1205,59.7607747535,spr_backupper,001,Fr12,
,,,,,,,,,,,,,,,,,,,,,,,,,,,,,,,,,,,,,,,,,,,,,,,,,,,,,,,,,,,,,,,,,,,,,,,,,,,,,,,,,,,,,,,,,,,,,,,,,,,,,,,0,0,0,0,,,,,,,,,,,,,,,,,,,,,,,,,space,1.40832686424,,,,,,,,,,,2017_Jan_27_1205,59.7607747535,spr_backupper,001,Fr12,
,,,,,,,,,,,,,,,,,,,,,,,,,,,,,,,,,,,,,,,,,,,,,,,,,,,,,,,,,,,,,,,,,,,,,,,,,,,,,,,,,,,,,,,,,,,,,,,,,,,,,,,1,0,1,0,,,,,,,,,,,,,,,,,,,,,,,,,space,0.604004144669,,,,,,,,,,,2017_Jan_27_1205,59.7607747535,spr_backupper,001,Fr12,
,,,,,,,,,,,,,,,,,,,,,,,,,,,,,,,,,,,,,,,,,,,,,,,,,,,,,,,,,,,,,,,,,,,,,,,,,,,,,,,,,,,,,,,,,,,,,,,,,,,,,,,2,0,2,0,,,,,,,,,,,,,,,,,,,,,,,,,space,0.587755918503,,,,,,,,,,,2017_Jan_27_1205,59.7607747535,spr_backupper,001,Fr12,
,,,,,,,,,,,,,,,,,,,,,,,,,,,,,,,,,,,,,,,,,,,,,,,,,,,,,,,,,,,,,,,,,,,,,,,,,,,,,,,,,,,,,,,,,,,,,,,,,,,,,,,3,0,3,0,,,,,,,,,,,,,,,,,,,,,,,,,space,0.537031173706,,,,,,,,,,,2017_Jan_27_1205,59.7607747535,spr_backupper,001,Fr12,
,,,,,,,,,,,,,,,,,,,,,,,,,,,,,,,,,,,,,,,,,,,,,,,,,,,,,,,,,,,,,,,,,,,,,,,,,,,,,,,,,,,,,,,,,,,,,,,,,,,,,,,4,0,4,0,,,,,,,,,,,,,,,,,,,,,,,,,None,,,,,,,,,,,,2017_Jan_27_1205,59.7607747535,spr_backupper,001,Fr12,
,,,,,,,,,,,,,,,,,,,,,,,,,,,,,,,,,,,,,,,,,,,,,,,,,,,,,,,,,,,,,,,,,,,,,,,,,,,,,,,,,,,,,,,,,,,,,,,,,,,,,,,5,0,5,0,,,,,,,,,,,,,,,,,,,,,,,,,space,0.503665208817,,,,,,,,,,,2017_Jan_27_1205,59.7607747535,spr_backupper,001,Fr12,
,,,,,,,,,,,,,,,,,,,,,,,,,,,,,,,,,,,,,,,,,,,,,,,,,,,,,,,,,,,,,,,,,,,,,,,,,,,,,,,,,,,,,,,,,,,,,,,,,,,,,,,6,0,6,0,,,,,,,,,,,,,,,,,,,,,,,,,space,1.45899891853,,,,,,,,,,,2017_Jan_27_1205,59.7607747535,spr_backupper,001,Fr12,
,,,,,,,,,,,,,,,,,,,,,,,,,,,,,,,,,,,,,,,,,,,,,,,,,,,,,,,,,,,,,,,,,,,,,,,,,,,,,,,,,,,,,,,,,,,,,,,,,,,,,,,7,0,7,0,,,,,,,,,,,,,,,,,,,,,,,,,space,1.42526698112,,,,,,,,,,,2017_Jan_27_1205,59.7607747535,spr_backupper,001,Fr12,
,,,,,,,,,,,,,,,,,,,,,,,,,,,,,,,,,,,,,,,,,,,,,,,,,,,,,,,,,,,,,,,,,,,,,,,,,,,,,,,,,,,,,,,,,,,,,,,,,,,,,,,8,0,8,0,,,,,,,,,,,,,,,,,,,,,,,,,space,0.436925888062,,,,,,,,,,,2017_Jan_27_1205,59.7607747535,spr_backupper,001,Fr12,
,,,,,,,,,,,,,,,,,,,,,,,,,,,,,,,,,,,,,,,,,,,,,,,,,,,,,,,,,,,,,,,,,,,,,,,,,,,,,,,,,,,,,,,,,,,,,,,,,,,,,,,9,0,9,0,,,,,,,,,,,,,,,,,,,,,,,,,space,0.638206005096,,,,,,,,,,,2017_Jan_27_1205,59.7607747535,spr_backupper,001,Fr12,
,,,,,,,,,,,,,,,,,,,,,,,,,,,,,,,,,,,,,,,,,,,,,,,,,,,,,,,,,,,,,,,,,,,,,,,,,,,,,,,,,,,,,,,,,,,,,,,,,,,,,,,,,,,,,,,,,,,,,,,,,,,,,,,,,,,,,space,1.37529206276,,,,,,,,,2017_Jan_27_1205,59.7607747535,spr_backupper,001,Fr12,
,Wir,Wir,Die,Die,Außer,Wir,Er,Als,In,In,Er,Die,Jetzt,In,Die,In,Die,Bei,Viele,Die,Es,Die,Die,Es,Die,Beträchtliche,Sie,Nicht,Am,Dort,Ich,Mit,Er,Wir,Man,Das,Wir,Sie,Nicht,Im,Außer,Viele,Man,Die,Mit,Bei,Sie,Es,Wir,Unter,Die,Im,Die,Es,Wir,Alle,Jugendliche,Die,Er,Am,Manche,Ich,Ihr,Dass,Bei,Walter,In,Die,Er,Beträchtliche,Bei,Außer,Die,Die,In,Der,Es,Sie,Die,Die,Sie,100,Die,100,Die,Sie,In,Wir,Sie,Außer,Dort,Wir,Danach,Fernab,Die,Jungtiere,Ich,In,,,,,,,,,,,,,,,,,,,,,,,0,0,0,0,0,0,0,0,,,,,,,space,0.637662887573,space,0.939257144928,,,,,2017_Jan_27_1205,59.7607747535,spr_backupper,001,Fr12,
,übergaben,mussten,Linie,Formen,das,haben,hat,die,meinem,der,wurde,Autos,ist,einer,Kinder,den,Schule,der,Tonnen,Stücke,wurden,Uhr,Lösung,waren,Kinder,Stücke,verbrauchen,ein,äußersten,türmen,nehme,dieser,stellt,mussten,machte,Tuch,konnten,verlassen,ein,Fernrohr,dem,Tonnen,machte,Uhr,dieser,unserer,hatte,hat,hatten,keinen,müden,Fernrohr,Uhr,waren,übergaben,Betten,können,Gäste,stellt,äußeren,Kreditnehmer,wurde,Blutdruck,es,der,Scheel,den,Teilnehmerinnen,wurde,Stücke,unserer,den,Eislaufbahnen,Gäste,meinem,Flug,wurden,haben,Schule,Schuhe,verbrauchen,g,Autos,g,Schuhe,verlassen,der,haben,hatte,dem,türmen,hatten,wurde,des,"Uhr,",sollten,nehme,diesem,,,,,,,,,,,,,,,,,,,,,,,0,0,0,0,0,1,1,1,,,,,,,,,space,0.453423023224,,,,,2017_Jan_27_1205,59.7607747535,spr_backupper,001,Fr12,
,dem,uns,101,wurden,Essen,jede,ein,Sonne,Studium,Tat,trotz,beider,genau,Studie,fuhren,Kakao,verbraucht,Feier,gebrauchte,wurden,Eimer,war,wird,nur,fuhren,saftigen,60,Tropfen,Rand,sich,eine,Methode,die,uns,mal,wurde,dann,wegen,Tropfen,sahen,Bürgermeister,gebrauchter,mal,schlug,Methode,Ankunft,keine,uns,in,Umständen,Teilnehmer,sahen,schlug,nur,das,wurden,Kleidung,suchen,die,Rand,sind,damals,kann,"regnete,",Feier,war,Kakao,wussten,trotz,saftiges,Ankunft,Bürgermeister,wurden,suchen,Studium,zum,Eimer,die,verbraucht,in,60,braunen,beider,brauner,in,wegen,Tat,jede,keine,Essen,sich,in,die,Rummels,die,immer,eine,Zirkus,,,,,,,,,,,,,,,,,,,,,,,0,0,0,0,0,2,2,2,,,,,,,,,space,0.433280944824,,,,,2017_Jan_27_1205,59.7607747535,spr_backupper,001,Fr12,
,Mann,durch,hält,unter,kann,Menge,Hemd,"unterging,",las,wissen,dem,beteiligter,die,wurde,mit,gehören,260.000,gedachte,Kleidung,aus,rote,aus,mit,kleinere,mit,Fleischs,Liter,königlichen,der,Berge,große,kann,Masse,durch,wieder,dann,mit,dem,königliches,wir,beschuldigten,Kleidung,wieder,"sporadisch,",kann,stand,Lust,die,Dänemark,können,wurden,wir,"sporadisch,",kleinere,Auto,mit,bei,die,Masse,der,mit,schnell,schon,hat,gedachte,der,gehören,überwiegend,des,Fleisch,stand,beschuldigten,mit,die,habe,Mond,roter,Erlebnisse,260.000,Größe,Liter,Zuckers,beteiligten,Zucker,Größe,des,wissen,Menge,Lust,kann,Berge,Dänemark,Leinwand,wurde,er,auf,große,werden,,,,,,,,,,,,,,,,,,,,,,,0,0,0,0,0,3,3,3,,,,,,,,,space,0.415406942368,,,,,2017_Jan_27_1205,59.7607747535,spr_backupper,001,Fr12,
,das,Büschel,nicht,"regelmäßigem,",ich,alten,aus,war,ich,wir,bekannten,Fahrer,richtige,jetzt,solchen,immer,Kilowattstunden,man,landen,"wertvollem,",Farbe,"Japan,","reichlichem,","Delikte,",solch,wurden,sprudelnden,Bluts,Stadt,schmutziger,Packung,man,mit,Büschel,viel,mit,"minimalem,",schönen,Blut,den,die,landen,viel,obschon,man,ein,auf,Stimmung,einen,Neuwahlen,mit,den,obwohl,"Delikte,",dem,"üblichem,",ausreichendem,Wohnung,mit,Stadt,"sämtlichem,",dank,bei,uns,man,vierte,immer,"nicht,",bekannten,wurden,ein,die,dauerhaftem,Wohnung,ich,dauerte,Farbe,bei,Kilowattstunden,36,sprudelndes,sind,Fahrer,sind,36,schönen,wir,alten,auf,ich,schmutzige,gelegentlich,aus,schon,"trug,",warmem,Packung,die,,,,,,,,,,,,,,,,,,,,,,,0,0,0,0,0,4,4,4,,,,,,,,,space,0.34848690033,,,,,2017_Jan_27_1205,59.7607747535,spr_backupper,001,Fr12,
,Auto,frischen,am,kaltem,leider,Krams,feinem,die,mehr,um,Skandal,wurden,"Zeit,","nachgewiesen,",unzureichenden,350,elektrische,der,im,klassischen,geschleudert.,die,purem,deren,unzureichenden,serviert.,Trinkwassers.,hat,liegen,Wäsche.,salziger,eine,einem,frisches,Lärm,"reichem,",sauberen,Wetter,hat,roten,Störenfriede,im,Lärm,sie,eine,Glas,noch,ziemlich,gelegentlichen,vor,zusätzlichem,roten,sie,derer,Mann,harten,monatlichem,des,einem,liegen,künftigem,täglichem,minimalem,die,den,Bundespräsident.,350,was,Skandals,serviert.,Glas,Störenfriede,feinem,des,mehr,ungefähr,geschleudert.,"frischem,",elektrischer,hätten,Trinkwasser.,auf,wurden,auf,würden,Wetters,von,Kram,noch,leider,Wäsche.,einen,seltenem,immer,war,weichem,salzige,Tiere,,,,,,,,,,,,,,,,,,,,,,,0,0,0,0,0,5,5,5,,,,,,,,,space,0.381666898727,,,,,2017_Jan_27_1205,59.7607747535,spr_backupper,001,Fr12,
,mehr,Grases,Hauptbahnhof.,Abduschen,nichts,aus,dichten,Flut,als,die,wiedergewählt.,verschrottet.,um,dass,Helmen,ml,Energie.,Soldaten,Müll.,Schmuck,nan,er,Alkohol,sie,Helmen,nan,nan,den,die,nan,Wurst,große,Esslöffel,Gras,um,goldenen,Kraftstoff,die,den,Planet,jeden.,Müll.,um,defekt,große,köstlicher,eine,"vermiest,",Besucher.,Dezember,schwarzem,Planeten,defekt,sie,mehr,Schaumstoff,Taschengeld,Herrn,Esslöffel,die,Einkommen,grünen,täglichen,Stimmung,Soldaten,nan,ml,Tupperware,wiedergewählt.,nan,köstlichen,jeden.,Kunsteis,Herrn,als,drei,nan,kaltem,Energie.,seiner,nan,jeden,verschrottet.,jeden,seiner,die,den,aus,eine,nichts,nan,Besucher.,dichten,ruhig,aus,Untergrund,Wurst,artgerecht,,,,,,,,,,,,,,,,,,,,,,,0,0,0,0,0,6,6,6,,,,,,,,,space,0.424760103226,,,,,2017_Jan_27_1205,59.7607747535,spr_backupper,001,Fr12,
,als,zwängen.,nan,gehärtet.,mitbringen.,dem,Stoff,zurückgekehrt.,einmal,Probleme,nan,nan,Nadelhölzer,das,zur,warme,nan,des,nan,umgearbeitet.,nan,trug.,verdünnt.,überführt,zur,nan,nan,Boden,Slums.,nan,mit,Menge,warmen,zwängen.,jede,Besatz,fahren.,Wohnung.,Boden,ganz,nan,nan,jede,war.,Menge,Wein,Sammlung,dass,nan,stattfinden.,Kaffee,ganz,war.,überführt,als,gefertigt.,selber,Gantenbein.,warmem,Slums.,haftbar.,Tee,Einsatz,ziemlich,des,nan,warmer,ist.,nan,nan,Weins,nan,eingesprüht.,Gantenbeins.,einmal,Tage.,nan,Saft,nan,Frau,nan,Fall,nan,Fall,Frau,Wohnung.,Problemen,dem,Sammlung,mitbringen.,nan,nan,Gewebe,diskutiert.,Japan.,liegen.,mit,gehalten.,,,,,,,,,,,,,,,,,,,,,,,0,0,0,0,0,7,7,7,,,,,,,,,space,0.49813079834,,,,,2017_Jan_27_1205,59.7607747535,spr_backupper,001,Fr12,
,gerne.,nan,nan,nan,nan,Haus,gefertigt.,nan,Rilke.,im,nan,nan,umzusetzen.,Medikament,Schule.,Milch.,nan,zweiten,nan,nan,nan,nan,nan,wurden.,Schule.,nan,nan,berührt.,nan,nan,an,dunkle,Honigs,nan,Menge,rekonstruiert.,nan,nan,berührt.,deutlich.,nan,nan,Menge,nan,dunkler,schon,dummer,es,nan,nan,wiederbelebt.,deutlich.,nan,wurden.,gerne.,nan,kaufen.,nan,Honig,nan,nan,wieder,sinken.,vermiest.,zweiten,nan,Milch.,nan,nan,nan,schon,nan,nan,nan,Rilke,nan,nan,besprochen.,nan,gepasst.,nan,genug.,nan,genug.,gepasst,nan,im,Haus,dumme,nan,nan,nan,wiederhergestellt.,nan,nan,nan,an,nan,,,,,,,,,,,,,,,,,,,,,,,0,0,0,0,0,8,8,8,,,,,,,,,space,0.435972929001,,,,,2017_Jan_27_1205,59.7607747535,spr_backupper,001,Fr12,
,,,,,,,,,,,,,,,,,,,,,,,,,,,,,,,,,,,,,,,,,,,,,,,,,,,,,,,,,,,,,,,,,,,,,,,,,,,,,,,,,,,,,,,,,,,,,,,,,,,,,,,,,,,,,,,,,,,,,,,,,0,0,0,0,,,,,,,,,,,,,,,None,n,1.76098418236,,2017_Jan_27_1205,59.7607747535,spr_backupper,001,Fr12,
,Wir,Wir,Die,Die,Außer,Wir,Er,Als,In,In,Er,Die,Jetzt,In,Die,In,Die,Bei,Viele,Die,Es,Die,Die,Es,Die,Beträchtliche,Sie,Nicht,Am,Dort,Ich,Mit,Er,Wir,Man,Das,Wir,Sie,Nicht,Im,Außer,Viele,Man,Die,Mit,Bei,Sie,Es,Wir,Unter,Die,Im,Die,Es,Wir,Alle,Jugendliche,Die,Er,Am,Manche,Ich,Ihr,Dass,Bei,Walter,In,Die,Er,Beträchtliche,Bei,Außer,Die,Die,In,Der,Es,Sie,Die,Die,Sie,100,Die,100,Die,Sie,In,Wir,Sie,Außer,Dort,Wir,Danach,Fernab,Die,Jungtiere,Ich,In,,,,,,,,,,,,,,,,,,,,,,,1,0,1,0,0,0,0,0,,,,,,,space,0.687626123428,space,0.436229944229,,,,,2017_Jan_27_1205,59.7607747535,spr_backupper,001,Fr12,
,übergaben,mussten,Linie,Formen,das,haben,hat,die,meinem,der,wurde,Autos,ist,einer,Kinder,den,Schule,der,Tonnen,Stücke,wurden,Uhr,Lösung,waren,Kinder,Stücke,verbrauchen,ein,äußersten,türmen,nehme,dieser,stellt,mussten,machte,Tuch,konnten,verlassen,ein,Fernrohr,dem,Tonnen,machte,Uhr,dieser,unserer,hatte,hat,hatten,keinen,müden,Fernrohr,Uhr,waren,übergaben,Betten,können,Gäste,stellt,äußeren,Kreditnehmer,wurde,Blutdruck,es,der,Scheel,den,Teilnehmerinnen,wurde,Stücke,unserer,den,Eislaufbahnen,Gäste,meinem,Flug,wurden,haben,Schule,Schuhe,verbrauchen,g,Autos,g,Schuhe,verlassen,der,haben,hatte,dem,türmen,hatten,wurde,des,"Uhr,",sollten,nehme,diesem,,,,,,,,,,,,,,,,,,,,,,,1,0,1,0,0,1,1,1,,,,,,,,,space,0.445339918137,,,,,2017_Jan_27_1205,59.7607747535,spr_backupper,001,Fr12,
,dem,uns,101,wurden,Essen,jede,ein,Sonne,Studium,Tat,trotz,beider,genau,Studie,fuhren,Kakao,verbraucht,Feier,gebrauchte,wurden,Eimer,war,wird,nur,fuhren,saftigen,60,Tropfen,Rand,sich,eine,Methode,die,uns,mal,wurde,dann,wegen,Tropfen,sahen,Bürgermeister,gebrauchter,mal,schlug,Methode,Ankunft,keine,uns,in,Umständen,Teilnehmer,sahen,schlug,nur,das,wurden,Kleidung,suchen,die,Rand,sind,damals,kann,"regnete,",Feier,war,Kakao,wussten,trotz,saftiges,Ankunft,Bürgermeister,wurden,suchen,Studium,zum,Eimer,die,verbraucht,in,60,braunen,beider,brauner,in,wegen,Tat,jede,keine,Essen,sich,in,die,Rummels,die,immer,eine,Zirkus,,,,,,,,,,,,,,,,,,,,,,,1,0,1,0,0,2,2,2,,,,,,,,,space,0.418074131012,,,,,2017_Jan_27_1205,59.7607747535,spr_backupper,001,Fr12,
,Mann,durch,hält,unter,kann,Menge,Hemd,"unterging,",las,wissen,dem,beteiligter,die,wurde,mit,gehören,260.000,gedachte,Kleidung,aus,rote,aus,mit,kleinere,mit,Fleischs,Liter,königlichen,der,Berge,große,kann,Masse,durch,wieder,dann,mit,dem,königliches,wir,beschuldigten,Kleidung,wieder,"sporadisch,",kann,stand,Lust,die,Dänemark,können,wurden,wir,"sporadisch,",kleinere,Auto,mit,bei,die,Masse,der,mit,schnell,schon,hat,gedachte,der,gehören,überwiegend,des,Fleisch,stand,beschuldigten,mit,die,habe,Mond,roter,Erlebnisse,260.000,Größe,Liter,Zuckers,beteiligten,Zucker,Größe,des,wissen,Menge,Lust,kann,Berge,Dänemark,Leinwand,wurde,er,auf,große,werden,,,,,,,,,,,,,,,,,,,,,,,1,0,1,0,0,3,3,3,,,,,,,,,space,0.486475944519,,,,,2017_Jan_27_1205,59.7607747535,spr_backupper,001,Fr12,
,das,Büschel,nicht,"regelmäßigem,",ich,alten,aus,war,ich,wir,bekannten,Fahrer,richtige,jetzt,solchen,immer,Kilowattstunden,man,landen,"wertvollem,",Farbe,"Japan,","reichlichem,","Delikte,",solch,wurden,sprudelnden,Bluts,Stadt,schmutziger,Packung,man,mit,Büschel,viel,mit,"minimalem,",schönen,Blut,den,die,landen,viel,obschon,man,ein,auf,Stimmung,einen,Neuwahlen,mit,den,obwohl,"Delikte,",dem,"üblichem,",ausreichendem,Wohnung,mit,Stadt,"sämtlichem,",dank,bei,uns,man,vierte,immer,"nicht,",bekannten,wurden,ein,die,dauerhaftem,Wohnung,ich,dauerte,Farbe,bei,Kilowattstunden,36,sprudelndes,sind,Fahrer,sind,36,schönen,wir,alten,auf,ich,schmutzige,gelegentlich,aus,schon,"trug,",warmem,Packung,die,,,,,,,,,,,,,,,,,,,,,,,1,0,1,0,0,4,4,4,,,,,,,,,space,0.454258918762,,,,,2017_Jan_27_1205,59.7607747535,spr_backupper,001,Fr12,
,Auto,frischen,am,kaltem,leider,Krams,feinem,die,mehr,um,Skandal,wurden,"Zeit,","nachgewiesen,",unzureichenden,350,elektrische,der,im,klassischen,geschleudert.,die,purem,deren,unzureichenden,serviert.,Trinkwassers.,hat,liegen,Wäsche.,salziger,eine,einem,frisches,Lärm,"reichem,",sauberen,Wetter,hat,roten,Störenfriede,im,Lärm,sie,eine,Glas,noch,ziemlich,gelegentlichen,vor,zusätzlichem,roten,sie,derer,Mann,harten,monatlichem,des,einem,liegen,künftigem,täglichem,minimalem,die,den,Bundespräsident.,350,was,Skandals,serviert.,Glas,Störenfriede,feinem,des,mehr,ungefähr,geschleudert.,"frischem,",elektrischer,hätten,Trinkwasser.,auf,wurden,auf,würden,Wetters,von,Kram,noch,leider,Wäsche.,einen,seltenem,immer,war,weichem,salzige,Tiere,,,,,,,,,,,,,,,,,,,,,,,1,0,1,0,0,5,5,5,,,,,,,,,space,0.38839507103,,,,,2017_Jan_27_1205,59.7607747535,spr_backupper,001,Fr12,
,mehr,Grases,Hauptbahnhof.,Abduschen,nichts,aus,dichten,Flut,als,die,wiedergewählt.,verschrottet.,um,dass,Helmen,ml,Energie.,Soldaten,Müll.,Schmuck,nan,er,Alkohol,sie,Helmen,nan,nan,den,die,nan,Wurst,große,Esslöffel,Gras,um,goldenen,Kraftstoff,die,den,Planet,jeden.,Müll.,um,defekt,große,köstlicher,eine,"vermiest,",Besucher.,Dezember,schwarzem,Planeten,defekt,sie,mehr,Schaumstoff,Taschengeld,Herrn,Esslöffel,die,Einkommen,grünen,täglichen,Stimmung,Soldaten,nan,ml,Tupperware,wiedergewählt.,nan,köstlichen,jeden.,Kunsteis,Herrn,als,drei,nan,kaltem,Energie.,seiner,nan,jeden,verschrottet.,jeden,seiner,die,den,aus,eine,nichts,nan,Besucher.,dichten,ruhig,aus,Untergrund,Wurst,artgerecht,,,,,,,,,,,,,,,,,,,,,,,1,0,1,0,0,6,6,6,,,,,,,,,space,0.428982019424,,,,,2017_Jan_27_1205,59.7607747535,spr_backupper,001,Fr12,
,als,zwängen.,nan,gehärtet.,mitbringen.,dem,Stoff,zurückgekehrt.,einmal,Probleme,nan,nan,Nadelhölzer,das,zur,warme,nan,des,nan,umgearbeitet.,nan,trug.,verdünnt.,überführt,zur,nan,nan,Boden,Slums.,nan,mit,Menge,warmen,zwängen.,jede,Besatz,fahren.,Wohnung.,Boden,ganz,nan,nan,jede,war.,Menge,Wein,Sammlung,dass,nan,stattfinden.,Kaffee,ganz,war.,überführt,als,gefertigt.,selber,Gantenbein.,warmem,Slums.,haftbar.,Tee,Einsatz,ziemlich,des,nan,warmer,ist.,nan,nan,Weins,nan,eingesprüht.,Gantenbeins.,einmal,Tage.,nan,Saft,nan,Frau,nan,Fall,nan,Fall,Frau,Wohnung.,Problemen,dem,Sammlung,mitbringen.,nan,nan,Gewebe,diskutiert.,Japan.,liegen.,mit,gehalten.,,,,,,,,,,,,,,,,,,,,,,,1,0,1,0,0,7,7,7,,,,,,,,,space,0.369503974915,,,,,2017_Jan_27_1205,59.7607747535,spr_backupper,001,Fr12,
,gerne.,nan,nan,nan,nan,Haus,gefertigt.,nan,Rilke.,im,nan,nan,umzusetzen.,Medikament,Schule.,Milch.,nan,zweiten,nan,nan,nan,nan,nan,wurden.,Schule.,nan,nan,berührt.,nan,nan,an,dunkle,Honigs,nan,Menge,rekonstruiert.,nan,nan,berührt.,deutlich.,nan,nan,Menge,nan,dunkler,schon,dummer,es,nan,nan,wiederbelebt.,deutlich.,nan,wurden.,gerne.,nan,kaufen.,nan,Honig,nan,nan,wieder,sinken.,vermiest.,zweiten,nan,Milch.,nan,nan,nan,schon,nan,nan,nan,Rilke,nan,nan,besprochen.,nan,gepasst.,nan,genug.,nan,genug.,gepasst,nan,im,Haus,dumme,nan,nan,nan,wiederhergestellt.,nan,nan,nan,an,nan,,,,,,,,,,,,,,,,,,,,,,,1,0,1,0,0,8,8,8,,,,,,,,,space,0.368840932846,,,,,2017_Jan_27_1205,59.7607747535,spr_backupper,001,Fr12,
,nan,nan,nan,nan,nan,geschafft.,nan,nan,nan,Landkreis.,nan,nan,nan,nicht,nan,nan,nan,Weltkriegs.,nan,nan,nan,nan,nan,nan,nan,nan,nan,nan,nan,nan,den,Materie,her.,nan,heißer,nan,nan,nan,nan,nan,nan,nan,heiße,nan,Materie,auf,Sprüche.,regnete.,nan,nan,nan,nan,nan,nan,nan,nan,nan,nan,her.,nan,nan,fit.,nan,nan,Weltkriegs.,nan,nan,nan,nan,nan,auf,nan,nan,nan,gelesen.,nan,nan,nan,nan,nan,nan,nan,nan,nan,haben.,nan,Landkreis.,geschafft.,Sprüche.,nan,nan,nan,nan,nan,nan,nan,den,nan,,,,,,,,,,,,,,,,,,,,,,,1,0,1,0,0,9,9,9,,,,,,,,,space,0.403210878372,,,,,2017_Jan_27_1205,59.7607747535,spr_backupper,001,Fr12,
,,,,,,,,,,,,,,,,,,,,,,,,,,,,,,,,,,,,,,,,,,,,,,,,,,,,,,,,,,,,,,,,,,,,,,,,,,,,,,,,,,,,,,,,,,,,,,,,,,,,,,,,,,,,,,,,,,,,,,,,,1,0,1,0,,,,,,,,,,,,,,,space,n,5.22944402695,0.520414829254,2017_Jan_27_1205,59.7607747535,spr_backupper,001,Fr12,
,Wir,Wir,Die,Die,Außer,Wir,Er,Als,In,In,Er,Die,Jetzt,In,Die,In,Die,Bei,Viele,Die,Es,Die,Die,Es,Die,Beträchtliche,Sie,Nicht,Am,Dort,Ich,Mit,Er,Wir,Man,Das,Wir,Sie,Nicht,Im,Außer,Viele,Man,Die,Mit,Bei,Sie,Es,Wir,Unter,Die,Im,Die,Es,Wir,Alle,Jugendliche,Die,Er,Am,Manche,Ich,Ihr,Dass,Bei,Walter,In,Die,Er,Beträchtliche,Bei,Außer,Die,Die,In,Der,Es,Sie,Die,Die,Sie,100,Die,100,Die,Sie,In,Wir,Sie,Außer,Dort,Wir,Danach,Fernab,Die,Jungtiere,Ich,In,,,,,,,,,,,,,,,,,,,,,,,2,0,2,0,0,0,0,0,,,,,,,space,0.956624984741,space,0.112446069717,,,,,2017_Jan_27_1205,59.7607747535,spr_backupper,001,Fr12,
,übergaben,mussten,Linie,Formen,das,haben,hat,die,meinem,der,wurde,Autos,ist,einer,Kinder,den,Schule,der,Tonnen,Stücke,wurden,Uhr,Lösung,waren,Kinder,Stücke,verbrauchen,ein,äußersten,türmen,nehme,dieser,stellt,mussten,machte,Tuch,konnten,verlassen,ein,Fernrohr,dem,Tonnen,machte,Uhr,dieser,unserer,hatte,hat,hatten,keinen,müden,Fernrohr,Uhr,waren,übergaben,Betten,können,Gäste,stellt,äußeren,Kreditnehmer,wurde,Blutdruck,es,der,Scheel,den,Teilnehmerinnen,wurde,Stücke,unserer,den,Eislaufbahnen,Gäste,meinem,Flug,wurden,haben,Schule,Schuhe,verbrauchen,g,Autos,g,Schuhe,verlassen,der,haben,hatte,dem,türmen,hatten,wurde,des,"Uhr,",sollten,nehme,diesem,,,,,,,,,,,,,,,,,,,,,,,2,0,2,0,0,1,1,1,,,,,,,,,space,0.452545166016,,,,,2017_Jan_27_1205,59.7607747535,spr_backupper,001,Fr12,
,dem,uns,101,wurden,Essen,jede,ein,Sonne,Studium,Tat,trotz,beider,genau,Studie,fuhren,Kakao,verbraucht,Feier,gebrauchte,wurden,Eimer,war,wird,nur,fuhren,saftigen,60,Tropfen,Rand,sich,eine,Methode,die,uns,mal,wurde,dann,wegen,Tropfen,sahen,Bürgermeister,gebrauchter,mal,schlug,Methode,Ankunft,keine,uns,in,Umständen,Teilnehmer,sahen,schlug,nur,das,wurden,Kleidung,suchen,die,Rand,sind,damals,kann,"regnete,",Feier,war,Kakao,wussten,trotz,saftiges,Ankunft,Bürgermeister,wurden,suchen,Studium,zum,Eimer,die,verbraucht,in,60,braunen,beider,brauner,in,wegen,Tat,jede,keine,Essen,sich,in,die,Rummels,die,immer,eine,Zirkus,,,,,,,,,,,,,,,,,,,,,,,2,0,2,0,0,2,2,2,,,,,,,,,space,0.424306154251,,,,,2017_Jan_27_1205,59.7607747535,spr_backupper,001,Fr12,
,Mann,durch,hält,unter,kann,Menge,Hemd,"unterging,",las,wissen,dem,beteiligter,die,wurde,mit,gehören,260.000,gedachte,Kleidung,aus,rote,aus,mit,kleinere,mit,Fleischs,Liter,königlichen,der,Berge,große,kann,Masse,durch,wieder,dann,mit,dem,königliches,wir,beschuldigten,Kleidung,wieder,"sporadisch,",kann,stand,Lust,die,Dänemark,können,wurden,wir,"sporadisch,",kleinere,Auto,mit,bei,die,Masse,der,mit,schnell,schon,hat,gedachte,der,gehören,überwiegend,des,Fleisch,stand,beschuldigten,mit,die,habe,Mond,roter,Erlebnisse,260.000,Größe,Liter,Zuckers,beteiligten,Zucker,Größe,des,wissen,Menge,Lust,kann,Berge,Dänemark,Leinwand,wurde,er,auf,große,werden,,,,,,,,,,,,,,,,,,,,,,,2,0,2,0,0,3,3,3,,,,,,,,,space,0.361244916916,,,,,2017_Jan_27_1205,59.7607747535,spr_backupper,001,Fr12,
,das,Büschel,nicht,"regelmäßigem,",ich,alten,aus,war,ich,wir,bekannten,Fahrer,richtige,jetzt,solchen,immer,Kilowattstunden,man,landen,"wertvollem,",Farbe,"Japan,","reichlichem,","Delikte,",solch,wurden,sprudelnden,Bluts,Stadt,schmutziger,Packung,man,mit,Büschel,viel,mit,"minimalem,",schönen,Blut,den,die,landen,viel,obschon,man,ein,auf,Stimmung,einen,Neuwahlen,mit,den,obwohl,"Delikte,",dem,"üblichem,",ausreichendem,Wohnung,mit,Stadt,"sämtlichem,",dank,bei,uns,man,vierte,immer,"nicht,",bekannten,wurden,ein,die,dauerhaftem,Wohnung,ich,dauerte,Farbe,bei,Kilowattstunden,36,sprudelndes,sind,Fahrer,sind,36,schönen,wir,alten,auf,ich,schmutzige,gelegentlich,aus,schon,"trug,",warmem,Packung,die,,,,,,,,,,,,,,,,,,,,,,,2,0,2,0,0,4,4,4,,,,,,,,,space,0.326581001282,,,,,2017_Jan_27_1205,59.7607747535,spr_backupper,001,Fr12,
,Auto,frischen,am,kaltem,leider,Krams,feinem,die,mehr,um,Skandal,wurden,"Zeit,","nachgewiesen,",unzureichenden,350,elektrische,der,im,klassischen,geschleudert.,die,purem,deren,unzureichenden,serviert.,Trinkwassers.,hat,liegen,Wäsche.,salziger,eine,einem,frisches,Lärm,"reichem,",sauberen,Wetter,hat,roten,Störenfriede,im,Lärm,sie,eine,Glas,noch,ziemlich,gelegentlichen,vor,zusätzlichem,roten,sie,derer,Mann,harten,monatlichem,des,einem,liegen,künftigem,täglichem,minimalem,die,den,Bundespräsident.,350,was,Skandals,serviert.,Glas,Störenfriede,feinem,des,mehr,ungefähr,geschleudert.,"frischem,",elektrischer,hätten,Trinkwasser.,auf,wurden,auf,würden,Wetters,von,Kram,noch,leider,Wäsche.,einen,seltenem,immer,war,weichem,salzige,Tiere,,,,,,,,,,,,,,,,,,,,,,,2,0,2,0,0,5,5,5,,,,,,,,,space,0.315183877945,,,,,2017_Jan_27_1205,59.7607747535,spr_backupper,001,Fr12,
,mehr,Grases,Hauptbahnhof.,Abduschen,nichts,aus,dichten,Flut,als,die,wiedergewählt.,verschrottet.,um,dass,Helmen,ml,Energie.,Soldaten,Müll.,Schmuck,nan,er,Alkohol,sie,Helmen,nan,nan,den,die,nan,Wurst,große,Esslöffel,Gras,um,goldenen,Kraftstoff,die,den,Planet,jeden.,Müll.,um,defekt,große,köstlicher,eine,"vermiest,",Besucher.,Dezember,schwarzem,Planeten,defekt,sie,mehr,Schaumstoff,Taschengeld,Herrn,Esslöffel,die,Einkommen,grünen,täglichen,Stimmung,Soldaten,nan,ml,Tupperware,wiedergewählt.,nan,köstlichen,jeden.,Kunsteis,Herrn,als,drei,nan,kaltem,Energie.,seiner,nan,jeden,verschrottet.,jeden,seiner,die,den,aus,eine,nichts,nan,Besucher.,dichten,ruhig,aus,Untergrund,Wurst,artgerecht,,,,,,,,,,,,,,,,,,,,,,,2,0,2,0,0,6,6,6,,,,,,,,,space,0.31880903244,,,,,2017_Jan_27_1205,59.7607747535,spr_backupper,001,Fr12,
,als,zwängen.,nan,gehärtet.,mitbringen.,dem,Stoff,zurückgekehrt.,einmal,Probleme,nan,nan,Nadelhölzer,das,zur,warme,nan,des,nan,umgearbeitet.,nan,trug.,verdünnt.,überführt,zur,nan,nan,Boden,Slums.,nan,mit,Menge,warmen,zwängen.,jede,Besatz,fahren.,Wohnung.,Boden,ganz,nan,nan,jede,war.,Menge,Wein,Sammlung,dass,nan,stattfinden.,Kaffee,ganz,war.,überführt,als,gefertigt.,selber,Gantenbein.,warmem,Slums.,haftbar.,Tee,Einsatz,ziemlich,des,nan,warmer,ist.,nan,nan,Weins,nan,eingesprüht.,Gantenbeins.,einmal,Tage.,nan,Saft,nan,Frau,nan,Fall,nan,Fall,Frau,Wohnung.,Problemen,dem,Sammlung,mitbringen.,nan,nan,Gewebe,diskutiert.,Japan.,liegen.,mit,gehalten.,,,,,,,,,,,,,,,,,,,,,,,2,0,2,0,0,7,7,7,,,,,,,,,space,0.369107961655,,,,,2017_Jan_27_1205,59.7607747535,spr_backupper,001,Fr12,
,,,,,,,,,,,,,,,,,,,,,,,,,,,,,,,,,,,,,,,,,,,,,,,,,,,,,,,,,,,,,,,,,,,,,,,,,,,,,,,,,,,,,,,,,,,,,,,,,,,,,,,,,,,,,,,,,,,,,,,,,2,0,2,0,,,,,,,,,,,,,,,space,j,3.15103197098,0.53763794899,2017_Jan_27_1205,59.7607747535,spr_backupper,001,Fr12,
,Wir,Wir,Die,Die,Außer,Wir,Er,Als,In,In,Er,Die,Jetzt,In,Die,In,Die,Bei,Viele,Die,Es,Die,Die,Es,Die,Beträchtliche,Sie,Nicht,Am,Dort,Ich,Mit,Er,Wir,Man,Das,Wir,Sie,Nicht,Im,Außer,Viele,Man,Die,Mit,Bei,Sie,Es,Wir,Unter,Die,Im,Die,Es,Wir,Alle,Jugendliche,Die,Er,Am,Manche,Ich,Ihr,Dass,Bei,Walter,In,Die,Er,Beträchtliche,Bei,Außer,Die,Die,In,Der,Es,Sie,Die,Die,Sie,100,Die,100,Die,Sie,In,Wir,Sie,Außer,Dort,Wir,Danach,Fernab,Die,Jungtiere,Ich,In,,,,,,,,,,,,,,,,,,,,,,,3,0,3,0,0,0,0,0,,,,,,,space,0.671452045441,space,0.469071865082,,,,,2017_Jan_27_1205,59.7607747535,spr_backupper,001,Fr12,
,übergaben,mussten,Linie,Formen,das,haben,hat,die,meinem,der,wurde,Autos,ist,einer,Kinder,den,Schule,der,Tonnen,Stücke,wurden,Uhr,Lösung,waren,Kinder,Stücke,verbrauchen,ein,äußersten,türmen,nehme,dieser,stellt,mussten,machte,Tuch,konnten,verlassen,ein,Fernrohr,dem,Tonnen,machte,Uhr,dieser,unserer,hatte,hat,hatten,keinen,müden,Fernrohr,Uhr,waren,übergaben,Betten,können,Gäste,stellt,äußeren,Kreditnehmer,wurde,Blutdruck,es,der,Scheel,den,Teilnehmerinnen,wurde,Stücke,unserer,den,Eislaufbahnen,Gäste,meinem,Flug,wurden,haben,Schule,Schuhe,verbrauchen,g,Autos,g,Schuhe,verlassen,der,haben,hatte,dem,türmen,hatten,wurde,des,"Uhr,",sollten,nehme,diesem,,,,,,,,,,,,,,,,,,,,,,,3,0,3,0,0,1,1,1,,,,,,,,,space,0.272030830383,,,,,2017_Jan_27_1205,59.7607747535,spr_backupper,001,Fr12,
,dem,uns,101,wurden,Essen,jede,ein,Sonne,Studium,Tat,trotz,beider,genau,Studie,fuhren,Kakao,verbraucht,Feier,gebrauchte,wurden,Eimer,war,wird,nur,fuhren,saftigen,60,Tropfen,Rand,sich,eine,Methode,die,uns,mal,wurde,dann,wegen,Tropfen,sahen,Bürgermeister,gebrauchter,mal,schlug,Methode,Ankunft,keine,uns,in,Umständen,Teilnehmer,sahen,schlug,nur,das,wurden,Kleidung,suchen,die,Rand,sind,damals,kann,"regnete,",Feier,war,Kakao,wussten,trotz,saftiges,Ankunft,Bürgermeister,wurden,suchen,Studium,zum,Eimer,die,verbraucht,in,60,braunen,beider,brauner,in,wegen,Tat,jede,keine,Essen,sich,in,die,Rummels,die,immer,eine,Zirkus,,,,,,,,,,,,,,,,,,,,,,,3,0,3,0,0,2,2,2,,,,,,,,,space,0.319061040878,,,,,2017_Jan_27_1205,59.7607747535,spr_backupper,001,Fr12,
,Mann,durch,hält,unter,kann,Menge,Hemd,"unterging,",las,wissen,dem,beteiligter,die,wurde,mit,gehören,260.000,gedachte,Kleidung,aus,rote,aus,mit,kleinere,mit,Fleischs,Liter,königlichen,der,Berge,große,kann,Masse,durch,wieder,dann,mit,dem,königliches,wir,beschuldigten,Kleidung,wieder,"sporadisch,",kann,stand,Lust,die,Dänemark,können,wurden,wir,"sporadisch,",kleinere,Auto,mit,bei,die,Masse,der,mit,schnell,schon,hat,gedachte,der,gehören,überwiegend,des,Fleisch,stand,beschuldigten,mit,die,habe,Mond,roter,Erlebnisse,260.000,Größe,Liter,Zuckers,beteiligten,Zucker,Größe,des,wissen,Menge,Lust,kann,Berge,Dänemark,Leinwand,wurde,er,auf,große,werden,,,,,,,,,,,,,,,,,,,,,,,3,0,3,0,0,3,3,3,,,,,,,,,space,0.250756025314,,,,,2017_Jan_27_1205,59.7607747535,spr_backupper,001,Fr12,
,das,Büschel,nicht,"regelmäßigem,",ich,alten,aus,war,ich,wir,bekannten,Fahrer,richtige,jetzt,solchen,immer,Kilowattstunden,man,landen,"wertvollem,",Farbe,"Japan,","reichlichem,","Delikte,",solch,wurden,sprudelnden,Bluts,Stadt,schmutziger,Packung,man,mit,Büschel,viel,mit,"minimalem,",schönen,Blut,den,die,landen,viel,obschon,man,ein,auf,Stimmung,einen,Neuwahlen,mit,den,obwohl,"Delikte,",dem,"üblichem,",ausreichendem,Wohnung,mit,Stadt,"sämtlichem,",dank,bei,uns,man,vierte,immer,"nicht,",bekannten,wurden,ein,die,dauerhaftem,Wohnung,ich,dauerte,Farbe,bei,Kilowattstunden,36,sprudelndes,sind,Fahrer,sind,36,schönen,wir,alten,auf,ich,schmutzige,gelegentlich,aus,schon,"trug,",warmem,Packung,die,,,,,,,,,,,,,,,,,,,,,,,3,0,3,0,0,4,4,4,,,,,,,,,space,0.55405497551,,,,,2017_Jan_27_1205,59.7607747535,spr_backupper,001,Fr12,
,Auto,frischen,am,kaltem,leider,Krams,feinem,die,mehr,um,Skandal,wurden,"Zeit,","nachgewiesen,",unzureichenden,350,elektrische,der,im,klassischen,geschleudert.,die,purem,deren,unzureichenden,serviert.,Trinkwassers.,hat,liegen,Wäsche.,salziger,eine,einem,frisches,Lärm,"reichem,",sauberen,Wetter,hat,roten,Störenfriede,im,Lärm,sie,eine,Glas,noch,ziemlich,gelegentlichen,vor,zusätzlichem,roten,sie,derer,Mann,harten,monatlichem,des,einem,liegen,künftigem,täglichem,minimalem,die,den,Bundespräsident.,350,was,Skandals,serviert.,Glas,Störenfriede,feinem,des,mehr,ungefähr,geschleudert.,"frischem,",elektrischer,hätten,Trinkwasser.,auf,wurden,auf,würden,Wetters,von,Kram,noch,leider,Wäsche.,einen,seltenem,immer,war,weichem,salzige,Tiere,,,,,,,,,,,,,,,,,,,,,,,3,0,3,0,0,5,5,5,,,,,,,,,space,0.452274084091,,,,,2017_Jan_27_1205,59.7607747535,spr_backupper,001,Fr12,
,mehr,Grases,Hauptbahnhof.,Abduschen,nichts,aus,dichten,Flut,als,die,wiedergewählt.,verschrottet.,um,dass,Helmen,ml,Energie.,Soldaten,Müll.,Schmuck,nan,er,Alkohol,sie,Helmen,nan,nan,den,die,nan,Wurst,große,Esslöffel,Gras,um,goldenen,Kraftstoff,die,den,Planet,jeden.,Müll.,um,defekt,große,köstlicher,eine,"vermiest,",Besucher.,Dezember,schwarzem,Planeten,defekt,sie,mehr,Schaumstoff,Taschengeld,Herrn,Esslöffel,die,Einkommen,grünen,täglichen,Stimmung,Soldaten,nan,ml,Tupperware,wiedergewählt.,nan,köstlichen,jeden.,Kunsteis,Herrn,als,drei,nan,kaltem,Energie.,seiner,nan,jeden,verschrottet.,jeden,seiner,die,den,aus,eine,nichts,nan,Besucher.,dichten,ruhig,aus,Untergrund,Wurst,artgerecht,,,,,,,,,,,,,,,,,,,,,,,3,0,3,0,0,6,6,6,,,,,,,,,space,0.289575099945,,,,,2017_Jan_27_1205,59.7607747535,spr_backupper,001,Fr12,
,,,,,,,,,,,,,,,,,,,,,,,,,,,,,,,,,,,,,,,,,,,,,,,,,,,,,,,,,,,,,,,,,,,,,,,,,,,,,,,,,,,,,,,,,,,,,,,,,,,,,,,,,,,,,,,,,,,,,,,,,3,0,3,0,,,,,,,,,,,,,,,space,j,3.20838809013,0.487962007523,2017_Jan_27_1205,59.7607747535,spr_backupper,001,Fr12,
,Wir,Wir,Die,Die,Außer,Wir,Er,Als,In,In,Er,Die,Jetzt,In,Die,In,Die,Bei,Viele,Die,Es,Die,Die,Es,Die,Beträchtliche,Sie,Nicht,Am,Dort,Ich,Mit,Er,Wir,Man,Das,Wir,Sie,Nicht,Im,Außer,Viele,Man,Die,Mit,Bei,Sie,Es,Wir,Unter,Die,Im,Die,Es,Wir,Alle,Jugendliche,Die,Er,Am,Manche,Ich,Ihr,Dass,Bei,Walter,In,Die,Er,Beträchtliche,Bei,Außer,Die,Die,In,Der,Es,Sie,Die,Die,Sie,100,Die,100,Die,Sie,In,Wir,Sie,Außer,Dort,Wir,Danach,Fernab,Die,Jungtiere,Ich,In,,,,,,,,,,,,,,,,,,,,,,,4,0,4,0,0,0,0,0,,,,,,,space,1.22432899475,space,0.000478029251099,,,,,2017_Jan_27_1205,59.7607747535,spr_backupper,001,Fr12,
,übergaben,mussten,Linie,Formen,das,haben,hat,die,meinem,der,wurde,Autos,ist,einer,Kinder,den,Schule,der,Tonnen,Stücke,wurden,Uhr,Lösung,waren,Kinder,Stücke,verbrauchen,ein,äußersten,türmen,nehme,dieser,stellt,mussten,machte,Tuch,konnten,verlassen,ein,Fernrohr,dem,Tonnen,machte,Uhr,dieser,unserer,hatte,hat,hatten,keinen,müden,Fernrohr,Uhr,waren,übergaben,Betten,können,Gäste,stellt,äußeren,Kreditnehmer,wurde,Blutdruck,es,der,Scheel,den,Teilnehmerinnen,wurde,Stücke,unserer,den,Eislaufbahnen,Gäste,meinem,Flug,wurden,haben,Schule,Schuhe,verbrauchen,g,Autos,g,Schuhe,verlassen,der,haben,hatte,dem,türmen,hatten,wurde,des,"Uhr,",sollten,nehme,diesem,,,,,,,,,,,,,,,,,,,,,,,4,0,4,0,0,1,1,1,,,,,,,,,space,0.37356710434,,,,,2017_Jan_27_1205,59.7607747535,spr_backupper,001,Fr12,
,dem,uns,101,wurden,Essen,jede,ein,Sonne,Studium,Tat,trotz,beider,genau,Studie,fuhren,Kakao,verbraucht,Feier,gebrauchte,wurden,Eimer,war,wird,nur,fuhren,saftigen,60,Tropfen,Rand,sich,eine,Methode,die,uns,mal,wurde,dann,wegen,Tropfen,sahen,Bürgermeister,gebrauchter,mal,schlug,Methode,Ankunft,keine,uns,in,Umständen,Teilnehmer,sahen,schlug,nur,das,wurden,Kleidung,suchen,die,Rand,sind,damals,kann,"regnete,",Feier,war,Kakao,wussten,trotz,saftiges,Ankunft,Bürgermeister,wurden,suchen,Studium,zum,Eimer,die,verbraucht,in,60,braunen,beider,brauner,in,wegen,Tat,jede,keine,Essen,sich,in,die,Rummels,die,immer,eine,Zirkus,,,,,,,,,,,,,,,,,,,,,,,4,0,4,0,0,2,2,2,,,,,,,,,space,0.352248191833,,,,,2017_Jan_27_1205,59.7607747535,spr_backupper,001,Fr12,
,Mann,durch,hält,unter,kann,Menge,Hemd,"unterging,",las,wissen,dem,beteiligter,die,wurde,mit,gehören,260.000,gedachte,Kleidung,aus,rote,aus,mit,kleinere,mit,Fleischs,Liter,königlichen,der,Berge,große,kann,Masse,durch,wieder,dann,mit,dem,königliches,wir,beschuldigten,Kleidung,wieder,"sporadisch,",kann,stand,Lust,die,Dänemark,können,wurden,wir,"sporadisch,",kleinere,Auto,mit,bei,die,Masse,der,mit,schnell,schon,hat,gedachte,der,gehören,überwiegend,des,Fleisch,stand,beschuldigten,mit,die,habe,Mond,roter,Erlebnisse,260.000,Größe,Liter,Zuckers,beteiligten,Zucker,Größe,des,wissen,Menge,Lust,kann,Berge,Dänemark,Leinwand,wurde,er,auf,große,werden,,,,,,,,,,,,,,,,,,,,,,,4,0,4,0,0,3,3,3,,,,,,,,,space,0.276430130005,,,,,2017_Jan_27_1205,59.7607747535,spr_backupper,001,Fr12,
,das,Büschel,nicht,"regelmäßigem,",ich,alten,aus,war,ich,wir,bekannten,Fahrer,richtige,jetzt,solchen,immer,Kilowattstunden,man,landen,"wertvollem,",Farbe,"Japan,","reichlichem,","Delikte,",solch,wurden,sprudelnden,Bluts,Stadt,schmutziger,Packung,man,mit,Büschel,viel,mit,"minimalem,",schönen,Blut,den,die,landen,viel,obschon,man,ein,auf,Stimmung,einen,Neuwahlen,mit,den,obwohl,"Delikte,",dem,"üblichem,",ausreichendem,Wohnung,mit,Stadt,"sämtlichem,",dank,bei,uns,man,vierte,immer,"nicht,",bekannten,wurden,ein,die,dauerhaftem,Wohnung,ich,dauerte,Farbe,bei,Kilowattstunden,36,sprudelndes,sind,Fahrer,sind,36,schönen,wir,alten,auf,ich,schmutzige,gelegentlich,aus,schon,"trug,",warmem,Packung,die,,,,,,,,,,,,,,,,,,,,,,,4,0,4,0,0,4,4,4,,,,,,,,,space,0.503189086914,,,,,2017_Jan_27_1205,59.7607747535,spr_backupper,001,Fr12,
,Auto,frischen,am,kaltem,leider,Krams,feinem,die,mehr,um,Skandal,wurden,"Zeit,","nachgewiesen,",unzureichenden,350,elektrische,der,im,klassischen,geschleudert.,die,purem,deren,unzureichenden,serviert.,Trinkwassers.,hat,liegen,Wäsche.,salziger,eine,einem,frisches,Lärm,"reichem,",sauberen,Wetter,hat,roten,Störenfriede,im,Lärm,sie,eine,Glas,noch,ziemlich,gelegentlichen,vor,zusätzlichem,roten,sie,derer,Mann,harten,monatlichem,des,einem,liegen,künftigem,täglichem,minimalem,die,den,Bundespräsident.,350,was,Skandals,serviert.,Glas,Störenfriede,feinem,des,mehr,ungefähr,geschleudert.,"frischem,",elektrischer,hätten,Trinkwasser.,auf,wurden,auf,würden,Wetters,von,Kram,noch,leider,Wäsche.,einen,seltenem,immer,war,weichem,salzige,Tiere,,,,,,,,,,,,,,,,,,,,,,,4,0,4,0,0,5,5,5,,,,,,,,,space,0.419712781906,,,,,2017_Jan_27_1205,59.7607747535,spr_backupper,001,Fr12,
,mehr,Grases,Hauptbahnhof.,Abduschen,nichts,aus,dichten,Flut,als,die,wiedergewählt.,verschrottet.,um,dass,Helmen,ml,Energie.,Soldaten,Müll.,Schmuck,nan,er,Alkohol,sie,Helmen,nan,nan,den,die,nan,Wurst,große,Esslöffel,Gras,um,goldenen,Kraftstoff,die,den,Planet,jeden.,Müll.,um,defekt,große,köstlicher,eine,"vermiest,",Besucher.,Dezember,schwarzem,Planeten,defekt,sie,mehr,Schaumstoff,Taschengeld,Herrn,Esslöffel,die,Einkommen,grünen,täglichen,Stimmung,Soldaten,nan,ml,Tupperware,wiedergewählt.,nan,köstlichen,jeden.,Kunsteis,Herrn,als,drei,nan,kaltem,Energie.,seiner,nan,jeden,verschrottet.,jeden,seiner,die,den,aus,eine,nichts,nan,Besucher.,dichten,ruhig,aus,Untergrund,Wurst,artgerecht,,,,,,,,,,,,,,,,,,,,,,,4,0,4,0,0,6,6,6,,,,,,,,,space,0.356966972351,,,,,2017_Jan_27_1205,59.7607747535,spr_backupper,001,Fr12,
,,,,,,,,,,,,,,,,,,,,,,,,,,,,,,,,,,,,,,,,,,,,,,,,,,,,,,,,,,,,,,,,,,,,,,,,,,,,,,,,,,,,,,,,,,,,,,,,,,,,,,,,,,,,,,,,,,,,,,,,,4,0,4,0,,,,,,,,,,,,,,,space,n,1.47869586945,0.436780929565,2017_Jan_27_1205,59.7607747535,spr_backupper,001,Fr12,
,Wir,Wir,Die,Die,Außer,Wir,Er,Als,In,In,Er,Die,Jetzt,In,Die,In,Die,Bei,Viele,Die,Es,Die,Die,Es,Die,Beträchtliche,Sie,Nicht,Am,Dort,Ich,Mit,Er,Wir,Man,Das,Wir,Sie,Nicht,Im,Außer,Viele,Man,Die,Mit,Bei,Sie,Es,Wir,Unter,Die,Im,Die,Es,Wir,Alle,Jugendliche,Die,Er,Am,Manche,Ich,Ihr,Dass,Bei,Walter,In,Die,Er,Beträchtliche,Bei,Außer,Die,Die,In,Der,Es,Sie,Die,Die,Sie,100,Die,100,Die,Sie,In,Wir,Sie,Außer,Dort,Wir,Danach,Fernab,Die,Jungtiere,Ich,In,,,,,,,,,,,,,,,,,,,,,,,5,0,5,0,0,0,0,0,,,,,,,space,0.939248085022,space,0.30939412117,,,,,2017_Jan_27_1205,59.7607747535,spr_backupper,001,Fr12,
,übergaben,mussten,Linie,Formen,das,haben,hat,die,meinem,der,wurde,Autos,ist,einer,Kinder,den,Schule,der,Tonnen,Stücke,wurden,Uhr,Lösung,waren,Kinder,Stücke,verbrauchen,ein,äußersten,türmen,nehme,dieser,stellt,mussten,machte,Tuch,konnten,verlassen,ein,Fernrohr,dem,Tonnen,machte,Uhr,dieser,unserer,hatte,hat,hatten,keinen,müden,Fernrohr,Uhr,waren,übergaben,Betten,können,Gäste,stellt,äußeren,Kreditnehmer,wurde,Blutdruck,es,der,Scheel,den,Teilnehmerinnen,wurde,Stücke,unserer,den,Eislaufbahnen,Gäste,meinem,Flug,wurden,haben,Schule,Schuhe,verbrauchen,g,Autos,g,Schuhe,verlassen,der,haben,hatte,dem,türmen,hatten,wurde,des,"Uhr,",sollten,nehme,diesem,,,,,,,,,,,,,,,,,,,,,,,5,0,5,0,0,1,1,1,,,,,,,,,space,0.343679189682,,,,,2017_Jan_27_1205,59.7607747535,spr_backupper,001,Fr12,
,dem,uns,101,wurden,Essen,jede,ein,Sonne,Studium,Tat,trotz,beider,genau,Studie,fuhren,Kakao,verbraucht,Feier,gebrauchte,wurden,Eimer,war,wird,nur,fuhren,saftigen,60,Tropfen,Rand,sich,eine,Methode,die,uns,mal,wurde,dann,wegen,Tropfen,sahen,Bürgermeister,gebrauchter,mal,schlug,Methode,Ankunft,keine,uns,in,Umständen,Teilnehmer,sahen,schlug,nur,das,wurden,Kleidung,suchen,die,Rand,sind,damals,kann,"regnete,",Feier,war,Kakao,wussten,trotz,saftiges,Ankunft,Bürgermeister,wurden,suchen,Studium,zum,Eimer,die,verbraucht,in,60,braunen,beider,brauner,in,wegen,Tat,jede,keine,Essen,sich,in,die,Rummels,die,immer,eine,Zirkus,,,,,,,,,,,,,,,,,,,,,,,5,0,5,0,0,2,2,2,,,,,,,,,space,0.250571012497,,,,,2017_Jan_27_1205,59.7607747535,spr_backupper,001,Fr12,
,Mann,durch,hält,unter,kann,Menge,Hemd,"unterging,",las,wissen,dem,beteiligter,die,wurde,mit,gehören,260.000,gedachte,Kleidung,aus,rote,aus,mit,kleinere,mit,Fleischs,Liter,königlichen,der,Berge,große,kann,Masse,durch,wieder,dann,mit,dem,königliches,wir,beschuldigten,Kleidung,wieder,"sporadisch,",kann,stand,Lust,die,Dänemark,können,wurden,wir,"sporadisch,",kleinere,Auto,mit,bei,die,Masse,der,mit,schnell,schon,hat,gedachte,der,gehören,überwiegend,des,Fleisch,stand,beschuldigten,mit,die,habe,Mond,roter,Erlebnisse,260.000,Größe,Liter,Zuckers,beteiligten,Zucker,Größe,des,wissen,Menge,Lust,kann,Berge,Dänemark,Leinwand,wurde,er,auf,große,werden,,,,,,,,,,,,,,,,,,,,,,,5,0,5,0,0,3,3,3,,,,,,,,,space,0.330858945847,,,,,2017_Jan_27_1205,59.7607747535,spr_backupper,001,Fr12,
,das,Büschel,nicht,"regelmäßigem,",ich,alten,aus,war,ich,wir,bekannten,Fahrer,richtige,jetzt,solchen,immer,Kilowattstunden,man,landen,"wertvollem,",Farbe,"Japan,","reichlichem,","Delikte,",solch,wurden,sprudelnden,Bluts,Stadt,schmutziger,Packung,man,mit,Büschel,viel,mit,"minimalem,",schönen,Blut,den,die,landen,viel,obschon,man,ein,auf,Stimmung,einen,Neuwahlen,mit,den,obwohl,"Delikte,",dem,"üblichem,",ausreichendem,Wohnung,mit,Stadt,"sämtlichem,",dank,bei,uns,man,vierte,immer,"nicht,",bekannten,wurden,ein,die,dauerhaftem,Wohnung,ich,dauerte,Farbe,bei,Kilowattstunden,36,sprudelndes,sind,Fahrer,sind,36,schönen,wir,alten,auf,ich,schmutzige,gelegentlich,aus,schon,"trug,",warmem,Packung,die,,,,,,,,,,,,,,,,,,,,,,,5,0,5,0,0,4,4,4,,,,,,,,,space,0.517288923264,,,,,2017_Jan_27_1205,59.7607747535,spr_backupper,001,Fr12,
,Auto,frischen,am,kaltem,leider,Krams,feinem,die,mehr,um,Skandal,wurden,"Zeit,","nachgewiesen,",unzureichenden,350,elektrische,der,im,klassischen,geschleudert.,die,purem,deren,unzureichenden,serviert.,Trinkwassers.,hat,liegen,Wäsche.,salziger,eine,einem,frisches,Lärm,"reichem,",sauberen,Wetter,hat,roten,Störenfriede,im,Lärm,sie,eine,Glas,noch,ziemlich,gelegentlichen,vor,zusätzlichem,roten,sie,derer,Mann,harten,monatlichem,des,einem,liegen,künftigem,täglichem,minimalem,die,den,Bundespräsident.,350,was,Skandals,serviert.,Glas,Störenfriede,feinem,des,mehr,ungefähr,geschleudert.,"frischem,",elektrischer,hätten,Trinkwasser.,auf,wurden,auf,würden,Wetters,von,Kram,noch,leider,Wäsche.,einen,seltenem,immer,war,weichem,salzige,Tiere,,,,,,,,,,,,,,,,,,,,,,,5,0,5,0,0,5,5,5,,,,,,,,,space,0.444827079773,,,,,2017_Jan_27_1205,59.7607747535,spr_backupper,001,Fr12,
,mehr,Grases,Hauptbahnhof.,Abduschen,nichts,aus,dichten,Flut,als,die,wiedergewählt.,verschrottet.,um,dass,Helmen,ml,Energie.,Soldaten,Müll.,Schmuck,nan,er,Alkohol,sie,Helmen,nan,nan,den,die,nan,Wurst,große,Esslöffel,Gras,um,goldenen,Kraftstoff,die,den,Planet,jeden.,Müll.,um,defekt,große,köstlicher,eine,"vermiest,",Besucher.,Dezember,schwarzem,Planeten,defekt,sie,mehr,Schaumstoff,Taschengeld,Herrn,Esslöffel,die,Einkommen,grünen,täglichen,Stimmung,Soldaten,nan,ml,Tupperware,wiedergewählt.,nan,köstlichen,jeden.,Kunsteis,Herrn,als,drei,nan,kaltem,Energie.,seiner,nan,jeden,verschrottet.,jeden,seiner,die,den,aus,eine,nichts,nan,Besucher.,dichten,ruhig,aus,Untergrund,Wurst,artgerecht,,,,,,,,,,,,,,,,,,,,,,,5,0,5,0,0,6,6,6,,,,,,,,,space,0.395257949829,,,,,2017_Jan_27_1205,59.7607747535,spr_backupper,001,Fr12,
,als,zwängen.,nan,gehärtet.,mitbringen.,dem,Stoff,zurückgekehrt.,einmal,Probleme,nan,nan,Nadelhölzer,das,zur,warme,nan,des,nan,umgearbeitet.,nan,trug.,verdünnt.,überführt,zur,nan,nan,Boden,Slums.,nan,mit,Menge,warmen,zwängen.,jede,Besatz,fahren.,Wohnung.,Boden,ganz,nan,nan,jede,war.,Menge,Wein,Sammlung,dass,nan,stattfinden.,Kaffee,ganz,war.,überführt,als,gefertigt.,selber,Gantenbein.,warmem,Slums.,haftbar.,Tee,Einsatz,ziemlich,des,nan,warmer,ist.,nan,nan,Weins,nan,eingesprüht.,Gantenbeins.,einmal,Tage.,nan,Saft,nan,Frau,nan,Fall,nan,Fall,Frau,Wohnung.,Problemen,dem,Sammlung,mitbringen.,nan,nan,Gewebe,diskutiert.,Japan.,liegen.,mit,gehalten.,,,,,,,,,,,,,,,,,,,,,,,5,0,5,0,0,7,7,7,,,,,,,,,space,0.437311887741,,,,,2017_Jan_27_1205,59.7607747535,spr_backupper,001,Fr12,
,gerne.,nan,nan,nan,nan,Haus,gefertigt.,nan,Rilke.,im,nan,nan,umzusetzen.,Medikament,Schule.,Milch.,nan,zweiten,nan,nan,nan,nan,nan,wurden.,Schule.,nan,nan,berührt.,nan,nan,an,dunkle,Honigs,nan,Menge,rekonstruiert.,nan,nan,berührt.,deutlich.,nan,nan,Menge,nan,dunkler,schon,dummer,es,nan,nan,wiederbelebt.,deutlich.,nan,wurden.,gerne.,nan,kaufen.,nan,Honig,nan,nan,wieder,sinken.,vermiest.,zweiten,nan,Milch.,nan,nan,nan,schon,nan,nan,nan,Rilke,nan,nan,besprochen.,nan,gepasst.,nan,genug.,nan,genug.,gepasst,nan,im,Haus,dumme,nan,nan,nan,wiederhergestellt.,nan,nan,nan,an,nan,,,,,,,,,,,,,,,,,,,,,,,5,0,5,0,0,8,8,8,,,,,,,,,space,0.377043962479,,,,,2017_Jan_27_1205,59.7607747535,spr_backupper,001,Fr12,
,nan,nan,nan,nan,nan,geschafft.,nan,nan,nan,Landkreis.,nan,nan,nan,nicht,nan,nan,nan,Weltkriegs.,nan,nan,nan,nan,nan,nan,nan,nan,nan,nan,nan,nan,den,Materie,her.,nan,heißer,nan,nan,nan,nan,nan,nan,nan,heiße,nan,Materie,auf,Sprüche.,regnete.,nan,nan,nan,nan,nan,nan,nan,nan,nan,nan,her.,nan,nan,fit.,nan,nan,Weltkriegs.,nan,nan,nan,nan,nan,auf,nan,nan,nan,gelesen.,nan,nan,nan,nan,nan,nan,nan,nan,nan,haben.,nan,Landkreis.,geschafft.,Sprüche.,nan,nan,nan,nan,nan,nan,nan,den,nan,,,,,,,,,,,,,,,,,,,,,,,5,0,5,0,0,9,9,9,,,,,,,,,space,0.534818887711,,,,,2017_Jan_27_1205,59.7607747535,spr_backupper,001,Fr12,
,,,,,,,,,,,,,,,,,,,,,,,,,,,,,,,,,,,,,,,,,,,,,,,,,,,,,,,,,,,,,,,,,,,,,,,,,,,,,,,,,,,,,,,,,,,,,,,,,,,,,,,,,,,,,,,,,,,,,,,,,5,0,5,0,,,,,,,,,,,,,,,None,j,3.36853384972,,2017_Jan_27_1205,59.7607747535,spr_backupper,001,Fr12,
,Wir,Wir,Die,Die,Außer,Wir,Er,Als,In,In,Er,Die,Jetzt,In,Die,In,Die,Bei,Viele,Die,Es,Die,Die,Es,Die,Beträchtliche,Sie,Nicht,Am,Dort,Ich,Mit,Er,Wir,Man,Das,Wir,Sie,Nicht,Im,Außer,Viele,Man,Die,Mit,Bei,Sie,Es,Wir,Unter,Die,Im,Die,Es,Wir,Alle,Jugendliche,Die,Er,Am,Manche,Ich,Ihr,Dass,Bei,Walter,In,Die,Er,Beträchtliche,Bei,Außer,Die,Die,In,Der,Es,Sie,Die,Die,Sie,100,Die,100,Die,Sie,In,Wir,Sie,Außer,Dort,Wir,Danach,Fernab,Die,Jungtiere,Ich,In,,,,,,,,,,,,,,,,,,,,,,,6,0,6,0,0,0,0,0,,,,,,,space,1.45920395851,space,0.405986070633,,,,,2017_Jan_27_1205,59.7607747535,spr_backupper,001,Fr12,
,übergaben,mussten,Linie,Formen,das,haben,hat,die,meinem,der,wurde,Autos,ist,einer,Kinder,den,Schule,der,Tonnen,Stücke,wurden,Uhr,Lösung,waren,Kinder,Stücke,verbrauchen,ein,äußersten,türmen,nehme,dieser,stellt,mussten,machte,Tuch,konnten,verlassen,ein,Fernrohr,dem,Tonnen,machte,Uhr,dieser,unserer,hatte,hat,hatten,keinen,müden,Fernrohr,Uhr,waren,übergaben,Betten,können,Gäste,stellt,äußeren,Kreditnehmer,wurde,Blutdruck,es,der,Scheel,den,Teilnehmerinnen,wurde,Stücke,unserer,den,Eislaufbahnen,Gäste,meinem,Flug,wurden,haben,Schule,Schuhe,verbrauchen,g,Autos,g,Schuhe,verlassen,der,haben,hatte,dem,türmen,hatten,wurde,des,"Uhr,",sollten,nehme,diesem,,,,,,,,,,,,,,,,,,,,,,,6,0,6,0,0,1,1,1,,,,,,,,,space,0.256619930267,,,,,2017_Jan_27_1205,59.7607747535,spr_backupper,001,Fr12,
,dem,uns,101,wurden,Essen,jede,ein,Sonne,Studium,Tat,trotz,beider,genau,Studie,fuhren,Kakao,verbraucht,Feier,gebrauchte,wurden,Eimer,war,wird,nur,fuhren,saftigen,60,Tropfen,Rand,sich,eine,Methode,die,uns,mal,wurde,dann,wegen,Tropfen,sahen,Bürgermeister,gebrauchter,mal,schlug,Methode,Ankunft,keine,uns,in,Umständen,Teilnehmer,sahen,schlug,nur,das,wurden,Kleidung,suchen,die,Rand,sind,damals,kann,"regnete,",Feier,war,Kakao,wussten,trotz,saftiges,Ankunft,Bürgermeister,wurden,suchen,Studium,zum,Eimer,die,verbraucht,in,60,braunen,beider,brauner,in,wegen,Tat,jede,keine,Essen,sich,in,die,Rummels,die,immer,eine,Zirkus,,,,,,,,,,,,,,,,,,,,,,,6,0,6,0,0,2,2,2,,,,,,,,,space,0.252182006836,,,,,2017_Jan_27_1205,59.7607747535,spr_backupper,001,Fr12,
,Mann,durch,hält,unter,kann,Menge,Hemd,"unterging,",las,wissen,dem,beteiligter,die,wurde,mit,gehören,260.000,gedachte,Kleidung,aus,rote,aus,mit,kleinere,mit,Fleischs,Liter,königlichen,der,Berge,große,kann,Masse,durch,wieder,dann,mit,dem,königliches,wir,beschuldigten,Kleidung,wieder,"sporadisch,",kann,stand,Lust,die,Dänemark,können,wurden,wir,"sporadisch,",kleinere,Auto,mit,bei,die,Masse,der,mit,schnell,schon,hat,gedachte,der,gehören,überwiegend,des,Fleisch,stand,beschuldigten,mit,die,habe,Mond,roter,Erlebnisse,260.000,Größe,Liter,Zuckers,beteiligten,Zucker,Größe,des,wissen,Menge,Lust,kann,Berge,Dänemark,Leinwand,wurde,er,auf,große,werden,,,,,,,,,,,,,,,,,,,,,,,6,0,6,0,0,3,3,3,,,,,,,,,space,0.45272397995,,,,,2017_Jan_27_1205,59.7607747535,spr_backupper,001,Fr12,
,das,Büschel,nicht,"regelmäßigem,",ich,alten,aus,war,ich,wir,bekannten,Fahrer,richtige,jetzt,solchen,immer,Kilowattstunden,man,landen,"wertvollem,",Farbe,"Japan,","reichlichem,","Delikte,",solch,wurden,sprudelnden,Bluts,Stadt,schmutziger,Packung,man,mit,Büschel,viel,mit,"minimalem,",schönen,Blut,den,die,landen,viel,obschon,man,ein,auf,Stimmung,einen,Neuwahlen,mit,den,obwohl,"Delikte,",dem,"üblichem,",ausreichendem,Wohnung,mit,Stadt,"sämtlichem,",dank,bei,uns,man,vierte,immer,"nicht,",bekannten,wurden,ein,die,dauerhaftem,Wohnung,ich,dauerte,Farbe,bei,Kilowattstunden,36,sprudelndes,sind,Fahrer,sind,36,schönen,wir,alten,auf,ich,schmutzige,gelegentlich,aus,schon,"trug,",warmem,Packung,die,,,,,,,,,,,,,,,,,,,,,,,6,0,6,0,0,4,4,4,,,,,,,,,space,0.261451005936,,,,,2017_Jan_27_1205,59.7607747535,spr_backupper,001,Fr12,
,Auto,frischen,am,kaltem,leider,Krams,feinem,die,mehr,um,Skandal,wurden,"Zeit,","nachgewiesen,",unzureichenden,350,elektrische,der,im,klassischen,geschleudert.,die,purem,deren,unzureichenden,serviert.,Trinkwassers.,hat,liegen,Wäsche.,salziger,eine,einem,frisches,Lärm,"reichem,",sauberen,Wetter,hat,roten,Störenfriede,im,Lärm,sie,eine,Glas,noch,ziemlich,gelegentlichen,vor,zusätzlichem,roten,sie,derer,Mann,harten,monatlichem,des,einem,liegen,künftigem,täglichem,minimalem,die,den,Bundespräsident.,350,was,Skandals,serviert.,Glas,Störenfriede,feinem,des,mehr,ungefähr,geschleudert.,"frischem,",elektrischer,hätten,Trinkwasser.,auf,wurden,auf,würden,Wetters,von,Kram,noch,leider,Wäsche.,einen,seltenem,immer,war,weichem,salzige,Tiere,,,,,,,,,,,,,,,,,,,,,,,6,0,6,0,0,5,5,5,,,,,,,,,space,0.269628047943,,,,,2017_Jan_27_1205,59.7607747535,spr_backupper,001,Fr12,
,mehr,Grases,Hauptbahnhof.,Abduschen,nichts,aus,dichten,Flut,als,die,wiedergewählt.,verschrottet.,um,dass,Helmen,ml,Energie.,Soldaten,Müll.,Schmuck,nan,er,Alkohol,sie,Helmen,nan,nan,den,die,nan,Wurst,große,Esslöffel,Gras,um,goldenen,Kraftstoff,die,den,Planet,jeden.,Müll.,um,defekt,große,köstlicher,eine,"vermiest,",Besucher.,Dezember,schwarzem,Planeten,defekt,sie,mehr,Schaumstoff,Taschengeld,Herrn,Esslöffel,die,Einkommen,grünen,täglichen,Stimmung,Soldaten,nan,ml,Tupperware,wiedergewählt.,nan,köstlichen,jeden.,Kunsteis,Herrn,als,drei,nan,kaltem,Energie.,seiner,nan,jeden,verschrottet.,jeden,seiner,die,den,aus,eine,nichts,nan,Besucher.,dichten,ruhig,aus,Untergrund,Wurst,artgerecht,,,,,,,,,,,,,,,,,,,,,,,6,0,6,0,0,6,6,6,,,,,,,,,space,0.275018215179,,,,,2017_Jan_27_1205,59.7607747535,spr_backupper,001,Fr12,
,als,zwängen.,nan,gehärtet.,mitbringen.,dem,Stoff,zurückgekehrt.,einmal,Probleme,nan,nan,Nadelhölzer,das,zur,warme,nan,des,nan,umgearbeitet.,nan,trug.,verdünnt.,überführt,zur,nan,nan,Boden,Slums.,nan,mit,Menge,warmen,zwängen.,jede,Besatz,fahren.,Wohnung.,Boden,ganz,nan,nan,jede,war.,Menge,Wein,Sammlung,dass,nan,stattfinden.,Kaffee,ganz,war.,überführt,als,gefertigt.,selber,Gantenbein.,warmem,Slums.,haftbar.,Tee,Einsatz,ziemlich,des,nan,warmer,ist.,nan,nan,Weins,nan,eingesprüht.,Gantenbeins.,einmal,Tage.,nan,Saft,nan,Frau,nan,Fall,nan,Fall,Frau,Wohnung.,Problemen,dem,Sammlung,mitbringen.,nan,nan,Gewebe,diskutiert.,Japan.,liegen.,mit,gehalten.,,,,,,,,,,,,,,,,,,,,,,,6,0,6,0,0,7,7,7,,,,,,,,,space,0.284879922867,,,,,2017_Jan_27_1205,59.7607747535,spr_backupper,001,Fr12,
,gerne.,nan,nan,nan,nan,Haus,gefertigt.,nan,Rilke.,im,nan,nan,umzusetzen.,Medikament,Schule.,Milch.,nan,zweiten,nan,nan,nan,nan,nan,wurden.,Schule.,nan,nan,berührt.,nan,nan,an,dunkle,Honigs,nan,Menge,rekonstruiert.,nan,nan,berührt.,deutlich.,nan,nan,Menge,nan,dunkler,schon,dummer,es,nan,nan,wiederbelebt.,deutlich.,nan,wurden.,gerne.,nan,kaufen.,nan,Honig,nan,nan,wieder,sinken.,vermiest.,zweiten,nan,Milch.,nan,nan,nan,schon,nan,nan,nan,Rilke,nan,nan,besprochen.,nan,gepasst.,nan,genug.,nan,genug.,gepasst,nan,im,Haus,dumme,nan,nan,nan,wiederhergestellt.,nan,nan,nan,an,nan,,,,,,,,,,,,,,,,,,,,,,,6,0,6,0,0,8,8,8,,,,,,,,,space,0.336667060852,,,,,2017_Jan_27_1205,59.7607747535,spr_backupper,001,Fr12,
,,,,,,,,,,,,,,,,,,,,,,,,,,,,,,,,,,,,,,,,,,,,,,,,,,,,,,,,,,,,,,,,,,,,,,,,,,,,,,,,,,,,,,,,,,,,,,,,,,,,,,,,,,,,,,,,,,,,,,,,,6,0,6,0,,,,,,,,,,,,,,,space,n,5.77120804787,1.45981407166,2017_Jan_27_1205,59.7607747535,spr_backupper,001,Fr12,
,Wir,Wir,Die,Die,Außer,Wir,Er,Als,In,In,Er,Die,Jetzt,In,Die,In,Die,Bei,Viele,Die,Es,Die,Die,Es,Die,Beträchtliche,Sie,Nicht,Am,Dort,Ich,Mit,Er,Wir,Man,Das,Wir,Sie,Nicht,Im,Außer,Viele,Man,Die,Mit,Bei,Sie,Es,Wir,Unter,Die,Im,Die,Es,Wir,Alle,Jugendliche,Die,Er,Am,Manche,Ich,Ihr,Dass,Bei,Walter,In,Die,Er,Beträchtliche,Bei,Außer,Die,Die,In,Der,Es,Sie,Die,Die,Sie,100,Die,100,Die,Sie,In,Wir,Sie,Außer,Dort,Wir,Danach,Fernab,Die,Jungtiere,Ich,In,,,,,,,,,,,,,,,,,,,,,,,7,0,7,0,0,0,0,0,,,,,,,space,0.788493871689,space,0.403901100159,,,,,2017_Jan_27_1205,59.7607747535,spr_backupper,001,Fr12,
,übergaben,mussten,Linie,Formen,das,haben,hat,die,meinem,der,wurde,Autos,ist,einer,Kinder,den,Schule,der,Tonnen,Stücke,wurden,Uhr,Lösung,waren,Kinder,Stücke,verbrauchen,ein,äußersten,türmen,nehme,dieser,stellt,mussten,machte,Tuch,konnten,verlassen,ein,Fernrohr,dem,Tonnen,machte,Uhr,dieser,unserer,hatte,hat,hatten,keinen,müden,Fernrohr,Uhr,waren,übergaben,Betten,können,Gäste,stellt,äußeren,Kreditnehmer,wurde,Blutdruck,es,der,Scheel,den,Teilnehmerinnen,wurde,Stücke,unserer,den,Eislaufbahnen,Gäste,meinem,Flug,wurden,haben,Schule,Schuhe,verbrauchen,g,Autos,g,Schuhe,verlassen,der,haben,hatte,dem,türmen,hatten,wurde,des,"Uhr,",sollten,nehme,diesem,,,,,,,,,,,,,,,,,,,,,,,7,0,7,0,0,1,1,1,,,,,,,,,space,0.350623846054,,,,,2017_Jan_27_1205,59.7607747535,spr_backupper,001,Fr12,
,dem,uns,101,wurden,Essen,jede,ein,Sonne,Studium,Tat,trotz,beider,genau,Studie,fuhren,Kakao,verbraucht,Feier,gebrauchte,wurden,Eimer,war,wird,nur,fuhren,saftigen,60,Tropfen,Rand,sich,eine,Methode,die,uns,mal,wurde,dann,wegen,Tropfen,sahen,Bürgermeister,gebrauchter,mal,schlug,Methode,Ankunft,keine,uns,in,Umständen,Teilnehmer,sahen,schlug,nur,das,wurden,Kleidung,suchen,die,Rand,sind,damals,kann,"regnete,",Feier,war,Kakao,wussten,trotz,saftiges,Ankunft,Bürgermeister,wurden,suchen,Studium,zum,Eimer,die,verbraucht,in,60,braunen,beider,brauner,in,wegen,Tat,jede,keine,Essen,sich,in,die,Rummels,die,immer,eine,Zirkus,,,,,,,,,,,,,,,,,,,,,,,7,0,7,0,0,2,2,2,,,,,,,,,space,0.395127058029,,,,,2017_Jan_27_1205,59.7607747535,spr_backupper,001,Fr12,
,Mann,durch,hält,unter,kann,Menge,Hemd,"unterging,",las,wissen,dem,beteiligter,die,wurde,mit,gehören,260.000,gedachte,Kleidung,aus,rote,aus,mit,kleinere,mit,Fleischs,Liter,königlichen,der,Berge,große,kann,Masse,durch,wieder,dann,mit,dem,königliches,wir,beschuldigten,Kleidung,wieder,"sporadisch,",kann,stand,Lust,die,Dänemark,können,wurden,wir,"sporadisch,",kleinere,Auto,mit,bei,die,Masse,der,mit,schnell,schon,hat,gedachte,der,gehören,überwiegend,des,Fleisch,stand,beschuldigten,mit,die,habe,Mond,roter,Erlebnisse,260.000,Größe,Liter,Zuckers,beteiligten,Zucker,Größe,des,wissen,Menge,Lust,kann,Berge,Dänemark,Leinwand,wurde,er,auf,große,werden,,,,,,,,,,,,,,,,,,,,,,,7,0,7,0,0,3,3,3,,,,,,,,,space,0.376263856888,,,,,2017_Jan_27_1205,59.7607747535,spr_backupper,001,Fr12,
,das,Büschel,nicht,"regelmäßigem,",ich,alten,aus,war,ich,wir,bekannten,Fahrer,richtige,jetzt,solchen,immer,Kilowattstunden,man,landen,"wertvollem,",Farbe,"Japan,","reichlichem,","Delikte,",solch,wurden,sprudelnden,Bluts,Stadt,schmutziger,Packung,man,mit,Büschel,viel,mit,"minimalem,",schönen,Blut,den,die,landen,viel,obschon,man,ein,auf,Stimmung,einen,Neuwahlen,mit,den,obwohl,"Delikte,",dem,"üblichem,",ausreichendem,Wohnung,mit,Stadt,"sämtlichem,",dank,bei,uns,man,vierte,immer,"nicht,",bekannten,wurden,ein,die,dauerhaftem,Wohnung,ich,dauerte,Farbe,bei,Kilowattstunden,36,sprudelndes,sind,Fahrer,sind,36,schönen,wir,alten,auf,ich,schmutzige,gelegentlich,aus,schon,"trug,",warmem,Packung,die,,,,,,,,,,,,,,,,,,,,,,,7,0,7,0,0,4,4,4,,,,,,,,,space,0.374472141266,,,,,2017_Jan_27_1205,59.7607747535,spr_backupper,001,Fr12,
,Auto,frischen,am,kaltem,leider,Krams,feinem,die,mehr,um,Skandal,wurden,"Zeit,","nachgewiesen,",unzureichenden,350,elektrische,der,im,klassischen,geschleudert.,die,purem,deren,unzureichenden,serviert.,Trinkwassers.,hat,liegen,Wäsche.,salziger,eine,einem,frisches,Lärm,"reichem,",sauberen,Wetter,hat,roten,Störenfriede,im,Lärm,sie,eine,Glas,noch,ziemlich,gelegentlichen,vor,zusätzlichem,roten,sie,derer,Mann,harten,monatlichem,des,einem,liegen,künftigem,täglichem,minimalem,die,den,Bundespräsident.,350,was,Skandals,serviert.,Glas,Störenfriede,feinem,des,mehr,ungefähr,geschleudert.,"frischem,",elektrischer,hätten,Trinkwasser.,auf,wurden,auf,würden,Wetters,von,Kram,noch,leider,Wäsche.,einen,seltenem,immer,war,weichem,salzige,Tiere,,,,,,,,,,,,,,,,,,,,,,,7,0,7,0,0,5,5,5,,,,,,,,,space,0.359565973282,,,,,2017_Jan_27_1205,59.7607747535,spr_backupper,001,Fr12,
,mehr,Grases,Hauptbahnhof.,Abduschen,nichts,aus,dichten,Flut,als,die,wiedergewählt.,verschrottet.,um,dass,Helmen,ml,Energie.,Soldaten,Müll.,Schmuck,nan,er,Alkohol,sie,Helmen,nan,nan,den,die,nan,Wurst,große,Esslöffel,Gras,um,goldenen,Kraftstoff,die,den,Planet,jeden.,Müll.,um,defekt,große,köstlicher,eine,"vermiest,",Besucher.,Dezember,schwarzem,Planeten,defekt,sie,mehr,Schaumstoff,Taschengeld,Herrn,Esslöffel,die,Einkommen,grünen,täglichen,Stimmung,Soldaten,nan,ml,Tupperware,wiedergewählt.,nan,köstlichen,jeden.,Kunsteis,Herrn,als,drei,nan,kaltem,Energie.,seiner,nan,jeden,verschrottet.,jeden,seiner,die,den,aus,eine,nichts,nan,Besucher.,dichten,ruhig,aus,Untergrund,Wurst,artgerecht,,,,,,,,,,,,,,,,,,,,,,,7,0,7,0,0,6,6,6,,,,,,,,,space,0.772135972977,,,,,2017_Jan_27_1205,59.7607747535,spr_backupper,001,Fr12,
,,,,,,,,,,,,,,,,,,,,,,,,,,,,,,,,,,,,,,,,,,,,,,,,,,,,,,,,,,,,,,,,,,,,,,,,,,,,,,,,,,,,,,,,,,,,,,,,,,,,,,,,,,,,,,,,,,,,,,,,,7,0,7,0,,,,,,,,,,,,,,,None,n,11.6960148811,,2017_Jan_27_1205,59.7607747535,spr_backupper,001,Fr12,
,Wir,Wir,Die,Die,Außer,Wir,Er,Als,In,In,Er,Die,Jetzt,In,Die,In,Die,Bei,Viele,Die,Es,Die,Die,Es,Die,Beträchtliche,Sie,Nicht,Am,Dort,Ich,Mit,Er,Wir,Man,Das,Wir,Sie,Nicht,Im,Außer,Viele,Man,Die,Mit,Bei,Sie,Es,Wir,Unter,Die,Im,Die,Es,Wir,Alle,Jugendliche,Die,Er,Am,Manche,Ich,Ihr,Dass,Bei,Walter,In,Die,Er,Beträchtliche,Bei,Außer,Die,Die,In,Der,Es,Sie,Die,Die,Sie,100,Die,100,Die,Sie,In,Wir,Sie,Außer,Dort,Wir,Danach,Fernab,Die,Jungtiere,Ich,In,,,,,,,,,,,,,,,,,,,,,,,8,0,8,0,0,0,0,0,,,,,,,space,0.754497051239,space,0.113895177841,,,,,2017_Jan_27_1205,59.7607747535,spr_backupper,001,Fr12,
,übergaben,mussten,Linie,Formen,das,haben,hat,die,meinem,der,wurde,Autos,ist,einer,Kinder,den,Schule,der,Tonnen,Stücke,wurden,Uhr,Lösung,waren,Kinder,Stücke,verbrauchen,ein,äußersten,türmen,nehme,dieser,stellt,mussten,machte,Tuch,konnten,verlassen,ein,Fernrohr,dem,Tonnen,machte,Uhr,dieser,unserer,hatte,hat,hatten,keinen,müden,Fernrohr,Uhr,waren,übergaben,Betten,können,Gäste,stellt,äußeren,Kreditnehmer,wurde,Blutdruck,es,der,Scheel,den,Teilnehmerinnen,wurde,Stücke,unserer,den,Eislaufbahnen,Gäste,meinem,Flug,wurden,haben,Schule,Schuhe,verbrauchen,g,Autos,g,Schuhe,verlassen,der,haben,hatte,dem,türmen,hatten,wurde,des,"Uhr,",sollten,nehme,diesem,,,,,,,,,,,,,,,,,,,,,,,8,0,8,0,0,1,1,1,,,,,,,,,space,0.474090099335,,,,,2017_Jan_27_1205,59.7607747535,spr_backupper,001,Fr12,
,dem,uns,101,wurden,Essen,jede,ein,Sonne,Studium,Tat,trotz,beider,genau,Studie,fuhren,Kakao,verbraucht,Feier,gebrauchte,wurden,Eimer,war,wird,nur,fuhren,saftigen,60,Tropfen,Rand,sich,eine,Methode,die,uns,mal,wurde,dann,wegen,Tropfen,sahen,Bürgermeister,gebrauchter,mal,schlug,Methode,Ankunft,keine,uns,in,Umständen,Teilnehmer,sahen,schlug,nur,das,wurden,Kleidung,suchen,die,Rand,sind,damals,kann,"regnete,",Feier,war,Kakao,wussten,trotz,saftiges,Ankunft,Bürgermeister,wurden,suchen,Studium,zum,Eimer,die,verbraucht,in,60,braunen,beider,brauner,in,wegen,Tat,jede,keine,Essen,sich,in,die,Rummels,die,immer,eine,Zirkus,,,,,,,,,,,,,,,,,,,,,,,8,0,8,0,0,2,2,2,,,,,,,,,space,0.380395889282,,,,,2017_Jan_27_1205,59.7607747535,spr_backupper,001,Fr12,
,Mann,durch,hält,unter,kann,Menge,Hemd,"unterging,",las,wissen,dem,beteiligter,die,wurde,mit,gehören,260.000,gedachte,Kleidung,aus,rote,aus,mit,kleinere,mit,Fleischs,Liter,königlichen,der,Berge,große,kann,Masse,durch,wieder,dann,mit,dem,königliches,wir,beschuldigten,Kleidung,wieder,"sporadisch,",kann,stand,Lust,die,Dänemark,können,wurden,wir,"sporadisch,",kleinere,Auto,mit,bei,die,Masse,der,mit,schnell,schon,hat,gedachte,der,gehören,überwiegend,des,Fleisch,stand,beschuldigten,mit,die,habe,Mond,roter,Erlebnisse,260.000,Größe,Liter,Zuckers,beteiligten,Zucker,Größe,des,wissen,Menge,Lust,kann,Berge,Dänemark,Leinwand,wurde,er,auf,große,werden,,,,,,,,,,,,,,,,,,,,,,,8,0,8,0,0,3,3,3,,,,,,,,,space,0.386318922043,,,,,2017_Jan_27_1205,59.7607747535,spr_backupper,001,Fr12,
,das,Büschel,nicht,"regelmäßigem,",ich,alten,aus,war,ich,wir,bekannten,Fahrer,richtige,jetzt,solchen,immer,Kilowattstunden,man,landen,"wertvollem,",Farbe,"Japan,","reichlichem,","Delikte,",solch,wurden,sprudelnden,Bluts,Stadt,schmutziger,Packung,man,mit,Büschel,viel,mit,"minimalem,",schönen,Blut,den,die,landen,viel,obschon,man,ein,auf,Stimmung,einen,Neuwahlen,mit,den,obwohl,"Delikte,",dem,"üblichem,",ausreichendem,Wohnung,mit,Stadt,"sämtlichem,",dank,bei,uns,man,vierte,immer,"nicht,",bekannten,wurden,ein,die,dauerhaftem,Wohnung,ich,dauerte,Farbe,bei,Kilowattstunden,36,sprudelndes,sind,Fahrer,sind,36,schönen,wir,alten,auf,ich,schmutzige,gelegentlich,aus,schon,"trug,",warmem,Packung,die,,,,,,,,,,,,,,,,,,,,,,,8,0,8,0,0,4,4,4,,,,,,,,,space,0.291644096375,,,,,2017_Jan_27_1205,59.7607747535,spr_backupper,001,Fr12,
,Auto,frischen,am,kaltem,leider,Krams,feinem,die,mehr,um,Skandal,wurden,"Zeit,","nachgewiesen,",unzureichenden,350,elektrische,der,im,klassischen,geschleudert.,die,purem,deren,unzureichenden,serviert.,Trinkwassers.,hat,liegen,Wäsche.,salziger,eine,einem,frisches,Lärm,"reichem,",sauberen,Wetter,hat,roten,Störenfriede,im,Lärm,sie,eine,Glas,noch,ziemlich,gelegentlichen,vor,zusätzlichem,roten,sie,derer,Mann,harten,monatlichem,des,einem,liegen,künftigem,täglichem,minimalem,die,den,Bundespräsident.,350,was,Skandals,serviert.,Glas,Störenfriede,feinem,des,mehr,ungefähr,geschleudert.,"frischem,",elektrischer,hätten,Trinkwasser.,auf,wurden,auf,würden,Wetters,von,Kram,noch,leider,Wäsche.,einen,seltenem,immer,war,weichem,salzige,Tiere,,,,,,,,,,,,,,,,,,,,,,,8,0,8,0,0,5,5,5,,,,,,,,,space,0.367233037949,,,,,2017_Jan_27_1205,59.7607747535,spr_backupper,001,Fr12,
,mehr,Grases,Hauptbahnhof.,Abduschen,nichts,aus,dichten,Flut,als,die,wiedergewählt.,verschrottet.,um,dass,Helmen,ml,Energie.,Soldaten,Müll.,Schmuck,nan,er,Alkohol,sie,Helmen,nan,nan,den,die,nan,Wurst,große,Esslöffel,Gras,um,goldenen,Kraftstoff,die,den,Planet,jeden.,Müll.,um,defekt,große,köstlicher,eine,"vermiest,",Besucher.,Dezember,schwarzem,Planeten,defekt,sie,mehr,Schaumstoff,Taschengeld,Herrn,Esslöffel,die,Einkommen,grünen,täglichen,Stimmung,Soldaten,nan,ml,Tupperware,wiedergewählt.,nan,köstlichen,jeden.,Kunsteis,Herrn,als,drei,nan,kaltem,Energie.,seiner,nan,jeden,verschrottet.,jeden,seiner,die,den,aus,eine,nichts,nan,Besucher.,dichten,ruhig,aus,Untergrund,Wurst,artgerecht,,,,,,,,,,,,,,,,,,,,,,,8,0,8,0,0,6,6,6,,,,,,,,,space,0.324434995651,,,,,2017_Jan_27_1205,59.7607747535,spr_backupper,001,Fr12,
,als,zwängen.,nan,gehärtet.,mitbringen.,dem,Stoff,zurückgekehrt.,einmal,Probleme,nan,nan,Nadelhölzer,das,zur,warme,nan,des,nan,umgearbeitet.,nan,trug.,verdünnt.,überführt,zur,nan,nan,Boden,Slums.,nan,mit,Menge,warmen,zwängen.,jede,Besatz,fahren.,Wohnung.,Boden,ganz,nan,nan,jede,war.,Menge,Wein,Sammlung,dass,nan,stattfinden.,Kaffee,ganz,war.,überführt,als,gefertigt.,selber,Gantenbein.,warmem,Slums.,haftbar.,Tee,Einsatz,ziemlich,des,nan,warmer,ist.,nan,nan,Weins,nan,eingesprüht.,Gantenbeins.,einmal,Tage.,nan,Saft,nan,Frau,nan,Fall,nan,Fall,Frau,Wohnung.,Problemen,dem,Sammlung,mitbringen.,nan,nan,Gewebe,diskutiert.,Japan.,liegen.,mit,gehalten.,,,,,,,,,,,,,,,,,,,,,,,8,0,8,0,0,7,7,7,,,,,,,,,space,0.34880399704,,,,,2017_Jan_27_1205,59.7607747535,spr_backupper,001,Fr12,
,,,,,,,,,,,,,,,,,,,,,,,,,,,,,,,,,,,,,,,,,,,,,,,,,,,,,,,,,,,,,,,,,,,,,,,,,,,,,,,,,,,,,,,,,,,,,,,,,,,,,,,,,,,,,,,,,,,,,,,,,8,0,8,0,,,,,,,,,,,,,,,space,n,3.33769512177,0.453961133957,2017_Jan_27_1205,59.7607747535,spr_backupper,001,Fr12,
,Wir,Wir,Die,Die,Außer,Wir,Er,Als,In,In,Er,Die,Jetzt,In,Die,In,Die,Bei,Viele,Die,Es,Die,Die,Es,Die,Beträchtliche,Sie,Nicht,Am,Dort,Ich,Mit,Er,Wir,Man,Das,Wir,Sie,Nicht,Im,Außer,Viele,Man,Die,Mit,Bei,Sie,Es,Wir,Unter,Die,Im,Die,Es,Wir,Alle,Jugendliche,Die,Er,Am,Manche,Ich,Ihr,Dass,Bei,Walter,In,Die,Er,Beträchtliche,Bei,Außer,Die,Die,In,Der,Es,Sie,Die,Die,Sie,100,Die,100,Die,Sie,In,Wir,Sie,Außer,Dort,Wir,Danach,Fernab,Die,Jungtiere,Ich,In,,,,,,,,,,,,,,,,,,,,,,,9,0,9,0,0,0,0,0,,,,,,,space,0.855488061905,space,0.101083040237,,,,,2017_Jan_27_1205,59.7607747535,spr_backupper,001,Fr12,
,übergaben,mussten,Linie,Formen,das,haben,hat,die,meinem,der,wurde,Autos,ist,einer,Kinder,den,Schule,der,Tonnen,Stücke,wurden,Uhr,Lösung,waren,Kinder,Stücke,verbrauchen,ein,äußersten,türmen,nehme,dieser,stellt,mussten,machte,Tuch,konnten,verlassen,ein,Fernrohr,dem,Tonnen,machte,Uhr,dieser,unserer,hatte,hat,hatten,keinen,müden,Fernrohr,Uhr,waren,übergaben,Betten,können,Gäste,stellt,äußeren,Kreditnehmer,wurde,Blutdruck,es,der,Scheel,den,Teilnehmerinnen,wurde,Stücke,unserer,den,Eislaufbahnen,Gäste,meinem,Flug,wurden,haben,Schule,Schuhe,verbrauchen,g,Autos,g,Schuhe,verlassen,der,haben,hatte,dem,türmen,hatten,wurde,des,"Uhr,",sollten,nehme,diesem,,,,,,,,,,,,,,,,,,,,,,,9,0,9,0,0,1,1,1,,,,,,,,,space,0.777684211731,,,,,2017_Jan_27_1205,59.7607747535,spr_backupper,001,Fr12,
,dem,uns,101,wurden,Essen,jede,ein,Sonne,Studium,Tat,trotz,beider,genau,Studie,fuhren,Kakao,verbraucht,Feier,gebrauchte,wurden,Eimer,war,wird,nur,fuhren,saftigen,60,Tropfen,Rand,sich,eine,Methode,die,uns,mal,wurde,dann,wegen,Tropfen,sahen,Bürgermeister,gebrauchter,mal,schlug,Methode,Ankunft,keine,uns,in,Umständen,Teilnehmer,sahen,schlug,nur,das,wurden,Kleidung,suchen,die,Rand,sind,damals,kann,"regnete,",Feier,war,Kakao,wussten,trotz,saftiges,Ankunft,Bürgermeister,wurden,suchen,Studium,zum,Eimer,die,verbraucht,in,60,braunen,beider,brauner,in,wegen,Tat,jede,keine,Essen,sich,in,die,Rummels,die,immer,eine,Zirkus,,,,,,,,,,,,,,,,,,,,,,,9,0,9,0,0,2,2,2,,,,,,,,,space,0.385929107666,,,,,2017_Jan_27_1205,59.7607747535,spr_backupper,001,Fr12,
,Mann,durch,hält,unter,kann,Menge,Hemd,"unterging,",las,wissen,dem,beteiligter,die,wurde,mit,gehören,260.000,gedachte,Kleidung,aus,rote,aus,mit,kleinere,mit,Fleischs,Liter,königlichen,der,Berge,große,kann,Masse,durch,wieder,dann,mit,dem,königliches,wir,beschuldigten,Kleidung,wieder,"sporadisch,",kann,stand,Lust,die,Dänemark,können,wurden,wir,"sporadisch,",kleinere,Auto,mit,bei,die,Masse,der,mit,schnell,schon,hat,gedachte,der,gehören,überwiegend,des,Fleisch,stand,beschuldigten,mit,die,habe,Mond,roter,Erlebnisse,260.000,Größe,Liter,Zuckers,beteiligten,Zucker,Größe,des,wissen,Menge,Lust,kann,Berge,Dänemark,Leinwand,wurde,er,auf,große,werden,,,,,,,,,,,,,,,,,,,,,,,9,0,9,0,0,3,3,3,,,,,,,,,space,0.402235984802,,,,,2017_Jan_27_1205,59.7607747535,spr_backupper,001,Fr12,
,das,Büschel,nicht,"regelmäßigem,",ich,alten,aus,war,ich,wir,bekannten,Fahrer,richtige,jetzt,solchen,immer,Kilowattstunden,man,landen,"wertvollem,",Farbe,"Japan,","reichlichem,","Delikte,",solch,wurden,sprudelnden,Bluts,Stadt,schmutziger,Packung,man,mit,Büschel,viel,mit,"minimalem,",schönen,Blut,den,die,landen,viel,obschon,man,ein,auf,Stimmung,einen,Neuwahlen,mit,den,obwohl,"Delikte,",dem,"üblichem,",ausreichendem,Wohnung,mit,Stadt,"sämtlichem,",dank,bei,uns,man,vierte,immer,"nicht,",bekannten,wurden,ein,die,dauerhaftem,Wohnung,ich,dauerte,Farbe,bei,Kilowattstunden,36,sprudelndes,sind,Fahrer,sind,36,schönen,wir,alten,auf,ich,schmutzige,gelegentlich,aus,schon,"trug,",warmem,Packung,die,,,,,,,,,,,,,,,,,,,,,,,9,0,9,0,0,4,4,4,,,,,,,,,space,0.436019897461,,,,,2017_Jan_27_1205,59.7607747535,spr_backupper,001,Fr12,
,Auto,frischen,am,kaltem,leider,Krams,feinem,die,mehr,um,Skandal,wurden,"Zeit,","nachgewiesen,",unzureichenden,350,elektrische,der,im,klassischen,geschleudert.,die,purem,deren,unzureichenden,serviert.,Trinkwassers.,hat,liegen,Wäsche.,salziger,eine,einem,frisches,Lärm,"reichem,",sauberen,Wetter,hat,roten,Störenfriede,im,Lärm,sie,eine,Glas,noch,ziemlich,gelegentlichen,vor,zusätzlichem,roten,sie,derer,Mann,harten,monatlichem,des,einem,liegen,künftigem,täglichem,minimalem,die,den,Bundespräsident.,350,was,Skandals,serviert.,Glas,Störenfriede,feinem,des,mehr,ungefähr,geschleudert.,"frischem,",elektrischer,hätten,Trinkwasser.,auf,wurden,auf,würden,Wetters,von,Kram,noch,leider,Wäsche.,einen,seltenem,immer,war,weichem,salzige,Tiere,,,,,,,,,,,,,,,,,,,,,,,9,0,9,0,0,5,5,5,,,,,,,,,space,0.43618106842,,,,,2017_Jan_27_1205,59.7607747535,spr_backupper,001,Fr12,
,mehr,Grases,Hauptbahnhof.,Abduschen,nichts,aus,dichten,Flut,als,die,wiedergewählt.,verschrottet.,um,dass,Helmen,ml,Energie.,Soldaten,Müll.,Schmuck,nan,er,Alkohol,sie,Helmen,nan,nan,den,die,nan,Wurst,große,Esslöffel,Gras,um,goldenen,Kraftstoff,die,den,Planet,jeden.,Müll.,um,defekt,große,köstlicher,eine,"vermiest,",Besucher.,Dezember,schwarzem,Planeten,defekt,sie,mehr,Schaumstoff,Taschengeld,Herrn,Esslöffel,die,Einkommen,grünen,täglichen,Stimmung,Soldaten,nan,ml,Tupperware,wiedergewählt.,nan,köstlichen,jeden.,Kunsteis,Herrn,als,drei,nan,kaltem,Energie.,seiner,nan,jeden,verschrottet.,jeden,seiner,die,den,aus,eine,nichts,nan,Besucher.,dichten,ruhig,aus,Untergrund,Wurst,artgerecht,,,,,,,,,,,,,,,,,,,,,,,9,0,9,0,0,6,6,6,,,,,,,,,space,0.377989053726,,,,,2017_Jan_27_1205,59.7607747535,spr_backupper,001,Fr12,
,als,zwängen.,nan,gehärtet.,mitbringen.,dem,Stoff,zurückgekehrt.,einmal,Probleme,nan,nan,Nadelhölzer,das,zur,warme,nan,des,nan,umgearbeitet.,nan,trug.,verdünnt.,überführt,zur,nan,nan,Boden,Slums.,nan,mit,Menge,warmen,zwängen.,jede,Besatz,fahren.,Wohnung.,Boden,ganz,nan,nan,jede,war.,Menge,Wein,Sammlung,dass,nan,stattfinden.,Kaffee,ganz,war.,überführt,als,gefertigt.,selber,Gantenbein.,warmem,Slums.,haftbar.,Tee,Einsatz,ziemlich,des,nan,warmer,ist.,nan,nan,Weins,nan,eingesprüht.,Gantenbeins.,einmal,Tage.,nan,Saft,nan,Frau,nan,Fall,nan,Fall,Frau,Wohnung.,Problemen,dem,Sammlung,mitbringen.,nan,nan,Gewebe,diskutiert.,Japan.,liegen.,mit,gehalten.,,,,,,,,,,,,,,,,,,,,,,,9,0,9,0,0,7,7,7,,,,,,,,,space,0.372794151306,,,,,2017_Jan_27_1205,59.7607747535,spr_backupper,001,Fr12,
,gerne.,nan,nan,nan,nan,Haus,gefertigt.,nan,Rilke.,im,nan,nan,umzusetzen.,Medikament,Schule.,Milch.,nan,zweiten,nan,nan,nan,nan,nan,wurden.,Schule.,nan,nan,berührt.,nan,nan,an,dunkle,Honigs,nan,Menge,rekonstruiert.,nan,nan,berührt.,deutlich.,nan,nan,Menge,nan,dunkler,schon,dummer,es,nan,nan,wiederbelebt.,deutlich.,nan,wurden.,gerne.,nan,kaufen.,nan,Honig,nan,nan,wieder,sinken.,vermiest.,zweiten,nan,Milch.,nan,nan,nan,schon,nan,nan,nan,Rilke,nan,nan,besprochen.,nan,gepasst.,nan,genug.,nan,genug.,gepasst,nan,im,Haus,dumme,nan,nan,nan,wiederhergestellt.,nan,nan,nan,an,nan,,,,,,,,,,,,,,,,,,,,,,,9,0,9,0,0,8,8,8,,,,,,,,,space,0.284817934036,,,,,2017_Jan_27_1205,59.7607747535,spr_backupper,001,Fr12,
,,,,,,,,,,,,,,,,,,,,,,,,,,,,,,,,,,,,,,,,,,,,,,,,,,,,,,,,,,,,,,,,,,,,,,,,,,,,,,,,,,,,,,,,,,,,,,,,,,,,,,,,,,,,,,,,,,,,,,,,,9,0,9,0,,,,,,,,,,,,,,,space,n,2.95388793945,0.587290048599,2017_Jan_27_1205,59.7607747535,spr_backupper,001,Fr12,
,Wir,Wir,Die,Die,Außer,Wir,Er,Als,In,In,Er,Die,Jetzt,In,Die,In,Die,Bei,Viele,Die,Es,Die,Die,Es,Die,Beträchtliche,Sie,Nicht,Am,Dort,Ich,Mit,Er,Wir,Man,Das,Wir,Sie,Nicht,Im,Außer,Viele,Man,Die,Mit,Bei,Sie,Es,Wir,Unter,Die,Im,Die,Es,Wir,Alle,Jugendliche,Die,Er,Am,Manche,Ich,Ihr,Dass,Bei,Walter,In,Die,Er,Beträchtliche,Bei,Außer,Die,Die,In,Der,Es,Sie,Die,Die,Sie,100,Die,100,Die,Sie,In,Wir,Sie,Außer,Dort,Wir,Danach,Fernab,Die,Jungtiere,Ich,In,,,,,,,,,,,,,,,,,,,,,,,10,0,10,0,0,0,0,0,,,,,,,None,,space,2.4864180088,,,,,2017_Jan_27_1205,59.7607747535,spr_backupper,001,Fr12,
,übergaben,mussten,Linie,Formen,das,haben,hat,die,meinem,der,wurde,Autos,ist,einer,Kinder,den,Schule,der,Tonnen,Stücke,wurden,Uhr,Lösung,waren,Kinder,Stücke,verbrauchen,ein,äußersten,türmen,nehme,dieser,stellt,mussten,machte,Tuch,konnten,verlassen,ein,Fernrohr,dem,Tonnen,machte,Uhr,dieser,unserer,hatte,hat,hatten,keinen,müden,Fernrohr,Uhr,waren,übergaben,Betten,können,Gäste,stellt,äußeren,Kreditnehmer,wurde,Blutdruck,es,der,Scheel,den,Teilnehmerinnen,wurde,Stücke,unserer,den,Eislaufbahnen,Gäste,meinem,Flug,wurden,haben,Schule,Schuhe,verbrauchen,g,Autos,g,Schuhe,verlassen,der,haben,hatte,dem,türmen,hatten,wurde,des,"Uhr,",sollten,nehme,diesem,,,,,,,,,,,,,,,,,,,,,,,10,0,10,0,0,1,1,1,,,,,,,,,space,0.398583889008,,,,,2017_Jan_27_1205,59.7607747535,spr_backupper,001,Fr12,
,dem,uns,101,wurden,Essen,jede,ein,Sonne,Studium,Tat,trotz,beider,genau,Studie,fuhren,Kakao,verbraucht,Feier,gebrauchte,wurden,Eimer,war,wird,nur,fuhren,saftigen,60,Tropfen,Rand,sich,eine,Methode,die,uns,mal,wurde,dann,wegen,Tropfen,sahen,Bürgermeister,gebrauchter,mal,schlug,Methode,Ankunft,keine,uns,in,Umständen,Teilnehmer,sahen,schlug,nur,das,wurden,Kleidung,suchen,die,Rand,sind,damals,kann,"regnete,",Feier,war,Kakao,wussten,trotz,saftiges,Ankunft,Bürgermeister,wurden,suchen,Studium,zum,Eimer,die,verbraucht,in,60,braunen,beider,brauner,in,wegen,Tat,jede,keine,Essen,sich,in,die,Rummels,die,immer,eine,Zirkus,,,,,,,,,,,,,,,,,,,,,,,10,0,10,0,0,2,2,2,,,,,,,,,space,0.34952712059,,,,,2017_Jan_27_1205,59.7607747535,spr_backupper,001,Fr12,
,Mann,durch,hält,unter,kann,Menge,Hemd,"unterging,",las,wissen,dem,beteiligter,die,wurde,mit,gehören,260.000,gedachte,Kleidung,aus,rote,aus,mit,kleinere,mit,Fleischs,Liter,königlichen,der,Berge,große,kann,Masse,durch,wieder,dann,mit,dem,königliches,wir,beschuldigten,Kleidung,wieder,"sporadisch,",kann,stand,Lust,die,Dänemark,können,wurden,wir,"sporadisch,",kleinere,Auto,mit,bei,die,Masse,der,mit,schnell,schon,hat,gedachte,der,gehören,überwiegend,des,Fleisch,stand,beschuldigten,mit,die,habe,Mond,roter,Erlebnisse,260.000,Größe,Liter,Zuckers,beteiligten,Zucker,Größe,des,wissen,Menge,Lust,kann,Berge,Dänemark,Leinwand,wurde,er,auf,große,werden,,,,,,,,,,,,,,,,,,,,,,,10,0,10,0,0,3,3,3,,,,,,,,,space,0.352262973785,,,,,2017_Jan_27_1205,59.7607747535,spr_backupper,001,Fr12,
,das,Büschel,nicht,"regelmäßigem,",ich,alten,aus,war,ich,wir,bekannten,Fahrer,richtige,jetzt,solchen,immer,Kilowattstunden,man,landen,"wertvollem,",Farbe,"Japan,","reichlichem,","Delikte,",solch,wurden,sprudelnden,Bluts,Stadt,schmutziger,Packung,man,mit,Büschel,viel,mit,"minimalem,",schönen,Blut,den,die,landen,viel,obschon,man,ein,auf,Stimmung,einen,Neuwahlen,mit,den,obwohl,"Delikte,",dem,"üblichem,",ausreichendem,Wohnung,mit,Stadt,"sämtlichem,",dank,bei,uns,man,vierte,immer,"nicht,",bekannten,wurden,ein,die,dauerhaftem,Wohnung,ich,dauerte,Farbe,bei,Kilowattstunden,36,sprudelndes,sind,Fahrer,sind,36,schönen,wir,alten,auf,ich,schmutzige,gelegentlich,aus,schon,"trug,",warmem,Packung,die,,,,,,,,,,,,,,,,,,,,,,,10,0,10,0,0,4,4,4,,,,,,,,,space,0.533867120743,,,,,2017_Jan_27_1205,59.7607747535,spr_backupper,001,Fr12,
,Auto,frischen,am,kaltem,leider,Krams,feinem,die,mehr,um,Skandal,wurden,"Zeit,","nachgewiesen,",unzureichenden,350,elektrische,der,im,klassischen,geschleudert.,die,purem,deren,unzureichenden,serviert.,Trinkwassers.,hat,liegen,Wäsche.,salziger,eine,einem,frisches,Lärm,"reichem,",sauberen,Wetter,hat,roten,Störenfriede,im,Lärm,sie,eine,Glas,noch,ziemlich,gelegentlichen,vor,zusätzlichem,roten,sie,derer,Mann,harten,monatlichem,des,einem,liegen,künftigem,täglichem,minimalem,die,den,Bundespräsident.,350,was,Skandals,serviert.,Glas,Störenfriede,feinem,des,mehr,ungefähr,geschleudert.,"frischem,",elektrischer,hätten,Trinkwasser.,auf,wurden,auf,würden,Wetters,von,Kram,noch,leider,Wäsche.,einen,seltenem,immer,war,weichem,salzige,Tiere,,,,,,,,,,,,,,,,,,,,,,,10,0,10,0,0,5,5,5,,,,,,,,,space,0.437384843826,,,,,2017_Jan_27_1205,59.7607747535,spr_backupper,001,Fr12,
,mehr,Grases,Hauptbahnhof.,Abduschen,nichts,aus,dichten,Flut,als,die,wiedergewählt.,verschrottet.,um,dass,Helmen,ml,Energie.,Soldaten,Müll.,Schmuck,nan,er,Alkohol,sie,Helmen,nan,nan,den,die,nan,Wurst,große,Esslöffel,Gras,um,goldenen,Kraftstoff,die,den,Planet,jeden.,Müll.,um,defekt,große,köstlicher,eine,"vermiest,",Besucher.,Dezember,schwarzem,Planeten,defekt,sie,mehr,Schaumstoff,Taschengeld,Herrn,Esslöffel,die,Einkommen,grünen,täglichen,Stimmung,Soldaten,nan,ml,Tupperware,wiedergewählt.,nan,köstlichen,jeden.,Kunsteis,Herrn,als,drei,nan,kaltem,Energie.,seiner,nan,jeden,verschrottet.,jeden,seiner,die,den,aus,eine,nichts,nan,Besucher.,dichten,ruhig,aus,Untergrund,Wurst,artgerecht,,,,,,,,,,,,,,,,,,,,,,,10,0,10,0,0,6,6,6,,,,,,,,,space,0.36652302742,,,,,2017_Jan_27_1205,59.7607747535,spr_backupper,001,Fr12,
,als,zwängen.,nan,gehärtet.,mitbringen.,dem,Stoff,zurückgekehrt.,einmal,Probleme,nan,nan,Nadelhölzer,das,zur,warme,nan,des,nan,umgearbeitet.,nan,trug.,verdünnt.,überführt,zur,nan,nan,Boden,Slums.,nan,mit,Menge,warmen,zwängen.,jede,Besatz,fahren.,Wohnung.,Boden,ganz,nan,nan,jede,war.,Menge,Wein,Sammlung,dass,nan,stattfinden.,Kaffee,ganz,war.,überführt,als,gefertigt.,selber,Gantenbein.,warmem,Slums.,haftbar.,Tee,Einsatz,ziemlich,des,nan,warmer,ist.,nan,nan,Weins,nan,eingesprüht.,Gantenbeins.,einmal,Tage.,nan,Saft,nan,Frau,nan,Fall,nan,Fall,Frau,Wohnung.,Problemen,dem,Sammlung,mitbringen.,nan,nan,Gewebe,diskutiert.,Japan.,liegen.,mit,gehalten.,,,,,,,,,,,,,,,,,,,,,,,10,0,10,0,0,7,7,7,,,,,,,,,space,0.432096004486,,,,,2017_Jan_27_1205,59.7607747535,spr_backupper,001,Fr12,
,,,,,,,,,,,,,,,,,,,,,,,,,,,,,,,,,,,,,,,,,,,,,,,,,,,,,,,,,,,,,,,,,,,,,,,,,,,,,,,,,,,,,,,,,,,,,,,,,,,,,,,,,,,,,,,,,,,,,,,,,10,0,10,0,,,,,,,,,,,,,,,None,j,1.90474820137,,2017_Jan_27_1205,59.7607747535,spr_backupper,001,Fr12,
,Wir,Wir,Die,Die,Außer,Wir,Er,Als,In,In,Er,Die,Jetzt,In,Die,In,Die,Bei,Viele,Die,Es,Die,Die,Es,Die,Beträchtliche,Sie,Nicht,Am,Dort,Ich,Mit,Er,Wir,Man,Das,Wir,Sie,Nicht,Im,Außer,Viele,Man,Die,Mit,Bei,Sie,Es,Wir,Unter,Die,Im,Die,Es,Wir,Alle,Jugendliche,Die,Er,Am,Manche,Ich,Ihr,Dass,Bei,Walter,In,Die,Er,Beträchtliche,Bei,Außer,Die,Die,In,Der,Es,Sie,Die,Die,Sie,100,Die,100,Die,Sie,In,Wir,Sie,Außer,Dort,Wir,Danach,Fernab,Die,Jungtiere,Ich,In,,,,,,,,,,,,,,,,,,,,,,,11,0,11,0,0,0,0,0,,,,,,,space,0.502769947052,space,0.000432014465332,,,,,2017_Jan_27_1205,59.7607747535,spr_backupper,001,Fr12,
,übergaben,mussten,Linie,Formen,das,haben,hat,die,meinem,der,wurde,Autos,ist,einer,Kinder,den,Schule,der,Tonnen,Stücke,wurden,Uhr,Lösung,waren,Kinder,Stücke,verbrauchen,ein,äußersten,türmen,nehme,dieser,stellt,mussten,machte,Tuch,konnten,verlassen,ein,Fernrohr,dem,Tonnen,machte,Uhr,dieser,unserer,hatte,hat,hatten,keinen,müden,Fernrohr,Uhr,waren,übergaben,Betten,können,Gäste,stellt,äußeren,Kreditnehmer,wurde,Blutdruck,es,der,Scheel,den,Teilnehmerinnen,wurde,Stücke,unserer,den,Eislaufbahnen,Gäste,meinem,Flug,wurden,haben,Schule,Schuhe,verbrauchen,g,Autos,g,Schuhe,verlassen,der,haben,hatte,dem,türmen,hatten,wurde,des,"Uhr,",sollten,nehme,diesem,,,,,,,,,,,,,,,,,,,,,,,11,0,11,0,0,1,1,1,,,,,,,,,space,0.797117948532,,,,,2017_Jan_27_1205,59.7607747535,spr_backupper,001,Fr12,
,dem,uns,101,wurden,Essen,jede,ein,Sonne,Studium,Tat,trotz,beider,genau,Studie,fuhren,Kakao,verbraucht,Feier,gebrauchte,wurden,Eimer,war,wird,nur,fuhren,saftigen,60,Tropfen,Rand,sich,eine,Methode,die,uns,mal,wurde,dann,wegen,Tropfen,sahen,Bürgermeister,gebrauchter,mal,schlug,Methode,Ankunft,keine,uns,in,Umständen,Teilnehmer,sahen,schlug,nur,das,wurden,Kleidung,suchen,die,Rand,sind,damals,kann,"regnete,",Feier,war,Kakao,wussten,trotz,saftiges,Ankunft,Bürgermeister,wurden,suchen,Studium,zum,Eimer,die,verbraucht,in,60,braunen,beider,brauner,in,wegen,Tat,jede,keine,Essen,sich,in,die,Rummels,die,immer,eine,Zirkus,,,,,,,,,,,,,,,,,,,,,,,11,0,11,0,0,2,2,2,,,,,,,,,space,0.446907043457,,,,,2017_Jan_27_1205,59.7607747535,spr_backupper,001,Fr12,
,Mann,durch,hält,unter,kann,Menge,Hemd,"unterging,",las,wissen,dem,beteiligter,die,wurde,mit,gehören,260.000,gedachte,Kleidung,aus,rote,aus,mit,kleinere,mit,Fleischs,Liter,königlichen,der,Berge,große,kann,Masse,durch,wieder,dann,mit,dem,königliches,wir,beschuldigten,Kleidung,wieder,"sporadisch,",kann,stand,Lust,die,Dänemark,können,wurden,wir,"sporadisch,",kleinere,Auto,mit,bei,die,Masse,der,mit,schnell,schon,hat,gedachte,der,gehören,überwiegend,des,Fleisch,stand,beschuldigten,mit,die,habe,Mond,roter,Erlebnisse,260.000,Größe,Liter,Zuckers,beteiligten,Zucker,Größe,des,wissen,Menge,Lust,kann,Berge,Dänemark,Leinwand,wurde,er,auf,große,werden,,,,,,,,,,,,,,,,,,,,,,,11,0,11,0,0,3,3,3,,,,,,,,,space,0.444780111313,,,,,2017_Jan_27_1205,59.7607747535,spr_backupper,001,Fr12,
,das,Büschel,nicht,"regelmäßigem,",ich,alten,aus,war,ich,wir,bekannten,Fahrer,richtige,jetzt,solchen,immer,Kilowattstunden,man,landen,"wertvollem,",Farbe,"Japan,","reichlichem,","Delikte,",solch,wurden,sprudelnden,Bluts,Stadt,schmutziger,Packung,man,mit,Büschel,viel,mit,"minimalem,",schönen,Blut,den,die,landen,viel,obschon,man,ein,auf,Stimmung,einen,Neuwahlen,mit,den,obwohl,"Delikte,",dem,"üblichem,",ausreichendem,Wohnung,mit,Stadt,"sämtlichem,",dank,bei,uns,man,vierte,immer,"nicht,",bekannten,wurden,ein,die,dauerhaftem,Wohnung,ich,dauerte,Farbe,bei,Kilowattstunden,36,sprudelndes,sind,Fahrer,sind,36,schönen,wir,alten,auf,ich,schmutzige,gelegentlich,aus,schon,"trug,",warmem,Packung,die,,,,,,,,,,,,,,,,,,,,,,,11,0,11,0,0,4,4,4,,,,,,,,,space,0.54399394989,,,,,2017_Jan_27_1205,59.7607747535,spr_backupper,001,Fr12,
,Auto,frischen,am,kaltem,leider,Krams,feinem,die,mehr,um,Skandal,wurden,"Zeit,","nachgewiesen,",unzureichenden,350,elektrische,der,im,klassischen,geschleudert.,die,purem,deren,unzureichenden,serviert.,Trinkwassers.,hat,liegen,Wäsche.,salziger,eine,einem,frisches,Lärm,"reichem,",sauberen,Wetter,hat,roten,Störenfriede,im,Lärm,sie,eine,Glas,noch,ziemlich,gelegentlichen,vor,zusätzlichem,roten,sie,derer,Mann,harten,monatlichem,des,einem,liegen,künftigem,täglichem,minimalem,die,den,Bundespräsident.,350,was,Skandals,serviert.,Glas,Störenfriede,feinem,des,mehr,ungefähr,geschleudert.,"frischem,",elektrischer,hätten,Trinkwasser.,auf,wurden,auf,würden,Wetters,von,Kram,noch,leider,Wäsche.,einen,seltenem,immer,war,weichem,salzige,Tiere,,,,,,,,,,,,,,,,,,,,,,,11,0,11,0,0,5,5,5,,,,,,,,,space,0.809962034225,,,,,2017_Jan_27_1205,59.7607747535,spr_backupper,001,Fr12,
,mehr,Grases,Hauptbahnhof.,Abduschen,nichts,aus,dichten,Flut,als,die,wiedergewählt.,verschrottet.,um,dass,Helmen,ml,Energie.,Soldaten,Müll.,Schmuck,nan,er,Alkohol,sie,Helmen,nan,nan,den,die,nan,Wurst,große,Esslöffel,Gras,um,goldenen,Kraftstoff,die,den,Planet,jeden.,Müll.,um,defekt,große,köstlicher,eine,"vermiest,",Besucher.,Dezember,schwarzem,Planeten,defekt,sie,mehr,Schaumstoff,Taschengeld,Herrn,Esslöffel,die,Einkommen,grünen,täglichen,Stimmung,Soldaten,nan,ml,Tupperware,wiedergewählt.,nan,köstlichen,jeden.,Kunsteis,Herrn,als,drei,nan,kaltem,Energie.,seiner,nan,jeden,verschrottet.,jeden,seiner,die,den,aus,eine,nichts,nan,Besucher.,dichten,ruhig,aus,Untergrund,Wurst,artgerecht,,,,,,,,,,,,,,,,,,,,,,,11,0,11,0,0,6,6,6,,,,,,,,,space,0.502789020538,,,,,2017_Jan_27_1205,59.7607747535,spr_backupper,001,Fr12,
,als,zwängen.,nan,gehärtet.,mitbringen.,dem,Stoff,zurückgekehrt.,einmal,Probleme,nan,nan,Nadelhölzer,das,zur,warme,nan,des,nan,umgearbeitet.,nan,trug.,verdünnt.,überführt,zur,nan,nan,Boden,Slums.,nan,mit,Menge,warmen,zwängen.,jede,Besatz,fahren.,Wohnung.,Boden,ganz,nan,nan,jede,war.,Menge,Wein,Sammlung,dass,nan,stattfinden.,Kaffee,ganz,war.,überführt,als,gefertigt.,selber,Gantenbein.,warmem,Slums.,haftbar.,Tee,Einsatz,ziemlich,des,nan,warmer,ist.,nan,nan,Weins,nan,eingesprüht.,Gantenbeins.,einmal,Tage.,nan,Saft,nan,Frau,nan,Fall,nan,Fall,Frau,Wohnung.,Problemen,dem,Sammlung,mitbringen.,nan,nan,Gewebe,diskutiert.,Japan.,liegen.,mit,gehalten.,,,,,,,,,,,,,,,,,,,,,,,11,0,11,0,0,7,7,7,,,,,,,,,space,0.520807981491,,,,,2017_Jan_27_1205,59.7607747535,spr_backupper,001,Fr12,
,,,,,,,,,,,,,,,,,,,,,,,,,,,,,,,,,,,,,,,,,,,,,,,,,,,,,,,,,,,,,,,,,,,,,,,,,,,,,,,,,,,,,,,,,,,,,,,,,,,,,,,,,,,,,,,,,,,,,,,,,11,0,11,0,,,,,,,,,,,,,,,None,n,4.32795906067,,2017_Jan_27_1205,59.7607747535,spr_backupper,001,Fr12,
,Wir,Wir,Die,Die,Außer,Wir,Er,Als,In,In,Er,Die,Jetzt,In,Die,In,Die,Bei,Viele,Die,Es,Die,Die,Es,Die,Beträchtliche,Sie,Nicht,Am,Dort,Ich,Mit,Er,Wir,Man,Das,Wir,Sie,Nicht,Im,Außer,Viele,Man,Die,Mit,Bei,Sie,Es,Wir,Unter,Die,Im,Die,Es,Wir,Alle,Jugendliche,Die,Er,Am,Manche,Ich,Ihr,Dass,Bei,Walter,In,Die,Er,Beträchtliche,Bei,Außer,Die,Die,In,Der,Es,Sie,Die,Die,Sie,100,Die,100,Die,Sie,In,Wir,Sie,Außer,Dort,Wir,Danach,Fernab,Die,Jungtiere,Ich,In,,,,,,,,,,,,,,,,,,,,,,,12,0,12,0,0,0,0,0,,,,,,,space,0.587099790573,space,0.355256080627,,,,,2017_Jan_27_1205,59.7607747535,spr_backupper,001,Fr12,
,übergaben,mussten,Linie,Formen,das,haben,hat,die,meinem,der,wurde,Autos,ist,einer,Kinder,den,Schule,der,Tonnen,Stücke,wurden,Uhr,Lösung,waren,Kinder,Stücke,verbrauchen,ein,äußersten,türmen,nehme,dieser,stellt,mussten,machte,Tuch,konnten,verlassen,ein,Fernrohr,dem,Tonnen,machte,Uhr,dieser,unserer,hatte,hat,hatten,keinen,müden,Fernrohr,Uhr,waren,übergaben,Betten,können,Gäste,stellt,äußeren,Kreditnehmer,wurde,Blutdruck,es,der,Scheel,den,Teilnehmerinnen,wurde,Stücke,unserer,den,Eislaufbahnen,Gäste,meinem,Flug,wurden,haben,Schule,Schuhe,verbrauchen,g,Autos,g,Schuhe,verlassen,der,haben,hatte,dem,türmen,hatten,wurde,des,"Uhr,",sollten,nehme,diesem,,,,,,,,,,,,,,,,,,,,,,,12,0,12,0,0,1,1,1,,,,,,,,,space,0.436955928802,,,,,2017_Jan_27_1205,59.7607747535,spr_backupper,001,Fr12,
,dem,uns,101,wurden,Essen,jede,ein,Sonne,Studium,Tat,trotz,beider,genau,Studie,fuhren,Kakao,verbraucht,Feier,gebrauchte,wurden,Eimer,war,wird,nur,fuhren,saftigen,60,Tropfen,Rand,sich,eine,Methode,die,uns,mal,wurde,dann,wegen,Tropfen,sahen,Bürgermeister,gebrauchter,mal,schlug,Methode,Ankunft,keine,uns,in,Umständen,Teilnehmer,sahen,schlug,nur,das,wurden,Kleidung,suchen,die,Rand,sind,damals,kann,"regnete,",Feier,war,Kakao,wussten,trotz,saftiges,Ankunft,Bürgermeister,wurden,suchen,Studium,zum,Eimer,die,verbraucht,in,60,braunen,beider,brauner,in,wegen,Tat,jede,keine,Essen,sich,in,die,Rummels,die,immer,eine,Zirkus,,,,,,,,,,,,,,,,,,,,,,,12,0,12,0,0,2,2,2,,,,,,,,,space,0.610119819641,,,,,2017_Jan_27_1205,59.7607747535,spr_backupper,001,Fr12,
,Mann,durch,hält,unter,kann,Menge,Hemd,"unterging,",las,wissen,dem,beteiligter,die,wurde,mit,gehören,260.000,gedachte,Kleidung,aus,rote,aus,mit,kleinere,mit,Fleischs,Liter,königlichen,der,Berge,große,kann,Masse,durch,wieder,dann,mit,dem,königliches,wir,beschuldigten,Kleidung,wieder,"sporadisch,",kann,stand,Lust,die,Dänemark,können,wurden,wir,"sporadisch,",kleinere,Auto,mit,bei,die,Masse,der,mit,schnell,schon,hat,gedachte,der,gehören,überwiegend,des,Fleisch,stand,beschuldigten,mit,die,habe,Mond,roter,Erlebnisse,260.000,Größe,Liter,Zuckers,beteiligten,Zucker,Größe,des,wissen,Menge,Lust,kann,Berge,Dänemark,Leinwand,wurde,er,auf,große,werden,,,,,,,,,,,,,,,,,,,,,,,12,0,12,0,0,3,3,3,,,,,,,,,space,0.369707107544,,,,,2017_Jan_27_1205,59.7607747535,spr_backupper,001,Fr12,
,das,Büschel,nicht,"regelmäßigem,",ich,alten,aus,war,ich,wir,bekannten,Fahrer,richtige,jetzt,solchen,immer,Kilowattstunden,man,landen,"wertvollem,",Farbe,"Japan,","reichlichem,","Delikte,",solch,wurden,sprudelnden,Bluts,Stadt,schmutziger,Packung,man,mit,Büschel,viel,mit,"minimalem,",schönen,Blut,den,die,landen,viel,obschon,man,ein,auf,Stimmung,einen,Neuwahlen,mit,den,obwohl,"Delikte,",dem,"üblichem,",ausreichendem,Wohnung,mit,Stadt,"sämtlichem,",dank,bei,uns,man,vierte,immer,"nicht,",bekannten,wurden,ein,die,dauerhaftem,Wohnung,ich,dauerte,Farbe,bei,Kilowattstunden,36,sprudelndes,sind,Fahrer,sind,36,schönen,wir,alten,auf,ich,schmutzige,gelegentlich,aus,schon,"trug,",warmem,Packung,die,,,,,,,,,,,,,,,,,,,,,,,12,0,12,0,0,4,4,4,,,,,,,,,space,0.375818014145,,,,,2017_Jan_27_1205,59.7607747535,spr_backupper,001,Fr12,
,Auto,frischen,am,kaltem,leider,Krams,feinem,die,mehr,um,Skandal,wurden,"Zeit,","nachgewiesen,",unzureichenden,350,elektrische,der,im,klassischen,geschleudert.,die,purem,deren,unzureichenden,serviert.,Trinkwassers.,hat,liegen,Wäsche.,salziger,eine,einem,frisches,Lärm,"reichem,",sauberen,Wetter,hat,roten,Störenfriede,im,Lärm,sie,eine,Glas,noch,ziemlich,gelegentlichen,vor,zusätzlichem,roten,sie,derer,Mann,harten,monatlichem,des,einem,liegen,künftigem,täglichem,minimalem,die,den,Bundespräsident.,350,was,Skandals,serviert.,Glas,Störenfriede,feinem,des,mehr,ungefähr,geschleudert.,"frischem,",elektrischer,hätten,Trinkwasser.,auf,wurden,auf,würden,Wetters,von,Kram,noch,leider,Wäsche.,einen,seltenem,immer,war,weichem,salzige,Tiere,,,,,,,,,,,,,,,,,,,,,,,12,0,12,0,0,5,5,5,,,,,,,,,space,0.416507959366,,,,,2017_Jan_27_1205,59.7607747535,spr_backupper,001,Fr12,
,,,,,,,,,,,,,,,,,,,,,,,,,,,,,,,,,,,,,,,,,,,,,,,,,,,,,,,,,,,,,,,,,,,,,,,,,,,,,,,,,,,,,,,,,,,,,,,,,,,,,,,,,,,,,,,,,,,,,,,,,12,0,12,0,,,,,,,,,,,,,,,space,n,3.12485289574,0.4526450634,2017_Jan_27_1205,59.7607747535,spr_backupper,001,Fr12,
,Wir,Wir,Die,Die,Außer,Wir,Er,Als,In,In,Er,Die,Jetzt,In,Die,In,Die,Bei,Viele,Die,Es,Die,Die,Es,Die,Beträchtliche,Sie,Nicht,Am,Dort,Ich,Mit,Er,Wir,Man,Das,Wir,Sie,Nicht,Im,Außer,Viele,Man,Die,Mit,Bei,Sie,Es,Wir,Unter,Die,Im,Die,Es,Wir,Alle,Jugendliche,Die,Er,Am,Manche,Ich,Ihr,Dass,Bei,Walter,In,Die,Er,Beträchtliche,Bei,Außer,Die,Die,In,Der,Es,Sie,Die,Die,Sie,100,Die,100,Die,Sie,In,Wir,Sie,Außer,Dort,Wir,Danach,Fernab,Die,Jungtiere,Ich,In,,,,,,,,,,,,,,,,,,,,,,,13,0,13,0,0,0,0,0,,,,,,,space,0.587214946747,space,0.373148918152,,,,,2017_Jan_27_1205,59.7607747535,spr_backupper,001,Fr12,
,übergaben,mussten,Linie,Formen,das,haben,hat,die,meinem,der,wurde,Autos,ist,einer,Kinder,den,Schule,der,Tonnen,Stücke,wurden,Uhr,Lösung,waren,Kinder,Stücke,verbrauchen,ein,äußersten,türmen,nehme,dieser,stellt,mussten,machte,Tuch,konnten,verlassen,ein,Fernrohr,dem,Tonnen,machte,Uhr,dieser,unserer,hatte,hat,hatten,keinen,müden,Fernrohr,Uhr,waren,übergaben,Betten,können,Gäste,stellt,äußeren,Kreditnehmer,wurde,Blutdruck,es,der,Scheel,den,Teilnehmerinnen,wurde,Stücke,unserer,den,Eislaufbahnen,Gäste,meinem,Flug,wurden,haben,Schule,Schuhe,verbrauchen,g,Autos,g,Schuhe,verlassen,der,haben,hatte,dem,türmen,hatten,wurde,des,"Uhr,",sollten,nehme,diesem,,,,,,,,,,,,,,,,,,,,,,,13,0,13,0,0,1,1,1,,,,,,,,,space,0.30749797821,,,,,2017_Jan_27_1205,59.7607747535,spr_backupper,001,Fr12,
,dem,uns,101,wurden,Essen,jede,ein,Sonne,Studium,Tat,trotz,beider,genau,Studie,fuhren,Kakao,verbraucht,Feier,gebrauchte,wurden,Eimer,war,wird,nur,fuhren,saftigen,60,Tropfen,Rand,sich,eine,Methode,die,uns,mal,wurde,dann,wegen,Tropfen,sahen,Bürgermeister,gebrauchter,mal,schlug,Methode,Ankunft,keine,uns,in,Umständen,Teilnehmer,sahen,schlug,nur,das,wurden,Kleidung,suchen,die,Rand,sind,damals,kann,"regnete,",Feier,war,Kakao,wussten,trotz,saftiges,Ankunft,Bürgermeister,wurden,suchen,Studium,zum,Eimer,die,verbraucht,in,60,braunen,beider,brauner,in,wegen,Tat,jede,keine,Essen,sich,in,die,Rummels,die,immer,eine,Zirkus,,,,,,,,,,,,,,,,,,,,,,,13,0,13,0,0,2,2,2,,,,,,,,,space,0.29537987709,,,,,2017_Jan_27_1205,59.7607747535,spr_backupper,001,Fr12,
,Mann,durch,hält,unter,kann,Menge,Hemd,"unterging,",las,wissen,dem,beteiligter,die,wurde,mit,gehören,260.000,gedachte,Kleidung,aus,rote,aus,mit,kleinere,mit,Fleischs,Liter,königlichen,der,Berge,große,kann,Masse,durch,wieder,dann,mit,dem,königliches,wir,beschuldigten,Kleidung,wieder,"sporadisch,",kann,stand,Lust,die,Dänemark,können,wurden,wir,"sporadisch,",kleinere,Auto,mit,bei,die,Masse,der,mit,schnell,schon,hat,gedachte,der,gehören,überwiegend,des,Fleisch,stand,beschuldigten,mit,die,habe,Mond,roter,Erlebnisse,260.000,Größe,Liter,Zuckers,beteiligten,Zucker,Größe,des,wissen,Menge,Lust,kann,Berge,Dänemark,Leinwand,wurde,er,auf,große,werden,,,,,,,,,,,,,,,,,,,,,,,13,0,13,0,0,3,3,3,,,,,,,,,space,0.285906791687,,,,,2017_Jan_27_1205,59.7607747535,spr_backupper,001,Fr12,
,das,Büschel,nicht,"regelmäßigem,",ich,alten,aus,war,ich,wir,bekannten,Fahrer,richtige,jetzt,solchen,immer,Kilowattstunden,man,landen,"wertvollem,",Farbe,"Japan,","reichlichem,","Delikte,",solch,wurden,sprudelnden,Bluts,Stadt,schmutziger,Packung,man,mit,Büschel,viel,mit,"minimalem,",schönen,Blut,den,die,landen,viel,obschon,man,ein,auf,Stimmung,einen,Neuwahlen,mit,den,obwohl,"Delikte,",dem,"üblichem,",ausreichendem,Wohnung,mit,Stadt,"sämtlichem,",dank,bei,uns,man,vierte,immer,"nicht,",bekannten,wurden,ein,die,dauerhaftem,Wohnung,ich,dauerte,Farbe,bei,Kilowattstunden,36,sprudelndes,sind,Fahrer,sind,36,schönen,wir,alten,auf,ich,schmutzige,gelegentlich,aus,schon,"trug,",warmem,Packung,die,,,,,,,,,,,,,,,,,,,,,,,13,0,13,0,0,4,4,4,,,,,,,,,space,0.343695163727,,,,,2017_Jan_27_1205,59.7607747535,spr_backupper,001,Fr12,
,Auto,frischen,am,kaltem,leider,Krams,feinem,die,mehr,um,Skandal,wurden,"Zeit,","nachgewiesen,",unzureichenden,350,elektrische,der,im,klassischen,geschleudert.,die,purem,deren,unzureichenden,serviert.,Trinkwassers.,hat,liegen,Wäsche.,salziger,eine,einem,frisches,Lärm,"reichem,",sauberen,Wetter,hat,roten,Störenfriede,im,Lärm,sie,eine,Glas,noch,ziemlich,gelegentlichen,vor,zusätzlichem,roten,sie,derer,Mann,harten,monatlichem,des,einem,liegen,künftigem,täglichem,minimalem,die,den,Bundespräsident.,350,was,Skandals,serviert.,Glas,Störenfriede,feinem,des,mehr,ungefähr,geschleudert.,"frischem,",elektrischer,hätten,Trinkwasser.,auf,wurden,auf,würden,Wetters,von,Kram,noch,leider,Wäsche.,einen,seltenem,immer,war,weichem,salzige,Tiere,,,,,,,,,,,,,,,,,,,,,,,13,0,13,0,0,5,5,5,,,,,,,,,space,0.336098909378,,,,,2017_Jan_27_1205,59.7607747535,spr_backupper,001,Fr12,
,mehr,Grases,Hauptbahnhof.,Abduschen,nichts,aus,dichten,Flut,als,die,wiedergewählt.,verschrottet.,um,dass,Helmen,ml,Energie.,Soldaten,Müll.,Schmuck,nan,er,Alkohol,sie,Helmen,nan,nan,den,die,nan,Wurst,große,Esslöffel,Gras,um,goldenen,Kraftstoff,die,den,Planet,jeden.,Müll.,um,defekt,große,köstlicher,eine,"vermiest,",Besucher.,Dezember,schwarzem,Planeten,defekt,sie,mehr,Schaumstoff,Taschengeld,Herrn,Esslöffel,die,Einkommen,grünen,täglichen,Stimmung,Soldaten,nan,ml,Tupperware,wiedergewählt.,nan,köstlichen,jeden.,Kunsteis,Herrn,als,drei,nan,kaltem,Energie.,seiner,nan,jeden,verschrottet.,jeden,seiner,die,den,aus,eine,nichts,nan,Besucher.,dichten,ruhig,aus,Untergrund,Wurst,artgerecht,,,,,,,,,,,,,,,,,,,,,,,13,0,13,0,0,6,6,6,,,,,,,,,space,0.332386016846,,,,,2017_Jan_27_1205,59.7607747535,spr_backupper,001,Fr12,
,als,zwängen.,nan,gehärtet.,mitbringen.,dem,Stoff,zurückgekehrt.,einmal,Probleme,nan,nan,Nadelhölzer,das,zur,warme,nan,des,nan,umgearbeitet.,nan,trug.,verdünnt.,überführt,zur,nan,nan,Boden,Slums.,nan,mit,Menge,warmen,zwängen.,jede,Besatz,fahren.,Wohnung.,Boden,ganz,nan,nan,jede,war.,Menge,Wein,Sammlung,dass,nan,stattfinden.,Kaffee,ganz,war.,überführt,als,gefertigt.,selber,Gantenbein.,warmem,Slums.,haftbar.,Tee,Einsatz,ziemlich,des,nan,warmer,ist.,nan,nan,Weins,nan,eingesprüht.,Gantenbeins.,einmal,Tage.,nan,Saft,nan,Frau,nan,Fall,nan,Fall,Frau,Wohnung.,Problemen,dem,Sammlung,mitbringen.,nan,nan,Gewebe,diskutiert.,Japan.,liegen.,mit,gehalten.,,,,,,,,,,,,,,,,,,,,,,,13,0,13,0,0,7,7,7,,,,,,,,,space,0.549250125885,,,,,2017_Jan_27_1205,59.7607747535,spr_backupper,001,Fr12,
,,,,,,,,,,,,,,,,,,,,,,,,,,,,,,,,,,,,,,,,,,,,,,,,,,,,,,,,,,,,,,,,,,,,,,,,,,,,,,,,,,,,,,,,,,,,,,,,,,,,,,,,,,,,,,,,,,,,,,,,,13,0,13,0,,,,,,,,,,,,,,,None,j,5.24726891518,,2017_Jan_27_1205,59.7607747535,spr_backupper,001,Fr12,
,Wir,Wir,Die,Die,Außer,Wir,Er,Als,In,In,Er,Die,Jetzt,In,Die,In,Die,Bei,Viele,Die,Es,Die,Die,Es,Die,Beträchtliche,Sie,Nicht,Am,Dort,Ich,Mit,Er,Wir,Man,Das,Wir,Sie,Nicht,Im,Außer,Viele,Man,Die,Mit,Bei,Sie,Es,Wir,Unter,Die,Im,Die,Es,Wir,Alle,Jugendliche,Die,Er,Am,Manche,Ich,Ihr,Dass,Bei,Walter,In,Die,Er,Beträchtliche,Bei,Außer,Die,Die,In,Der,Es,Sie,Die,Die,Sie,100,Die,100,Die,Sie,In,Wir,Sie,Außer,Dort,Wir,Danach,Fernab,Die,Jungtiere,Ich,In,,,,,,,,,,,,,,,,,,,,,,,14,0,14,0,0,0,0,0,,,,,,,space,0.385921001434,space,0.198107004166,,,,,2017_Jan_27_1205,59.7607747535,spr_backupper,001,Fr12,
,übergaben,mussten,Linie,Formen,das,haben,hat,die,meinem,der,wurde,Autos,ist,einer,Kinder,den,Schule,der,Tonnen,Stücke,wurden,Uhr,Lösung,waren,Kinder,Stücke,verbrauchen,ein,äußersten,türmen,nehme,dieser,stellt,mussten,machte,Tuch,konnten,verlassen,ein,Fernrohr,dem,Tonnen,machte,Uhr,dieser,unserer,hatte,hat,hatten,keinen,müden,Fernrohr,Uhr,waren,übergaben,Betten,können,Gäste,stellt,äußeren,Kreditnehmer,wurde,Blutdruck,es,der,Scheel,den,Teilnehmerinnen,wurde,Stücke,unserer,den,Eislaufbahnen,Gäste,meinem,Flug,wurden,haben,Schule,Schuhe,verbrauchen,g,Autos,g,Schuhe,verlassen,der,haben,hatte,dem,türmen,hatten,wurde,des,"Uhr,",sollten,nehme,diesem,,,,,,,,,,,,,,,,,,,,,,,14,0,14,0,0,1,1,1,,,,,,,,,space,0.585026979446,,,,,2017_Jan_27_1205,59.7607747535,spr_backupper,001,Fr12,
,dem,uns,101,wurden,Essen,jede,ein,Sonne,Studium,Tat,trotz,beider,genau,Studie,fuhren,Kakao,verbraucht,Feier,gebrauchte,wurden,Eimer,war,wird,nur,fuhren,saftigen,60,Tropfen,Rand,sich,eine,Methode,die,uns,mal,wurde,dann,wegen,Tropfen,sahen,Bürgermeister,gebrauchter,mal,schlug,Methode,Ankunft,keine,uns,in,Umständen,Teilnehmer,sahen,schlug,nur,das,wurden,Kleidung,suchen,die,Rand,sind,damals,kann,"regnete,",Feier,war,Kakao,wussten,trotz,saftiges,Ankunft,Bürgermeister,wurden,suchen,Studium,zum,Eimer,die,verbraucht,in,60,braunen,beider,brauner,in,wegen,Tat,jede,keine,Essen,sich,in,die,Rummels,die,immer,eine,Zirkus,,,,,,,,,,,,,,,,,,,,,,,14,0,14,0,0,2,2,2,,,,,,,,,space,0.401801109314,,,,,2017_Jan_27_1205,59.7607747535,spr_backupper,001,Fr12,
,Mann,durch,hält,unter,kann,Menge,Hemd,"unterging,",las,wissen,dem,beteiligter,die,wurde,mit,gehören,260.000,gedachte,Kleidung,aus,rote,aus,mit,kleinere,mit,Fleischs,Liter,königlichen,der,Berge,große,kann,Masse,durch,wieder,dann,mit,dem,königliches,wir,beschuldigten,Kleidung,wieder,"sporadisch,",kann,stand,Lust,die,Dänemark,können,wurden,wir,"sporadisch,",kleinere,Auto,mit,bei,die,Masse,der,mit,schnell,schon,hat,gedachte,der,gehören,überwiegend,des,Fleisch,stand,beschuldigten,mit,die,habe,Mond,roter,Erlebnisse,260.000,Größe,Liter,Zuckers,beteiligten,Zucker,Größe,des,wissen,Menge,Lust,kann,Berge,Dänemark,Leinwand,wurde,er,auf,große,werden,,,,,,,,,,,,,,,,,,,,,,,14,0,14,0,0,3,3,3,,,,,,,,,space,0.637456893921,,,,,2017_Jan_27_1205,59.7607747535,spr_backupper,001,Fr12,
