text,sent48,sent9,sent8,sent15,sent3,sent2,sent1,sent14,sent7,sent6,sent5,sent4,sent57,sent56,sent55,sent54,sent53,sent52,sent51,sent50,sent13,sent12,sent11,sent10,sent17,sent16,sent59,sent58,sent93,sent92,sent91,sent90,sent97,sent96,sent95,sent94,sent98,sent22,sent23,sent20,sent21,sent26,sent27,sent24,sent25,sent28,sent29,sent68,sent69,sent66,sent67,sent64,sent65,sent62,sent63,sent60,sent61,sent31,sent30,sent33,sent32,sent35,sent34,sent37,sent36,sent39,sent38,sent79,sent78,sent75,sent74,sent77,sent76,sent71,sent70,sent73,sent72,sent19,sent49,sent18,sent44,sent45,sent84,sent85,sent86,sent87,sent80,sent81,sent82,sent83,sent40,sent41,sent42,sent43,sent88,sent89,sent46,sent47,intros.thisRepN,intros.thisTrialN,intros.thisN,intros.thisIndex,trials.thisRepN,trials.thisTrialN,trials.thisN,trials.thisIndex,testWords.thisRepN,testWords.thisTrialN,testWords.thisN,testWords.thisIndex,test1,test3,test2,test5,test4,test7,test6,test9,test8,test10,realTrials.thisRepN,realTrials.thisTrialN,realTrials.thisN,realTrials.thisIndex,words.thisRepN,words.thisTrialN,words.thisN,words.thisIndex,key_resp_3.keys,key_resp_3.rt,key_resp_8.keys,key_resp_10.keys,key_resp_10.rt,key_resp_6.keys,wordRead.keys,wordRead.rt,key_resp_5.keys,questAnswer.keys,questAnswer.rt,key_resp_6.rt,key_resp_5.rt,date,frameRate,expName,session,participant,
"Vielen Dank, dass Sie an diesem Experiment teilnehmen. Vor dem eigentlichen Experiment sehen Sie nun zuerst eine kurze Erläuterung, und Sie absolvieren ein kurze Übungsphase.

Das Experiment dauert insgesamt nicht mehr als 45 Minuten.",,,,,,,,,,,,,,,,,,,,,,,,,,,,,,,,,,,,,,,,,,,,,,,,,,,,,,,,,,,,,,,,,,,,,,,,,,,,,,,,,,,,,,,,,,,,,,,,,,,0,0,0,0,,,,,,,,,,,,,,,,,,,,,,,,,,,,,,,,,,,,,,,,2017_Jan_27_1259,59.4805964646,spr_backupper,001,Fr13,
"In diesem Experiment lesen Sie deutsche Sätze, indem Sie sich von Wort zu Wort mit der Leertaste durch den Satz klicken.",,,,,,,,,,,,,,,,,,,,,,,,,,,,,,,,,,,,,,,,,,,,,,,,,,,,,,,,,,,,,,,,,,,,,,,,,,,,,,,,,,,,,,,,,,,,,,,,,,,0,1,1,1,,,,,,,,,,,,,,,,,,,,,,,,,,,,,,,,,,,,,,,,2017_Jan_27_1259,59.4805964646,spr_backupper,001,Fr13,
"Sie sehen dabei immer nur das aktuelle Wort. Die Lesegeschwindigkeit bestimmen Sie vollständig selber. Vor jedem Satz sehen Sie in der Bildschirmmitte für zwei Sekunden ein + an der Stelle, an der dann die Wörter erscheinen.",,,,,,,,,,,,,,,,,,,,,,,,,,,,,,,,,,,,,,,,,,,,,,,,,,,,,,,,,,,,,,,,,,,,,,,,,,,,,,,,,,,,,,,,,,,,,,,,,,,0,2,2,2,,,,,,,,,,,,,,,,,,,,,,,,,,,,,,,,,,,,,,,,2017_Jan_27_1259,59.4805964646,spr_backupper,001,Fr13,
"Nach jedem Satz wird Ihnen eine Ja/Nein-Verständnisfrage zum zuvor gelesenen Satz gestellt, die Sie mit der J-Taste für "Ja" und der N-Taste für "Nein" beantworten. Antworten Sie möglichst spontan und ohne lange Nachzudenken.",,,,,,,,,,,,,,,,,,,,,,,,,,,,,,,,,,,,,,,,,,,,,,,,,,,,,,,,,,,,,,,,,,,,,,,,,,,,,,,,,,,,,,,,,,,,,,,,,,,0,3,3,3,,,,,,,,,,,,,,,,,,,,,,,,,,,,,,,,,,,,,,,,2017_Jan_27_1259,59.4805964646,spr_backupper,001,Fr13,
"Unterbrechen Sie das Experiment bitte auf keinen Fall, stellen Sie den ExperimentatorInnen nach dem Experimentbeginn keine Fragen, und lassen Sie sich nicht durch Umgebungsgeräusche ablenken.",,,,,,,,,,,,,,,,,,,,,,,,,,,,,,,,,,,,,,,,,,,,,,,,,,,,,,,,,,,,,,,,,,,,,,,,,,,,,,,,,,,,,,,,,,,,,,,,,,,0,4,4,4,,,,,,,,,,,,,,,,,,,,,,,,,,,,,,,,,,,,,,,,2017_Jan_27_1259,59.4805964646,spr_backupper,001,Fr13,
"Im nächsten Schritt beantworten Sie bitte eine Frage zu Ihren Deutschkenntnissen. Danach beginnt eine Übungseinheit, mit der Sie sich an die Art der Durchführung dieses Experiments gewöhnen können.",,,,,,,,,,,,,,,,,,,,,,,,,,,,,,,,,,,,,,,,,,,,,,,,,,,,,,,,,,,,,,,,,,,,,,,,,,,,,,,,,,,,,,,,,,,,,,,,,,,0,5,5,5,,,,,,,,,,,,,,,,,,,,,,,,,,,,,,,,,,,,,,,,2017_Jan_27_1259,59.4805964646,spr_backupper,001,Fr13,
,,,,,,,,,,,,,,,,,,,,,,,,,,,,,,,,,,,,,,,,,,,,,,,,,,,,,,,,,,,,,,,,,,,,,,,,,,,,,,,,,,,,,,,,,,,,,,,,,,,,,,,,,,,,,,,,,,,,,,,,,,,,,,,,,j,5.48314905167,,,,,,,,,,,,2017_Jan_27_1259,59.4805964646,spr_backupper,001,Fr13,
,,,,,,,,,,,,,,,,,,,,,,,,,,,,,,,,,,,,,,,,,,,,,,,,,,,,,,,,,,,,,,,,,,,,,,,,,,,,,,,,,,,,,,,,,,,,,,,,,,,,,,,0,0,0,0,,,,,,,,,,,,,,,,,,,,,,,,,None,,,,,,,,,,,2017_Jan_27_1259,59.4805964646,spr_backupper,001,Fr13,
,,,,,,,,,,,,,,,,,,,,,,,,,,,,,,,,,,,,,,,,,,,,,,,,,,,,,,,,,,,,,,,,,,,,,,,,,,,,,,,,,,,,,,,,,,,,,,,,,,,,,,,1,0,1,0,,,,,,,,,,,,,,,,,,,,,,,,,None,,,,,,,,,,,2017_Jan_27_1259,59.4805964646,spr_backupper,001,Fr13,
,,,,,,,,,,,,,,,,,,,,,,,,,,,,,,,,,,,,,,,,,,,,,,,,,,,,,,,,,,,,,,,,,,,,,,,,,,,,,,,,,,,,,,,,,,,,,,,,,,,,,,,2,0,2,0,,,,,,,,,,,,,,,,,,,,,,,,,None,,,,,,,,,,,2017_Jan_27_1259,59.4805964646,spr_backupper,001,Fr13,
,,,,,,,,,,,,,,,,,,,,,,,,,,,,,,,,,,,,,,,,,,,,,,,,,,,,,,,,,,,,,,,,,,,,,,,,,,,,,,,,,,,,,,,,,,,,,,,,,,,,,,,3,0,3,0,,,,,,,,,,,,,,,,,,,,,,,,,None,,,,,,,,,,,2017_Jan_27_1259,59.4805964646,spr_backupper,001,Fr13,
,,,,,,,,,,,,,,,,,,,,,,,,,,,,,,,,,,,,,,,,,,,,,,,,,,,,,,,,,,,,,,,,,,,,,,,,,,,,,,,,,,,,,,,,,,,,,,,,,,,,,,,4,0,4,0,,,,,,,,,,,,,,,,,,,,,,,,,None,,,,,,,,,,,2017_Jan_27_1259,59.4805964646,spr_backupper,001,Fr13,
,,,,,,,,,,,,,,,,,,,,,,,,,,,,,,,,,,,,,,,,,,,,,,,,,,,,,,,,,,,,,,,,,,,,,,,,,,,,,,,,,,,,,,,,,,,,,,,,,,,,,,,5,0,5,0,,,,,,,,,,,,,,,,,,,,,,,,,None,,,,,,,,,,,2017_Jan_27_1259,59.4805964646,spr_backupper,001,Fr13,
,,,,,,,,,,,,,,,,,,,,,,,,,,,,,,,,,,,,,,,,,,,,,,,,,,,,,,,,,,,,,,,,,,,,,,,,,,,,,,,,,,,,,,,,,,,,,,,,,,,,,,,6,0,6,0,,,,,,,,,,,,,,,,,,,,,,,,,None,,,,,,,,,,,2017_Jan_27_1259,59.4805964646,spr_backupper,001,Fr13,
,,,,,,,,,,,,,,,,,,,,,,,,,,,,,,,,,,,,,,,,,,,,,,,,,,,,,,,,,,,,,,,,,,,,,,,,,,,,,,,,,,,,,,,,,,,,,,,,,,,,,,,7,0,7,0,,,,,,,,,,,,,,,,,,,,,,,,,None,,,,,,,,,,,2017_Jan_27_1259,59.4805964646,spr_backupper,001,Fr13,
,,,,,,,,,,,,,,,,,,,,,,,,,,,,,,,,,,,,,,,,,,,,,,,,,,,,,,,,,,,,,,,,,,,,,,,,,,,,,,,,,,,,,,,,,,,,,,,,,,,,,,,8,0,8,0,,,,,,,,,,,,,,,,,,,,,,,,,None,,,,,,,,,,,2017_Jan_27_1259,59.4805964646,spr_backupper,001,Fr13,
,,,,,,,,,,,,,,,,,,,,,,,,,,,,,,,,,,,,,,,,,,,,,,,,,,,,,,,,,,,,,,,,,,,,,,,,,,,,,,,,,,,,,,,,,,,,,,,,,,,,,,,9,0,9,0,,,,,,,,,,,,,,,,,,,,,,,,,None,,,,,,,,,,,2017_Jan_27_1259,59.4805964646,spr_backupper,001,Fr13,
,,,,,,,,,,,,,,,,,,,,,,,,,,,,,,,,,,,,,,,,,,,,,,,,,,,,,,,,,,,,,,,,,,,,,,,,,,,,,,,,,,,,,,,,,,,,,,,,,,,,,,,,,,,,,,,,,,,,,,,,,,,,,,,,,,,,space,3.60557603836,,,,,,,,,2017_Jan_27_1259,59.4805964646,spr_backupper,001,Fr13,
,Er,Er,Man,Jungtiere,Es,In,Unter,Wir,100,Sie,Außer,Viele,In,Die,Sie,Die,Wir,Die,Außer,Nicht,Jetzt,Wir,Es,Ich,Wir,Sie,Bei,Die,In,Ich,Sie,Beträchtliche,Außer,Viele,Die,Es,Wir,Wir,Dort,Die,Sie,Der,Beträchtliche,Mit,Die,Alle,In,Fernab,In,Wir,Bei,Mit,Wir,Die,Ihr,Sie,Danach,Bei,Bei,In,Am,Die,Außer,Im,Wir,Die,Die,Die,Ich,Er,Er,Dort,Manche,Walter,In,Die,100,Die,Die,Die,Das,In,Dass,Als,Im,Die,Man,Die,Er,Am,Es,Jugendliche,Die,Die,Sie,Es,Nicht,Die,,,,,,,,,,,,,,,,,,,,,,,0,0,0,0,0,0,0,0,,,,,,None,space,0.939963102341,,,,,,2017_Jan_27_1259,59.4805964646,spr_backupper,001,Fr13,
,stellt,wurde,machte,sollten,waren,meinem,keinen,haben,g,verbrauchen,den,Tonnen,meinem,Schuhe,verbrauchen,Linie,haben,Schule,dem,ein,ist,mussten,hat,nehme,konnten,verlassen,der,Lösung,der,nehme,verlassen,Stücke,das,Tonnen,Gäste,wurden,mussten,hatten,türmen,Teilnehmerinnen,hatte,Flug,Stücke,dieser,Autos,Betten,der,des,diesem,hatten,unserer,dieser,übergaben,Uhr,Blutdruck,haben,wurde,unserer,der,den,äußersten,müden,dem,Fernrohr,übergaben,Stücke,Schule,Kinder,wurde,wurde,stellt,türmen,Kreditnehmer,Scheel,den,Formen,g,Eislaufbahnen,Schuhe,Gäste,Tuch,einer,es,die,Fernrohr,Autos,machte,Uhr,hat,äußeren,wurden,können,Kinder,Uhr,hatte,waren,ein,"Uhr,",,,,,,,,,,,,,,,,,,,,,,,0,0,0,0,0,1,1,1,,,,,,,space,0.496206998825,,,,,,2017_Jan_27_1259,59.4805964646,spr_backupper,001,Fr13,
,die,trotz,mal,immer,nur,Studium,Umständen,jede,brauner,60,Bürgermeister,gebrauchte,Studium,in,60,101,jede,verbraucht,Bürgermeister,Tropfen,genau,uns,uns,eine,dann,wegen,Feier,wird,Tat,eine,wegen,saftigen,Essen,gebrauchter,suchen,Eimer,uns,in,sich,wussten,keine,zum,saftiges,Methode,beider,wurden,Tat,Rummels,Zirkus,in,Ankunft,Methode,dem,war,kann,die,die,Ankunft,Feier,Kakao,Rand,Teilnehmer,Essen,sahen,das,wurden,verbraucht,fuhren,damals,trotz,die,sich,sind,war,Kakao,wurden,braunen,wurden,in,suchen,wurde,Studie,"regnete,",Sonne,sahen,beider,mal,schlug,ein,Rand,Eimer,Kleidung,fuhren,schlug,keine,nur,Tropfen,die,,,,,,,,,,,,,,,,,,,,,,,0,0,0,0,0,2,2,2,,,,,,,space,0.473137140274,,,,,,2017_Jan_27_1259,59.4805964646,spr_backupper,001,Fr13,
,Masse,des,wieder,auf,kleinere,habe,können,Menge,Zucker,Liter,beschuldigten,Kleidung,las,Größe,Liter,hält,Menge,260.000,beschuldigten,königliches,die,durch,die,große,mit,des,gedachte,mit,wissen,große,dem,Fleischs,kann,Kleidung,die,rote,durch,Dänemark,Berge,überwiegend,Lust,Mond,Fleisch,kann,beteiligten,mit,wissen,wurde,werden,Dänemark,stand,kann,Mann,aus,schon,Erlebnisse,Leinwand,stand,gedachte,gehören,der,wurden,kann,wir,Auto,aus,260.000,mit,schnell,dem,Masse,Berge,mit,der,gehören,unter,Zuckers,mit,Größe,die,dann,wurde,hat,"unterging,",wir,beteiligter,wieder,"sporadisch,",Hemd,der,roter,bei,mit,"sporadisch,",Lust,kleinere,königlichen,er,,,,,,,,,,,,,,,,,,,,,,,0,0,0,0,0,3,3,3,,,,,,,space,0.453839063644,,,,,,2017_Jan_27_1259,59.4805964646,spr_backupper,001,Fr13,
,mit,bekannten,viel,warmem,"Delikte,",ich,Neuwahlen,alten,sind,sprudelnden,die,landen,ich,36,sprudelndes,nicht,alten,Kilowattstunden,die,Blut,richtige,Büschel,Stimmung,Packung,"minimalem,",schönen,man,"reichlichem,",wir,Packung,schönen,wurden,ich,landen,Wohnung,Farbe,Büschel,einen,schmutziger,"nicht,",auf,dauerte,wurden,man,Fahrer,"üblichem,",wir,schon,die,gelegentlich,ein,man,das,"Japan,",bei,bei,aus,ein,man,immer,Stadt,mit,ich,den,dem,"wertvollem,",Kilowattstunden,solch,dank,bekannten,mit,schmutzige,"sämtlichem,",vierte,immer,"regelmäßigem,",sind,dauerhaftem,36,Wohnung,mit,jetzt,uns,war,den,Fahrer,viel,obschon,aus,Stadt,Farbe,ausreichendem,solchen,obwohl,auf,"Delikte,",Bluts,"trug,",,,,,,,,,,,,,,,,,,,,,,,0,0,0,0,0,4,4,4,,,,,,,space,0.461687803268,,,,,,2017_Jan_27_1259,59.4805964646,spr_backupper,001,Fr13,
,einem,Skandals,Lärm,weichem,derer,mehr,vor,Kram,auf,Trinkwassers.,Störenfriede,im,mehr,hätten,Trinkwasser.,am,Krams,elektrischer,Störenfriede,hat,"Zeit,",frisches,ziemlich,salziger,sauberen,Wetters,den,purem,um,salzige,Wetter,serviert.,leider,im,des,geschleudert.,frischen,gelegentlichen,Wäsche.,was,noch,ungefähr,serviert.,eine,wurden,harten,von,immer,Tiere,einen,Glas,eine,Auto,die,minimalem,"frischem,",seltenem,Glas,der,350,liegen,zusätzlichem,leider,roten,Mann,klassischen,elektrische,unzureichenden,täglichem,Skandal,einem,Wäsche.,künftigem,Bundespräsident.,350,kaltem,auf,feinem,würden,des,"reichem,","nachgewiesen,",die,die,roten,wurden,Lärm,sie,feinem,liegen,geschleudert.,monatlichem,unzureichenden,sie,noch,deren,hat,war,,,,,,,,,,,,,,,,,,,,,,,0,0,0,0,0,5,5,5,,,,,,,space,0.503710985184,,,,,,2017_Jan_27_1259,59.4805964646,spr_backupper,001,Fr13,
,Esslöffel,wiedergewählt.,um,Untergrund,sie,als,Dezember,aus,jeden,nan,jeden.,Müll.,als,seiner,nan,Hauptbahnhof.,aus,Energie.,jeden.,den,um,Gras,"vermiest,",Wurst,Kraftstoff,die,Soldaten,Alkohol,die,Wurst,die,nan,nichts,Müll.,Herrn,nan,Grases,Besucher.,nan,Tupperware,eine,drei,nan,große,verschrottet.,Schaumstoff,den,ruhig,artgerecht,Besucher.,köstlicher,große,mehr,er,täglichen,kaltem,dichten,köstlichen,Soldaten,ml,die,schwarzem,nichts,Planeten,mehr,Schmuck,Energie.,Helmen,grünen,wiedergewählt.,Esslöffel,nan,Einkommen,nan,ml,Abduschen,jeden,Kunsteis,seiner,Herrn,goldenen,dass,Stimmung,Flut,Planet,verschrottet.,um,defekt,dichten,die,nan,Taschengeld,Helmen,defekt,eine,sie,den,aus,,,,,,,,,,,,,,,,,,,,,,,0,0,0,0,0,6,6,6,,,,,,,space,0.436471939087,,,,,,2017_Jan_27_1259,59.4805964646,spr_backupper,001,Fr13,
,warmen,nan,jede,liegen.,überführt,einmal,stattfinden.,dem,Fall,nan,nan,nan,einmal,Frau,nan,nan,dem,nan,nan,Boden,Nadelhölzer,zwängen.,dass,mit,fahren.,Wohnung.,des,verdünnt.,Probleme,mit,Wohnung.,nan,mitbringen.,nan,Gantenbein.,nan,zwängen.,nan,nan,ist.,Sammlung,Tage.,nan,Menge,nan,gefertigt.,Problemen,diskutiert.,gehalten.,nan,Wein,Menge,als,trug.,Einsatz,Saft,Gewebe,Weins,des,warme,Slums.,Kaffee,mitbringen.,ganz,als,umgearbeitet.,nan,zur,Tee,nan,warmem,nan,haftbar.,nan,warmer,gehärtet.,Fall,eingesprüht.,Frau,Gantenbeins.,Besatz,das,ziemlich,zurückgekehrt.,ganz,nan,jede,war.,Stoff,Slums.,nan,selber,zur,war.,Sammlung,überführt,Boden,Japan.,,,,,,,,,,,,,,,,,,,,,,,0,0,0,0,0,7,7,7,,,,,,,space,0.458686113358,,,,,,2017_Jan_27_1259,59.4805964646,spr_backupper,001,Fr13,
,,,,,,,,,,,,,,,,,,,,,,,,,,,,,,,,,,,,,,,,,,,,,,,,,,,,,,,,,,,,,,,,,,,,,,,,,,,,,,,,,,,,,,,,,,,,,,,,,,,,,,,,,,,,,,,,,,,,,,,,,0,0,0,0,,,,,,,,,,,,,None,j,2.229377985,,,2017_Jan_27_1259,59.4805964646,spr_backupper,001,Fr13,
,Er,Er,Man,Jungtiere,Es,In,Unter,Wir,100,Sie,Außer,Viele,In,Die,Sie,Die,Wir,Die,Außer,Nicht,Jetzt,Wir,Es,Ich,Wir,Sie,Bei,Die,In,Ich,Sie,Beträchtliche,Außer,Viele,Die,Es,Wir,Wir,Dort,Die,Sie,Der,Beträchtliche,Mit,Die,Alle,In,Fernab,In,Wir,Bei,Mit,Wir,Die,Ihr,Sie,Danach,Bei,Bei,In,Am,Die,Außer,Im,Wir,Die,Die,Die,Ich,Er,Er,Dort,Manche,Walter,In,Die,100,Die,Die,Die,Das,In,Dass,Als,Im,Die,Man,Die,Er,Am,Es,Jugendliche,Die,Die,Sie,Es,Nicht,Die,,,,,,,,,,,,,,,,,,,,,,,1,0,1,0,0,0,0,0,,,,,,None,space,1.55545806885,,,,,,2017_Jan_27_1259,59.4805964646,spr_backupper,001,Fr13,
,stellt,wurde,machte,sollten,waren,meinem,keinen,haben,g,verbrauchen,den,Tonnen,meinem,Schuhe,verbrauchen,Linie,haben,Schule,dem,ein,ist,mussten,hat,nehme,konnten,verlassen,der,Lösung,der,nehme,verlassen,Stücke,das,Tonnen,Gäste,wurden,mussten,hatten,türmen,Teilnehmerinnen,hatte,Flug,Stücke,dieser,Autos,Betten,der,des,diesem,hatten,unserer,dieser,übergaben,Uhr,Blutdruck,haben,wurde,unserer,der,den,äußersten,müden,dem,Fernrohr,übergaben,Stücke,Schule,Kinder,wurde,wurde,stellt,türmen,Kreditnehmer,Scheel,den,Formen,g,Eislaufbahnen,Schuhe,Gäste,Tuch,einer,es,die,Fernrohr,Autos,machte,Uhr,hat,äußeren,wurden,können,Kinder,Uhr,hatte,waren,ein,"Uhr,",,,,,,,,,,,,,,,,,,,,,,,1,0,1,0,0,1,1,1,,,,,,,space,0.407910108566,,,,,,2017_Jan_27_1259,59.4805964646,spr_backupper,001,Fr13,
,die,trotz,mal,immer,nur,Studium,Umständen,jede,brauner,60,Bürgermeister,gebrauchte,Studium,in,60,101,jede,verbraucht,Bürgermeister,Tropfen,genau,uns,uns,eine,dann,wegen,Feier,wird,Tat,eine,wegen,saftigen,Essen,gebrauchter,suchen,Eimer,uns,in,sich,wussten,keine,zum,saftiges,Methode,beider,wurden,Tat,Rummels,Zirkus,in,Ankunft,Methode,dem,war,kann,die,die,Ankunft,Feier,Kakao,Rand,Teilnehmer,Essen,sahen,das,wurden,verbraucht,fuhren,damals,trotz,die,sich,sind,war,Kakao,wurden,braunen,wurden,in,suchen,wurde,Studie,"regnete,",Sonne,sahen,beider,mal,schlug,ein,Rand,Eimer,Kleidung,fuhren,schlug,keine,nur,Tropfen,die,,,,,,,,,,,,,,,,,,,,,,,1,0,1,0,0,2,2,2,,,,,,,space,0.419283866882,,,,,,2017_Jan_27_1259,59.4805964646,spr_backupper,001,Fr13,
,Masse,des,wieder,auf,kleinere,habe,können,Menge,Zucker,Liter,beschuldigten,Kleidung,las,Größe,Liter,hält,Menge,260.000,beschuldigten,königliches,die,durch,die,große,mit,des,gedachte,mit,wissen,große,dem,Fleischs,kann,Kleidung,die,rote,durch,Dänemark,Berge,überwiegend,Lust,Mond,Fleisch,kann,beteiligten,mit,wissen,wurde,werden,Dänemark,stand,kann,Mann,aus,schon,Erlebnisse,Leinwand,stand,gedachte,gehören,der,wurden,kann,wir,Auto,aus,260.000,mit,schnell,dem,Masse,Berge,mit,der,gehören,unter,Zuckers,mit,Größe,die,dann,wurde,hat,"unterging,",wir,beteiligter,wieder,"sporadisch,",Hemd,der,roter,bei,mit,"sporadisch,",Lust,kleinere,königlichen,er,,,,,,,,,,,,,,,,,,,,,,,1,0,1,0,0,3,3,3,,,,,,,space,0.45358300209,,,,,,2017_Jan_27_1259,59.4805964646,spr_backupper,001,Fr13,
,mit,bekannten,viel,warmem,"Delikte,",ich,Neuwahlen,alten,sind,sprudelnden,die,landen,ich,36,sprudelndes,nicht,alten,Kilowattstunden,die,Blut,richtige,Büschel,Stimmung,Packung,"minimalem,",schönen,man,"reichlichem,",wir,Packung,schönen,wurden,ich,landen,Wohnung,Farbe,Büschel,einen,schmutziger,"nicht,",auf,dauerte,wurden,man,Fahrer,"üblichem,",wir,schon,die,gelegentlich,ein,man,das,"Japan,",bei,bei,aus,ein,man,immer,Stadt,mit,ich,den,dem,"wertvollem,",Kilowattstunden,solch,dank,bekannten,mit,schmutzige,"sämtlichem,",vierte,immer,"regelmäßigem,",sind,dauerhaftem,36,Wohnung,mit,jetzt,uns,war,den,Fahrer,viel,obschon,aus,Stadt,Farbe,ausreichendem,solchen,obwohl,auf,"Delikte,",Bluts,"trug,",,,,,,,,,,,,,,,,,,,,,,,1,0,1,0,0,4,4,4,,,,,,,space,0.402932882309,,,,,,2017_Jan_27_1259,59.4805964646,spr_backupper,001,Fr13,
,einem,Skandals,Lärm,weichem,derer,mehr,vor,Kram,auf,Trinkwassers.,Störenfriede,im,mehr,hätten,Trinkwasser.,am,Krams,elektrischer,Störenfriede,hat,"Zeit,",frisches,ziemlich,salziger,sauberen,Wetters,den,purem,um,salzige,Wetter,serviert.,leider,im,des,geschleudert.,frischen,gelegentlichen,Wäsche.,was,noch,ungefähr,serviert.,eine,wurden,harten,von,immer,Tiere,einen,Glas,eine,Auto,die,minimalem,"frischem,",seltenem,Glas,der,350,liegen,zusätzlichem,leider,roten,Mann,klassischen,elektrische,unzureichenden,täglichem,Skandal,einem,Wäsche.,künftigem,Bundespräsident.,350,kaltem,auf,feinem,würden,des,"reichem,","nachgewiesen,",die,die,roten,wurden,Lärm,sie,feinem,liegen,geschleudert.,monatlichem,unzureichenden,sie,noch,deren,hat,war,,,,,,,,,,,,,,,,,,,,,,,1,0,1,0,0,5,5,5,,,,,,,space,0.453632116318,,,,,,2017_Jan_27_1259,59.4805964646,spr_backupper,001,Fr13,
,Esslöffel,wiedergewählt.,um,Untergrund,sie,als,Dezember,aus,jeden,nan,jeden.,Müll.,als,seiner,nan,Hauptbahnhof.,aus,Energie.,jeden.,den,um,Gras,"vermiest,",Wurst,Kraftstoff,die,Soldaten,Alkohol,die,Wurst,die,nan,nichts,Müll.,Herrn,nan,Grases,Besucher.,nan,Tupperware,eine,drei,nan,große,verschrottet.,Schaumstoff,den,ruhig,artgerecht,Besucher.,köstlicher,große,mehr,er,täglichen,kaltem,dichten,köstlichen,Soldaten,ml,die,schwarzem,nichts,Planeten,mehr,Schmuck,Energie.,Helmen,grünen,wiedergewählt.,Esslöffel,nan,Einkommen,nan,ml,Abduschen,jeden,Kunsteis,seiner,Herrn,goldenen,dass,Stimmung,Flut,Planet,verschrottet.,um,defekt,dichten,die,nan,Taschengeld,Helmen,defekt,eine,sie,den,aus,,,,,,,,,,,,,,,,,,,,,,,1,0,1,0,0,6,6,6,,,,,,,space,0.409688949585,,,,,,2017_Jan_27_1259,59.4805964646,spr_backupper,001,Fr13,
,warmen,nan,jede,liegen.,überführt,einmal,stattfinden.,dem,Fall,nan,nan,nan,einmal,Frau,nan,nan,dem,nan,nan,Boden,Nadelhölzer,zwängen.,dass,mit,fahren.,Wohnung.,des,verdünnt.,Probleme,mit,Wohnung.,nan,mitbringen.,nan,Gantenbein.,nan,zwängen.,nan,nan,ist.,Sammlung,Tage.,nan,Menge,nan,gefertigt.,Problemen,diskutiert.,gehalten.,nan,Wein,Menge,als,trug.,Einsatz,Saft,Gewebe,Weins,des,warme,Slums.,Kaffee,mitbringen.,ganz,als,umgearbeitet.,nan,zur,Tee,nan,warmem,nan,haftbar.,nan,warmer,gehärtet.,Fall,eingesprüht.,Frau,Gantenbeins.,Besatz,das,ziemlich,zurückgekehrt.,ganz,nan,jede,war.,Stoff,Slums.,nan,selber,zur,war.,Sammlung,überführt,Boden,Japan.,,,,,,,,,,,,,,,,,,,,,,,1,0,1,0,0,7,7,7,,,,,,,space,0.394140005112,,,,,,2017_Jan_27_1259,59.4805964646,spr_backupper,001,Fr13,
,Honigs,nan,Menge,nan,wurden.,Rilke,nan,Haus,genug.,nan,nan,nan,Rilke.,gepasst.,nan,nan,Haus,nan,nan,berührt.,umzusetzen.,nan,es,an,nan,nan,zweiten,nan,im,an,nan,nan,nan,nan,nan,nan,nan,nan,nan,nan,dumme,nan,nan,dunkle,nan,nan,im,nan,nan,nan,schon,dunkler,gerne.,nan,sinken.,besprochen.,wiederhergestellt.,schon,zweiten,Milch.,nan,wiederbelebt.,nan,deutlich.,gerne.,nan,nan,Schule.,wieder,nan,Honig,nan,nan,nan,Milch.,nan,genug.,nan,gepasst,nan,rekonstruiert.,Medikament,vermiest.,nan,deutlich.,nan,Menge,nan,gefertigt.,nan,nan,kaufen.,Schule.,nan,dummer,wurden.,berührt.,nan,,,,,,,,,,,,,,,,,,,,,,,1,0,1,0,0,8,8,8,,,,,,,space,0.408658027649,,,,,,2017_Jan_27_1259,59.4805964646,spr_backupper,001,Fr13,
,her.,nan,heißer,nan,nan,gelesen.,nan,geschafft.,nan,nan,nan,nan,nan,nan,nan,nan,geschafft.,nan,nan,nan,nan,nan,regnete.,den,nan,nan,Weltkriegs.,nan,Landkreis.,den,nan,nan,nan,nan,nan,nan,nan,nan,nan,nan,Sprüche.,nan,nan,Materie,nan,nan,Landkreis.,nan,nan,nan,auf,Materie,nan,nan,nan,nan,nan,auf,Weltkriegs.,nan,nan,nan,nan,nan,nan,nan,nan,nan,fit.,nan,her.,nan,nan,nan,nan,nan,nan,nan,haben.,nan,nan,nicht,nan,nan,nan,nan,heiße,nan,nan,nan,nan,nan,nan,nan,Sprüche.,nan,nan,nan,,,,,,,,,,,,,,,,,,,,,,,1,0,1,0,0,9,9,9,,,,,,,space,0.427542209625,,,,,,2017_Jan_27_1259,59.4805964646,spr_backupper,001,Fr13,
,,,,,,,,,,,,,,,,,,,,,,,,,,,,,,,,,,,,,,,,,,,,,,,,,,,,,,,,,,,,,,,,,,,,,,,,,,,,,,,,,,,,,,,,,,,,,,,,,,,,,,,,,,,,,,,,,,,,,,,,,1,0,1,0,,,,,,,,,,,,,None,j,3.01848387718,,,2017_Jan_27_1259,59.4805964646,spr_backupper,001,Fr13,
,Er,Er,Man,Jungtiere,Es,In,Unter,Wir,100,Sie,Außer,Viele,In,Die,Sie,Die,Wir,Die,Außer,Nicht,Jetzt,Wir,Es,Ich,Wir,Sie,Bei,Die,In,Ich,Sie,Beträchtliche,Außer,Viele,Die,Es,Wir,Wir,Dort,Die,Sie,Der,Beträchtliche,Mit,Die,Alle,In,Fernab,In,Wir,Bei,Mit,Wir,Die,Ihr,Sie,Danach,Bei,Bei,In,Am,Die,Außer,Im,Wir,Die,Die,Die,Ich,Er,Er,Dort,Manche,Walter,In,Die,100,Die,Die,Die,Das,In,Dass,Als,Im,Die,Man,Die,Er,Am,Es,Jugendliche,Die,Die,Sie,Es,Nicht,Die,,,,,,,,,,,,,,,,,,,,,,,2,0,2,0,0,0,0,0,,,,,,space,space,0.350563049316,,,,0.638047933578,,2017_Jan_27_1259,59.4805964646,spr_backupper,001,Fr13,
,stellt,wurde,machte,sollten,waren,meinem,keinen,haben,g,verbrauchen,den,Tonnen,meinem,Schuhe,verbrauchen,Linie,haben,Schule,dem,ein,ist,mussten,hat,nehme,konnten,verlassen,der,Lösung,der,nehme,verlassen,Stücke,das,Tonnen,Gäste,wurden,mussten,hatten,türmen,Teilnehmerinnen,hatte,Flug,Stücke,dieser,Autos,Betten,der,des,diesem,hatten,unserer,dieser,übergaben,Uhr,Blutdruck,haben,wurde,unserer,der,den,äußersten,müden,dem,Fernrohr,übergaben,Stücke,Schule,Kinder,wurde,wurde,stellt,türmen,Kreditnehmer,Scheel,den,Formen,g,Eislaufbahnen,Schuhe,Gäste,Tuch,einer,es,die,Fernrohr,Autos,machte,Uhr,hat,äußeren,wurden,können,Kinder,Uhr,hatte,waren,ein,"Uhr,",,,,,,,,,,,,,,,,,,,,,,,2,0,2,0,0,1,1,1,,,,,,,space,0.436349868774,,,,,,2017_Jan_27_1259,59.4805964646,spr_backupper,001,Fr13,
,die,trotz,mal,immer,nur,Studium,Umständen,jede,brauner,60,Bürgermeister,gebrauchte,Studium,in,60,101,jede,verbraucht,Bürgermeister,Tropfen,genau,uns,uns,eine,dann,wegen,Feier,wird,Tat,eine,wegen,saftigen,Essen,gebrauchter,suchen,Eimer,uns,in,sich,wussten,keine,zum,saftiges,Methode,beider,wurden,Tat,Rummels,Zirkus,in,Ankunft,Methode,dem,war,kann,die,die,Ankunft,Feier,Kakao,Rand,Teilnehmer,Essen,sahen,das,wurden,verbraucht,fuhren,damals,trotz,die,sich,sind,war,Kakao,wurden,braunen,wurden,in,suchen,wurde,Studie,"regnete,",Sonne,sahen,beider,mal,schlug,ein,Rand,Eimer,Kleidung,fuhren,schlug,keine,nur,Tropfen,die,,,,,,,,,,,,,,,,,,,,,,,2,0,2,0,0,2,2,2,,,,,,,space,0.437097072601,,,,,,2017_Jan_27_1259,59.4805964646,spr_backupper,001,Fr13,
,Masse,des,wieder,auf,kleinere,habe,können,Menge,Zucker,Liter,beschuldigten,Kleidung,las,Größe,Liter,hält,Menge,260.000,beschuldigten,königliches,die,durch,die,große,mit,des,gedachte,mit,wissen,große,dem,Fleischs,kann,Kleidung,die,rote,durch,Dänemark,Berge,überwiegend,Lust,Mond,Fleisch,kann,beteiligten,mit,wissen,wurde,werden,Dänemark,stand,kann,Mann,aus,schon,Erlebnisse,Leinwand,stand,gedachte,gehören,der,wurden,kann,wir,Auto,aus,260.000,mit,schnell,dem,Masse,Berge,mit,der,gehören,unter,Zuckers,mit,Größe,die,dann,wurde,hat,"unterging,",wir,beteiligter,wieder,"sporadisch,",Hemd,der,roter,bei,mit,"sporadisch,",Lust,kleinere,königlichen,er,,,,,,,,,,,,,,,,,,,,,,,2,0,2,0,0,3,3,3,,,,,,,space,0.35768198967,,,,,,2017_Jan_27_1259,59.4805964646,spr_backupper,001,Fr13,
,mit,bekannten,viel,warmem,"Delikte,",ich,Neuwahlen,alten,sind,sprudelnden,die,landen,ich,36,sprudelndes,nicht,alten,Kilowattstunden,die,Blut,richtige,Büschel,Stimmung,Packung,"minimalem,",schönen,man,"reichlichem,",wir,Packung,schönen,wurden,ich,landen,Wohnung,Farbe,Büschel,einen,schmutziger,"nicht,",auf,dauerte,wurden,man,Fahrer,"üblichem,",wir,schon,die,gelegentlich,ein,man,das,"Japan,",bei,bei,aus,ein,man,immer,Stadt,mit,ich,den,dem,"wertvollem,",Kilowattstunden,solch,dank,bekannten,mit,schmutzige,"sämtlichem,",vierte,immer,"regelmäßigem,",sind,dauerhaftem,36,Wohnung,mit,jetzt,uns,war,den,Fahrer,viel,obschon,aus,Stadt,Farbe,ausreichendem,solchen,obwohl,auf,"Delikte,",Bluts,"trug,",,,,,,,,,,,,,,,,,,,,,,,2,0,2,0,0,4,4,4,,,,,,,space,0.40872502327,,,,,,2017_Jan_27_1259,59.4805964646,spr_backupper,001,Fr13,
,einem,Skandals,Lärm,weichem,derer,mehr,vor,Kram,auf,Trinkwassers.,Störenfriede,im,mehr,hätten,Trinkwasser.,am,Krams,elektrischer,Störenfriede,hat,"Zeit,",frisches,ziemlich,salziger,sauberen,Wetters,den,purem,um,salzige,Wetter,serviert.,leider,im,des,geschleudert.,frischen,gelegentlichen,Wäsche.,was,noch,ungefähr,serviert.,eine,wurden,harten,von,immer,Tiere,einen,Glas,eine,Auto,die,minimalem,"frischem,",seltenem,Glas,der,350,liegen,zusätzlichem,leider,roten,Mann,klassischen,elektrische,unzureichenden,täglichem,Skandal,einem,Wäsche.,künftigem,Bundespräsident.,350,kaltem,auf,feinem,würden,des,"reichem,","nachgewiesen,",die,die,roten,wurden,Lärm,sie,feinem,liegen,geschleudert.,monatlichem,unzureichenden,sie,noch,deren,hat,war,,,,,,,,,,,,,,,,,,,,,,,2,0,2,0,0,5,5,5,,,,,,,space,0.399173021317,,,,,,2017_Jan_27_1259,59.4805964646,spr_backupper,001,Fr13,
,Esslöffel,wiedergewählt.,um,Untergrund,sie,als,Dezember,aus,jeden,nan,jeden.,Müll.,als,seiner,nan,Hauptbahnhof.,aus,Energie.,jeden.,den,um,Gras,"vermiest,",Wurst,Kraftstoff,die,Soldaten,Alkohol,die,Wurst,die,nan,nichts,Müll.,Herrn,nan,Grases,Besucher.,nan,Tupperware,eine,drei,nan,große,verschrottet.,Schaumstoff,den,ruhig,artgerecht,Besucher.,köstlicher,große,mehr,er,täglichen,kaltem,dichten,köstlichen,Soldaten,ml,die,schwarzem,nichts,Planeten,mehr,Schmuck,Energie.,Helmen,grünen,wiedergewählt.,Esslöffel,nan,Einkommen,nan,ml,Abduschen,jeden,Kunsteis,seiner,Herrn,goldenen,dass,Stimmung,Flut,Planet,verschrottet.,um,defekt,dichten,die,nan,Taschengeld,Helmen,defekt,eine,sie,den,aus,,,,,,,,,,,,,,,,,,,,,,,2,0,2,0,0,6,6,6,,,,,,,space,0.359421014786,,,,,,2017_Jan_27_1259,59.4805964646,spr_backupper,001,Fr13,
,warmen,nan,jede,liegen.,überführt,einmal,stattfinden.,dem,Fall,nan,nan,nan,einmal,Frau,nan,nan,dem,nan,nan,Boden,Nadelhölzer,zwängen.,dass,mit,fahren.,Wohnung.,des,verdünnt.,Probleme,mit,Wohnung.,nan,mitbringen.,nan,Gantenbein.,nan,zwängen.,nan,nan,ist.,Sammlung,Tage.,nan,Menge,nan,gefertigt.,Problemen,diskutiert.,gehalten.,nan,Wein,Menge,als,trug.,Einsatz,Saft,Gewebe,Weins,des,warme,Slums.,Kaffee,mitbringen.,ganz,als,umgearbeitet.,nan,zur,Tee,nan,warmem,nan,haftbar.,nan,warmer,gehärtet.,Fall,eingesprüht.,Frau,Gantenbeins.,Besatz,das,ziemlich,zurückgekehrt.,ganz,nan,jede,war.,Stoff,Slums.,nan,selber,zur,war.,Sammlung,überführt,Boden,Japan.,,,,,,,,,,,,,,,,,,,,,,,2,0,2,0,0,7,7,7,,,,,,,space,0.367557048798,,,,,,2017_Jan_27_1259,59.4805964646,spr_backupper,001,Fr13,
,Honigs,nan,Menge,nan,wurden.,Rilke,nan,Haus,genug.,nan,nan,nan,Rilke.,gepasst.,nan,nan,Haus,nan,nan,berührt.,umzusetzen.,nan,es,an,nan,nan,zweiten,nan,im,an,nan,nan,nan,nan,nan,nan,nan,nan,nan,nan,dumme,nan,nan,dunkle,nan,nan,im,nan,nan,nan,schon,dunkler,gerne.,nan,sinken.,besprochen.,wiederhergestellt.,schon,zweiten,Milch.,nan,wiederbelebt.,nan,deutlich.,gerne.,nan,nan,Schule.,wieder,nan,Honig,nan,nan,nan,Milch.,nan,genug.,nan,gepasst,nan,rekonstruiert.,Medikament,vermiest.,nan,deutlich.,nan,Menge,nan,gefertigt.,nan,nan,kaufen.,Schule.,nan,dummer,wurden.,berührt.,nan,,,,,,,,,,,,,,,,,,,,,,,2,0,2,0,0,8,8,8,,,,,,,space,0.409760951996,,,,,,2017_Jan_27_1259,59.4805964646,spr_backupper,001,Fr13,
,,,,,,,,,,,,,,,,,,,,,,,,,,,,,,,,,,,,,,,,,,,,,,,,,,,,,,,,,,,,,,,,,,,,,,,,,,,,,,,,,,,,,,,,,,,,,,,,,,,,,,,,,,,,,,,,,,,,,,,,,2,0,2,0,,,,,,,,,,,,,None,j,1.68071889877,,,2017_Jan_27_1259,59.4805964646,spr_backupper,001,Fr13,
,Er,Er,Man,Jungtiere,Es,In,Unter,Wir,100,Sie,Außer,Viele,In,Die,Sie,Die,Wir,Die,Außer,Nicht,Jetzt,Wir,Es,Ich,Wir,Sie,Bei,Die,In,Ich,Sie,Beträchtliche,Außer,Viele,Die,Es,Wir,Wir,Dort,Die,Sie,Der,Beträchtliche,Mit,Die,Alle,In,Fernab,In,Wir,Bei,Mit,Wir,Die,Ihr,Sie,Danach,Bei,Bei,In,Am,Die,Außer,Im,Wir,Die,Die,Die,Ich,Er,Er,Dort,Manche,Walter,In,Die,100,Die,Die,Die,Das,In,Dass,Als,Im,Die,Man,Die,Er,Am,Es,Jugendliche,Die,Die,Sie,Es,Nicht,Die,,,,,,,,,,,,,,,,,,,,,,,3,0,3,0,0,0,0,0,,,,,,None,space,0.354610919952,,,,,,2017_Jan_27_1259,59.4805964646,spr_backupper,001,Fr13,
,stellt,wurde,machte,sollten,waren,meinem,keinen,haben,g,verbrauchen,den,Tonnen,meinem,Schuhe,verbrauchen,Linie,haben,Schule,dem,ein,ist,mussten,hat,nehme,konnten,verlassen,der,Lösung,der,nehme,verlassen,Stücke,das,Tonnen,Gäste,wurden,mussten,hatten,türmen,Teilnehmerinnen,hatte,Flug,Stücke,dieser,Autos,Betten,der,des,diesem,hatten,unserer,dieser,übergaben,Uhr,Blutdruck,haben,wurde,unserer,der,den,äußersten,müden,dem,Fernrohr,übergaben,Stücke,Schule,Kinder,wurde,wurde,stellt,türmen,Kreditnehmer,Scheel,den,Formen,g,Eislaufbahnen,Schuhe,Gäste,Tuch,einer,es,die,Fernrohr,Autos,machte,Uhr,hat,äußeren,wurden,können,Kinder,Uhr,hatte,waren,ein,"Uhr,",,,,,,,,,,,,,,,,,,,,,,,3,0,3,0,0,1,1,1,,,,,,,space,0.389573097229,,,,,,2017_Jan_27_1259,59.4805964646,spr_backupper,001,Fr13,
,die,trotz,mal,immer,nur,Studium,Umständen,jede,brauner,60,Bürgermeister,gebrauchte,Studium,in,60,101,jede,verbraucht,Bürgermeister,Tropfen,genau,uns,uns,eine,dann,wegen,Feier,wird,Tat,eine,wegen,saftigen,Essen,gebrauchter,suchen,Eimer,uns,in,sich,wussten,keine,zum,saftiges,Methode,beider,wurden,Tat,Rummels,Zirkus,in,Ankunft,Methode,dem,war,kann,die,die,Ankunft,Feier,Kakao,Rand,Teilnehmer,Essen,sahen,das,wurden,verbraucht,fuhren,damals,trotz,die,sich,sind,war,Kakao,wurden,braunen,wurden,in,suchen,wurde,Studie,"regnete,",Sonne,sahen,beider,mal,schlug,ein,Rand,Eimer,Kleidung,fuhren,schlug,keine,nur,Tropfen,die,,,,,,,,,,,,,,,,,,,,,,,3,0,3,0,0,2,2,2,,,,,,,space,0.347974061966,,,,,,2017_Jan_27_1259,59.4805964646,spr_backupper,001,Fr13,
,Masse,des,wieder,auf,kleinere,habe,können,Menge,Zucker,Liter,beschuldigten,Kleidung,las,Größe,Liter,hält,Menge,260.000,beschuldigten,königliches,die,durch,die,große,mit,des,gedachte,mit,wissen,große,dem,Fleischs,kann,Kleidung,die,rote,durch,Dänemark,Berge,überwiegend,Lust,Mond,Fleisch,kann,beteiligten,mit,wissen,wurde,werden,Dänemark,stand,kann,Mann,aus,schon,Erlebnisse,Leinwand,stand,gedachte,gehören,der,wurden,kann,wir,Auto,aus,260.000,mit,schnell,dem,Masse,Berge,mit,der,gehören,unter,Zuckers,mit,Größe,die,dann,wurde,hat,"unterging,",wir,beteiligter,wieder,"sporadisch,",Hemd,der,roter,bei,mit,"sporadisch,",Lust,kleinere,königlichen,er,,,,,,,,,,,,,,,,,,,,,,,3,0,3,0,0,3,3,3,,,,,,,space,0.339536905289,,,,,,2017_Jan_27_1259,59.4805964646,spr_backupper,001,Fr13,
,mit,bekannten,viel,warmem,"Delikte,",ich,Neuwahlen,alten,sind,sprudelnden,die,landen,ich,36,sprudelndes,nicht,alten,Kilowattstunden,die,Blut,richtige,Büschel,Stimmung,Packung,"minimalem,",schönen,man,"reichlichem,",wir,Packung,schönen,wurden,ich,landen,Wohnung,Farbe,Büschel,einen,schmutziger,"nicht,",auf,dauerte,wurden,man,Fahrer,"üblichem,",wir,schon,die,gelegentlich,ein,man,das,"Japan,",bei,bei,aus,ein,man,immer,Stadt,mit,ich,den,dem,"wertvollem,",Kilowattstunden,solch,dank,bekannten,mit,schmutzige,"sämtlichem,",vierte,immer,"regelmäßigem,",sind,dauerhaftem,36,Wohnung,mit,jetzt,uns,war,den,Fahrer,viel,obschon,aus,Stadt,Farbe,ausreichendem,solchen,obwohl,auf,"Delikte,",Bluts,"trug,",,,,,,,,,,,,,,,,,,,,,,,3,0,3,0,0,4,4,4,,,,,,,space,0.369971036911,,,,,,2017_Jan_27_1259,59.4805964646,spr_backupper,001,Fr13,
,einem,Skandals,Lärm,weichem,derer,mehr,vor,Kram,auf,Trinkwassers.,Störenfriede,im,mehr,hätten,Trinkwasser.,am,Krams,elektrischer,Störenfriede,hat,"Zeit,",frisches,ziemlich,salziger,sauberen,Wetters,den,purem,um,salzige,Wetter,serviert.,leider,im,des,geschleudert.,frischen,gelegentlichen,Wäsche.,was,noch,ungefähr,serviert.,eine,wurden,harten,von,immer,Tiere,einen,Glas,eine,Auto,die,minimalem,"frischem,",seltenem,Glas,der,350,liegen,zusätzlichem,leider,roten,Mann,klassischen,elektrische,unzureichenden,täglichem,Skandal,einem,Wäsche.,künftigem,Bundespräsident.,350,kaltem,auf,feinem,würden,des,"reichem,","nachgewiesen,",die,die,roten,wurden,Lärm,sie,feinem,liegen,geschleudert.,monatlichem,unzureichenden,sie,noch,deren,hat,war,,,,,,,,,,,,,,,,,,,,,,,3,0,3,0,0,5,5,5,,,,,,,space,0.398931980133,,,,,,2017_Jan_27_1259,59.4805964646,spr_backupper,001,Fr13,
,Esslöffel,wiedergewählt.,um,Untergrund,sie,als,Dezember,aus,jeden,nan,jeden.,Müll.,als,seiner,nan,Hauptbahnhof.,aus,Energie.,jeden.,den,um,Gras,"vermiest,",Wurst,Kraftstoff,die,Soldaten,Alkohol,die,Wurst,die,nan,nichts,Müll.,Herrn,nan,Grases,Besucher.,nan,Tupperware,eine,drei,nan,große,verschrottet.,Schaumstoff,den,ruhig,artgerecht,Besucher.,köstlicher,große,mehr,er,täglichen,kaltem,dichten,köstlichen,Soldaten,ml,die,schwarzem,nichts,Planeten,mehr,Schmuck,Energie.,Helmen,grünen,wiedergewählt.,Esslöffel,nan,Einkommen,nan,ml,Abduschen,jeden,Kunsteis,seiner,Herrn,goldenen,dass,Stimmung,Flut,Planet,verschrottet.,um,defekt,dichten,die,nan,Taschengeld,Helmen,defekt,eine,sie,den,aus,,,,,,,,,,,,,,,,,,,,,,,3,0,3,0,0,6,6,6,,,,,,,space,0.335623979568,,,,,,2017_Jan_27_1259,59.4805964646,spr_backupper,001,Fr13,
,,,,,,,,,,,,,,,,,,,,,,,,,,,,,,,,,,,,,,,,,,,,,,,,,,,,,,,,,,,,,,,,,,,,,,,,,,,,,,,,,,,,,,,,,,,,,,,,,,,,,,,,,,,,,,,,,,,,,,,,,3,0,3,0,,,,,,,,,,,,,None,j,6.64148688316,,,2017_Jan_27_1259,59.4805964646,spr_backupper,001,Fr13,
,Er,Er,Man,Jungtiere,Es,In,Unter,Wir,100,Sie,Außer,Viele,In,Die,Sie,Die,Wir,Die,Außer,Nicht,Jetzt,Wir,Es,Ich,Wir,Sie,Bei,Die,In,Ich,Sie,Beträchtliche,Außer,Viele,Die,Es,Wir,Wir,Dort,Die,Sie,Der,Beträchtliche,Mit,Die,Alle,In,Fernab,In,Wir,Bei,Mit,Wir,Die,Ihr,Sie,Danach,Bei,Bei,In,Am,Die,Außer,Im,Wir,Die,Die,Die,Ich,Er,Er,Dort,Manche,Walter,In,Die,100,Die,Die,Die,Das,In,Dass,Als,Im,Die,Man,Die,Er,Am,Es,Jugendliche,Die,Die,Sie,Es,Nicht,Die,,,,,,,,,,,,,,,,,,,,,,,4,0,4,0,0,0,0,0,,,,,,None,space,0.335433959961,,,,,,2017_Jan_27_1259,59.4805964646,spr_backupper,001,Fr13,
,stellt,wurde,machte,sollten,waren,meinem,keinen,haben,g,verbrauchen,den,Tonnen,meinem,Schuhe,verbrauchen,Linie,haben,Schule,dem,ein,ist,mussten,hat,nehme,konnten,verlassen,der,Lösung,der,nehme,verlassen,Stücke,das,Tonnen,Gäste,wurden,mussten,hatten,türmen,Teilnehmerinnen,hatte,Flug,Stücke,dieser,Autos,Betten,der,des,diesem,hatten,unserer,dieser,übergaben,Uhr,Blutdruck,haben,wurde,unserer,der,den,äußersten,müden,dem,Fernrohr,übergaben,Stücke,Schule,Kinder,wurde,wurde,stellt,türmen,Kreditnehmer,Scheel,den,Formen,g,Eislaufbahnen,Schuhe,Gäste,Tuch,einer,es,die,Fernrohr,Autos,machte,Uhr,hat,äußeren,wurden,können,Kinder,Uhr,hatte,waren,ein,"Uhr,",,,,,,,,,,,,,,,,,,,,,,,4,0,4,0,0,1,1,1,,,,,,,space,0.410426139832,,,,,,2017_Jan_27_1259,59.4805964646,spr_backupper,001,Fr13,
,die,trotz,mal,immer,nur,Studium,Umständen,jede,brauner,60,Bürgermeister,gebrauchte,Studium,in,60,101,jede,verbraucht,Bürgermeister,Tropfen,genau,uns,uns,eine,dann,wegen,Feier,wird,Tat,eine,wegen,saftigen,Essen,gebrauchter,suchen,Eimer,uns,in,sich,wussten,keine,zum,saftiges,Methode,beider,wurden,Tat,Rummels,Zirkus,in,Ankunft,Methode,dem,war,kann,die,die,Ankunft,Feier,Kakao,Rand,Teilnehmer,Essen,sahen,das,wurden,verbraucht,fuhren,damals,trotz,die,sich,sind,war,Kakao,wurden,braunen,wurden,in,suchen,wurde,Studie,"regnete,",Sonne,sahen,beider,mal,schlug,ein,Rand,Eimer,Kleidung,fuhren,schlug,keine,nur,Tropfen,die,,,,,,,,,,,,,,,,,,,,,,,4,0,4,0,0,2,2,2,,,,,,,space,0.352854967117,,,,,,2017_Jan_27_1259,59.4805964646,spr_backupper,001,Fr13,
,Masse,des,wieder,auf,kleinere,habe,können,Menge,Zucker,Liter,beschuldigten,Kleidung,las,Größe,Liter,hält,Menge,260.000,beschuldigten,königliches,die,durch,die,große,mit,des,gedachte,mit,wissen,große,dem,Fleischs,kann,Kleidung,die,rote,durch,Dänemark,Berge,überwiegend,Lust,Mond,Fleisch,kann,beteiligten,mit,wissen,wurde,werden,Dänemark,stand,kann,Mann,aus,schon,Erlebnisse,Leinwand,stand,gedachte,gehören,der,wurden,kann,wir,Auto,aus,260.000,mit,schnell,dem,Masse,Berge,mit,der,gehören,unter,Zuckers,mit,Größe,die,dann,wurde,hat,"unterging,",wir,beteiligter,wieder,"sporadisch,",Hemd,der,roter,bei,mit,"sporadisch,",Lust,kleinere,königlichen,er,,,,,,,,,,,,,,,,,,,,,,,4,0,4,0,0,3,3,3,,,,,,,space,0.559694051743,,,,,,2017_Jan_27_1259,59.4805964646,spr_backupper,001,Fr13,
,mit,bekannten,viel,warmem,"Delikte,",ich,Neuwahlen,alten,sind,sprudelnden,die,landen,ich,36,sprudelndes,nicht,alten,Kilowattstunden,die,Blut,richtige,Büschel,Stimmung,Packung,"minimalem,",schönen,man,"reichlichem,",wir,Packung,schönen,wurden,ich,landen,Wohnung,Farbe,Büschel,einen,schmutziger,"nicht,",auf,dauerte,wurden,man,Fahrer,"üblichem,",wir,schon,die,gelegentlich,ein,man,das,"Japan,",bei,bei,aus,ein,man,immer,Stadt,mit,ich,den,dem,"wertvollem,",Kilowattstunden,solch,dank,bekannten,mit,schmutzige,"sämtlichem,",vierte,immer,"regelmäßigem,",sind,dauerhaftem,36,Wohnung,mit,jetzt,uns,war,den,Fahrer,viel,obschon,aus,Stadt,Farbe,ausreichendem,solchen,obwohl,auf,"Delikte,",Bluts,"trug,",,,,,,,,,,,,,,,,,,,,,,,4,0,4,0,0,4,4,4,,,,,,,space,0.39283490181,,,,,,2017_Jan_27_1259,59.4805964646,spr_backupper,001,Fr13,
,einem,Skandals,Lärm,weichem,derer,mehr,vor,Kram,auf,Trinkwassers.,Störenfriede,im,mehr,hätten,Trinkwasser.,am,Krams,elektrischer,Störenfriede,hat,"Zeit,",frisches,ziemlich,salziger,sauberen,Wetters,den,purem,um,salzige,Wetter,serviert.,leider,im,des,geschleudert.,frischen,gelegentlichen,Wäsche.,was,noch,ungefähr,serviert.,eine,wurden,harten,von,immer,Tiere,einen,Glas,eine,Auto,die,minimalem,"frischem,",seltenem,Glas,der,350,liegen,zusätzlichem,leider,roten,Mann,klassischen,elektrische,unzureichenden,täglichem,Skandal,einem,Wäsche.,künftigem,Bundespräsident.,350,kaltem,auf,feinem,würden,des,"reichem,","nachgewiesen,",die,die,roten,wurden,Lärm,sie,feinem,liegen,geschleudert.,monatlichem,unzureichenden,sie,noch,deren,hat,war,,,,,,,,,,,,,,,,,,,,,,,4,0,4,0,0,5,5,5,,,,,,,space,0.542443037033,,,,,,2017_Jan_27_1259,59.4805964646,spr_backupper,001,Fr13,
,Esslöffel,wiedergewählt.,um,Untergrund,sie,als,Dezember,aus,jeden,nan,jeden.,Müll.,als,seiner,nan,Hauptbahnhof.,aus,Energie.,jeden.,den,um,Gras,"vermiest,",Wurst,Kraftstoff,die,Soldaten,Alkohol,die,Wurst,die,nan,nichts,Müll.,Herrn,nan,Grases,Besucher.,nan,Tupperware,eine,drei,nan,große,verschrottet.,Schaumstoff,den,ruhig,artgerecht,Besucher.,köstlicher,große,mehr,er,täglichen,kaltem,dichten,köstlichen,Soldaten,ml,die,schwarzem,nichts,Planeten,mehr,Schmuck,Energie.,Helmen,grünen,wiedergewählt.,Esslöffel,nan,Einkommen,nan,ml,Abduschen,jeden,Kunsteis,seiner,Herrn,goldenen,dass,Stimmung,Flut,Planet,verschrottet.,um,defekt,dichten,die,nan,Taschengeld,Helmen,defekt,eine,sie,den,aus,,,,,,,,,,,,,,,,,,,,,,,4,0,4,0,0,6,6,6,,,,,,,space,0.534376144409,,,,,,2017_Jan_27_1259,59.4805964646,spr_backupper,001,Fr13,
,,,,,,,,,,,,,,,,,,,,,,,,,,,,,,,,,,,,,,,,,,,,,,,,,,,,,,,,,,,,,,,,,,,,,,,,,,,,,,,,,,,,,,,,,,,,,,,,,,,,,,,,,,,,,,,,,,,,,,,,,4,0,4,0,,,,,,,,,,,,,None,n,1.29150605202,,,2017_Jan_27_1259,59.4805964646,spr_backupper,001,Fr13,
,Er,Er,Man,Jungtiere,Es,In,Unter,Wir,100,Sie,Außer,Viele,In,Die,Sie,Die,Wir,Die,Außer,Nicht,Jetzt,Wir,Es,Ich,Wir,Sie,Bei,Die,In,Ich,Sie,Beträchtliche,Außer,Viele,Die,Es,Wir,Wir,Dort,Die,Sie,Der,Beträchtliche,Mit,Die,Alle,In,Fernab,In,Wir,Bei,Mit,Wir,Die,Ihr,Sie,Danach,Bei,Bei,In,Am,Die,Außer,Im,Wir,Die,Die,Die,Ich,Er,Er,Dort,Manche,Walter,In,Die,100,Die,Die,Die,Das,In,Dass,Als,Im,Die,Man,Die,Er,Am,Es,Jugendliche,Die,Die,Sie,Es,Nicht,Die,,,,,,,,,,,,,,,,,,,,,,,5,0,5,0,0,0,0,0,,,,,,None,space,0.386240959167,,,,,,2017_Jan_27_1259,59.4805964646,spr_backupper,001,Fr13,
,stellt,wurde,machte,sollten,waren,meinem,keinen,haben,g,verbrauchen,den,Tonnen,meinem,Schuhe,verbrauchen,Linie,haben,Schule,dem,ein,ist,mussten,hat,nehme,konnten,verlassen,der,Lösung,der,nehme,verlassen,Stücke,das,Tonnen,Gäste,wurden,mussten,hatten,türmen,Teilnehmerinnen,hatte,Flug,Stücke,dieser,Autos,Betten,der,des,diesem,hatten,unserer,dieser,übergaben,Uhr,Blutdruck,haben,wurde,unserer,der,den,äußersten,müden,dem,Fernrohr,übergaben,Stücke,Schule,Kinder,wurde,wurde,stellt,türmen,Kreditnehmer,Scheel,den,Formen,g,Eislaufbahnen,Schuhe,Gäste,Tuch,einer,es,die,Fernrohr,Autos,machte,Uhr,hat,äußeren,wurden,können,Kinder,Uhr,hatte,waren,ein,"Uhr,",,,,,,,,,,,,,,,,,,,,,,,5,0,5,0,0,1,1,1,,,,,,,space,0.36972284317,,,,,,2017_Jan_27_1259,59.4805964646,spr_backupper,001,Fr13,
,die,trotz,mal,immer,nur,Studium,Umständen,jede,brauner,60,Bürgermeister,gebrauchte,Studium,in,60,101,jede,verbraucht,Bürgermeister,Tropfen,genau,uns,uns,eine,dann,wegen,Feier,wird,Tat,eine,wegen,saftigen,Essen,gebrauchter,suchen,Eimer,uns,in,sich,wussten,keine,zum,saftiges,Methode,beider,wurden,Tat,Rummels,Zirkus,in,Ankunft,Methode,dem,war,kann,die,die,Ankunft,Feier,Kakao,Rand,Teilnehmer,Essen,sahen,das,wurden,verbraucht,fuhren,damals,trotz,die,sich,sind,war,Kakao,wurden,braunen,wurden,in,suchen,wurde,Studie,"regnete,",Sonne,sahen,beider,mal,schlug,ein,Rand,Eimer,Kleidung,fuhren,schlug,keine,nur,Tropfen,die,,,,,,,,,,,,,,,,,,,,,,,5,0,5,0,0,2,2,2,,,,,,,space,0.469848155975,,,,,,2017_Jan_27_1259,59.4805964646,spr_backupper,001,Fr13,
,Masse,des,wieder,auf,kleinere,habe,können,Menge,Zucker,Liter,beschuldigten,Kleidung,las,Größe,Liter,hält,Menge,260.000,beschuldigten,königliches,die,durch,die,große,mit,des,gedachte,mit,wissen,große,dem,Fleischs,kann,Kleidung,die,rote,durch,Dänemark,Berge,überwiegend,Lust,Mond,Fleisch,kann,beteiligten,mit,wissen,wurde,werden,Dänemark,stand,kann,Mann,aus,schon,Erlebnisse,Leinwand,stand,gedachte,gehören,der,wurden,kann,wir,Auto,aus,260.000,mit,schnell,dem,Masse,Berge,mit,der,gehören,unter,Zuckers,mit,Größe,die,dann,wurde,hat,"unterging,",wir,beteiligter,wieder,"sporadisch,",Hemd,der,roter,bei,mit,"sporadisch,",Lust,kleinere,königlichen,er,,,,,,,,,,,,,,,,,,,,,,,5,0,5,0,0,3,3,3,,,,,,,space,0.369786024094,,,,,,2017_Jan_27_1259,59.4805964646,spr_backupper,001,Fr13,
,mit,bekannten,viel,warmem,"Delikte,",ich,Neuwahlen,alten,sind,sprudelnden,die,landen,ich,36,sprudelndes,nicht,alten,Kilowattstunden,die,Blut,richtige,Büschel,Stimmung,Packung,"minimalem,",schönen,man,"reichlichem,",wir,Packung,schönen,wurden,ich,landen,Wohnung,Farbe,Büschel,einen,schmutziger,"nicht,",auf,dauerte,wurden,man,Fahrer,"üblichem,",wir,schon,die,gelegentlich,ein,man,das,"Japan,",bei,bei,aus,ein,man,immer,Stadt,mit,ich,den,dem,"wertvollem,",Kilowattstunden,solch,dank,bekannten,mit,schmutzige,"sämtlichem,",vierte,immer,"regelmäßigem,",sind,dauerhaftem,36,Wohnung,mit,jetzt,uns,war,den,Fahrer,viel,obschon,aus,Stadt,Farbe,ausreichendem,solchen,obwohl,auf,"Delikte,",Bluts,"trug,",,,,,,,,,,,,,,,,,,,,,,,5,0,5,0,0,4,4,4,,,,,,,space,0.389806985855,,,,,,2017_Jan_27_1259,59.4805964646,spr_backupper,001,Fr13,
,einem,Skandals,Lärm,weichem,derer,mehr,vor,Kram,auf,Trinkwassers.,Störenfriede,im,mehr,hätten,Trinkwasser.,am,Krams,elektrischer,Störenfriede,hat,"Zeit,",frisches,ziemlich,salziger,sauberen,Wetters,den,purem,um,salzige,Wetter,serviert.,leider,im,des,geschleudert.,frischen,gelegentlichen,Wäsche.,was,noch,ungefähr,serviert.,eine,wurden,harten,von,immer,Tiere,einen,Glas,eine,Auto,die,minimalem,"frischem,",seltenem,Glas,der,350,liegen,zusätzlichem,leider,roten,Mann,klassischen,elektrische,unzureichenden,täglichem,Skandal,einem,Wäsche.,künftigem,Bundespräsident.,350,kaltem,auf,feinem,würden,des,"reichem,","nachgewiesen,",die,die,roten,wurden,Lärm,sie,feinem,liegen,geschleudert.,monatlichem,unzureichenden,sie,noch,deren,hat,war,,,,,,,,,,,,,,,,,,,,,,,5,0,5,0,0,5,5,5,,,,,,,space,0.705681085587,,,,,,2017_Jan_27_1259,59.4805964646,spr_backupper,001,Fr13,
,,,,,,,,,,,,,,,,,,,,,,,,,,,,,,,,,,,,,,,,,,,,,,,,,,,,,,,,,,,,,,,,,,,,,,,,,,,,,,,,,,,,,,,,,,,,,,,,,,,,,,,,,,,,,,,,,,,,,,,,,5,0,5,0,,,,,,,,,,,,,None,n,3.36366987228,,,2017_Jan_27_1259,59.4805964646,spr_backupper,001,Fr13,
,Er,Er,Man,Jungtiere,Es,In,Unter,Wir,100,Sie,Außer,Viele,In,Die,Sie,Die,Wir,Die,Außer,Nicht,Jetzt,Wir,Es,Ich,Wir,Sie,Bei,Die,In,Ich,Sie,Beträchtliche,Außer,Viele,Die,Es,Wir,Wir,Dort,Die,Sie,Der,Beträchtliche,Mit,Die,Alle,In,Fernab,In,Wir,Bei,Mit,Wir,Die,Ihr,Sie,Danach,Bei,Bei,In,Am,Die,Außer,Im,Wir,Die,Die,Die,Ich,Er,Er,Dort,Manche,Walter,In,Die,100,Die,Die,Die,Das,In,Dass,Als,Im,Die,Man,Die,Er,Am,Es,Jugendliche,Die,Die,Sie,Es,Nicht,Die,,,,,,,,,,,,,,,,,,,,,,,6,0,6,0,0,0,0,0,,,,,,None,space,1.48887705803,,,,,,2017_Jan_27_1259,59.4805964646,spr_backupper,001,Fr13,
,stellt,wurde,machte,sollten,waren,meinem,keinen,haben,g,verbrauchen,den,Tonnen,meinem,Schuhe,verbrauchen,Linie,haben,Schule,dem,ein,ist,mussten,hat,nehme,konnten,verlassen,der,Lösung,der,nehme,verlassen,Stücke,das,Tonnen,Gäste,wurden,mussten,hatten,türmen,Teilnehmerinnen,hatte,Flug,Stücke,dieser,Autos,Betten,der,des,diesem,hatten,unserer,dieser,übergaben,Uhr,Blutdruck,haben,wurde,unserer,der,den,äußersten,müden,dem,Fernrohr,übergaben,Stücke,Schule,Kinder,wurde,wurde,stellt,türmen,Kreditnehmer,Scheel,den,Formen,g,Eislaufbahnen,Schuhe,Gäste,Tuch,einer,es,die,Fernrohr,Autos,machte,Uhr,hat,äußeren,wurden,können,Kinder,Uhr,hatte,waren,ein,"Uhr,",,,,,,,,,,,,,,,,,,,,,,,6,0,6,0,0,1,1,1,,,,,,,space,0.755014896393,,,,,,2017_Jan_27_1259,59.4805964646,spr_backupper,001,Fr13,
,die,trotz,mal,immer,nur,Studium,Umständen,jede,brauner,60,Bürgermeister,gebrauchte,Studium,in,60,101,jede,verbraucht,Bürgermeister,Tropfen,genau,uns,uns,eine,dann,wegen,Feier,wird,Tat,eine,wegen,saftigen,Essen,gebrauchter,suchen,Eimer,uns,in,sich,wussten,keine,zum,saftiges,Methode,beider,wurden,Tat,Rummels,Zirkus,in,Ankunft,Methode,dem,war,kann,die,die,Ankunft,Feier,Kakao,Rand,Teilnehmer,Essen,sahen,das,wurden,verbraucht,fuhren,damals,trotz,die,sich,sind,war,Kakao,wurden,braunen,wurden,in,suchen,wurde,Studie,"regnete,",Sonne,sahen,beider,mal,schlug,ein,Rand,Eimer,Kleidung,fuhren,schlug,keine,nur,Tropfen,die,,,,,,,,,,,,,,,,,,,,,,,6,0,6,0,0,2,2,2,,,,,,,space,0.474874973297,,,,,,2017_Jan_27_1259,59.4805964646,spr_backupper,001,Fr13,
,Masse,des,wieder,auf,kleinere,habe,können,Menge,Zucker,Liter,beschuldigten,Kleidung,las,Größe,Liter,hält,Menge,260.000,beschuldigten,königliches,die,durch,die,große,mit,des,gedachte,mit,wissen,große,dem,Fleischs,kann,Kleidung,die,rote,durch,Dänemark,Berge,überwiegend,Lust,Mond,Fleisch,kann,beteiligten,mit,wissen,wurde,werden,Dänemark,stand,kann,Mann,aus,schon,Erlebnisse,Leinwand,stand,gedachte,gehören,der,wurden,kann,wir,Auto,aus,260.000,mit,schnell,dem,Masse,Berge,mit,der,gehören,unter,Zuckers,mit,Größe,die,dann,wurde,hat,"unterging,",wir,beteiligter,wieder,"sporadisch,",Hemd,der,roter,bei,mit,"sporadisch,",Lust,kleinere,königlichen,er,,,,,,,,,,,,,,,,,,,,,,,6,0,6,0,0,3,3,3,,,,,,,space,0.395263910294,,,,,,2017_Jan_27_1259,59.4805964646,spr_backupper,001,Fr13,
,mit,bekannten,viel,warmem,"Delikte,",ich,Neuwahlen,alten,sind,sprudelnden,die,landen,ich,36,sprudelndes,nicht,alten,Kilowattstunden,die,Blut,richtige,Büschel,Stimmung,Packung,"minimalem,",schönen,man,"reichlichem,",wir,Packung,schönen,wurden,ich,landen,Wohnung,Farbe,Büschel,einen,schmutziger,"nicht,",auf,dauerte,wurden,man,Fahrer,"üblichem,",wir,schon,die,gelegentlich,ein,man,das,"Japan,",bei,bei,aus,ein,man,immer,Stadt,mit,ich,den,dem,"wertvollem,",Kilowattstunden,solch,dank,bekannten,mit,schmutzige,"sämtlichem,",vierte,immer,"regelmäßigem,",sind,dauerhaftem,36,Wohnung,mit,jetzt,uns,war,den,Fahrer,viel,obschon,aus,Stadt,Farbe,ausreichendem,solchen,obwohl,auf,"Delikte,",Bluts,"trug,",,,,,,,,,,,,,,,,,,,,,,,6,0,6,0,0,4,4,4,,,,,,,space,0.403565168381,,,,,,2017_Jan_27_1259,59.4805964646,spr_backupper,001,Fr13,
,einem,Skandals,Lärm,weichem,derer,mehr,vor,Kram,auf,Trinkwassers.,Störenfriede,im,mehr,hätten,Trinkwasser.,am,Krams,elektrischer,Störenfriede,hat,"Zeit,",frisches,ziemlich,salziger,sauberen,Wetters,den,purem,um,salzige,Wetter,serviert.,leider,im,des,geschleudert.,frischen,gelegentlichen,Wäsche.,was,noch,ungefähr,serviert.,eine,wurden,harten,von,immer,Tiere,einen,Glas,eine,Auto,die,minimalem,"frischem,",seltenem,Glas,der,350,liegen,zusätzlichem,leider,roten,Mann,klassischen,elektrische,unzureichenden,täglichem,Skandal,einem,Wäsche.,künftigem,Bundespräsident.,350,kaltem,auf,feinem,würden,des,"reichem,","nachgewiesen,",die,die,roten,wurden,Lärm,sie,feinem,liegen,geschleudert.,monatlichem,unzureichenden,sie,noch,deren,hat,war,,,,,,,,,,,,,,,,,,,,,,,6,0,6,0,0,5,5,5,,,,,,,space,0.429456949234,,,,,,2017_Jan_27_1259,59.4805964646,spr_backupper,001,Fr13,
,Esslöffel,wiedergewählt.,um,Untergrund,sie,als,Dezember,aus,jeden,nan,jeden.,Müll.,als,seiner,nan,Hauptbahnhof.,aus,Energie.,jeden.,den,um,Gras,"vermiest,",Wurst,Kraftstoff,die,Soldaten,Alkohol,die,Wurst,die,nan,nichts,Müll.,Herrn,nan,Grases,Besucher.,nan,Tupperware,eine,drei,nan,große,verschrottet.,Schaumstoff,den,ruhig,artgerecht,Besucher.,köstlicher,große,mehr,er,täglichen,kaltem,dichten,köstlichen,Soldaten,ml,die,schwarzem,nichts,Planeten,mehr,Schmuck,Energie.,Helmen,grünen,wiedergewählt.,Esslöffel,nan,Einkommen,nan,ml,Abduschen,jeden,Kunsteis,seiner,Herrn,goldenen,dass,Stimmung,Flut,Planet,verschrottet.,um,defekt,dichten,die,nan,Taschengeld,Helmen,defekt,eine,sie,den,aus,,,,,,,,,,,,,,,,,,,,,,,6,0,6,0,0,6,6,6,,,,,,,space,0.385549068451,,,,,,2017_Jan_27_1259,59.4805964646,spr_backupper,001,Fr13,
,warmen,nan,jede,liegen.,überführt,einmal,stattfinden.,dem,Fall,nan,nan,nan,einmal,Frau,nan,nan,dem,nan,nan,Boden,Nadelhölzer,zwängen.,dass,mit,fahren.,Wohnung.,des,verdünnt.,Probleme,mit,Wohnung.,nan,mitbringen.,nan,Gantenbein.,nan,zwängen.,nan,nan,ist.,Sammlung,Tage.,nan,Menge,nan,gefertigt.,Problemen,diskutiert.,gehalten.,nan,Wein,Menge,als,trug.,Einsatz,Saft,Gewebe,Weins,des,warme,Slums.,Kaffee,mitbringen.,ganz,als,umgearbeitet.,nan,zur,Tee,nan,warmem,nan,haftbar.,nan,warmer,gehärtet.,Fall,eingesprüht.,Frau,Gantenbeins.,Besatz,das,ziemlich,zurückgekehrt.,ganz,nan,jede,war.,Stoff,Slums.,nan,selber,zur,war.,Sammlung,überführt,Boden,Japan.,,,,,,,,,,,,,,,,,,,,,,,6,0,6,0,0,7,7,7,,,,,,,space,0.420722007751,,,,,,2017_Jan_27_1259,59.4805964646,spr_backupper,001,Fr13,
,Honigs,nan,Menge,nan,wurden.,Rilke,nan,Haus,genug.,nan,nan,nan,Rilke.,gepasst.,nan,nan,Haus,nan,nan,berührt.,umzusetzen.,nan,es,an,nan,nan,zweiten,nan,im,an,nan,nan,nan,nan,nan,nan,nan,nan,nan,nan,dumme,nan,nan,dunkle,nan,nan,im,nan,nan,nan,schon,dunkler,gerne.,nan,sinken.,besprochen.,wiederhergestellt.,schon,zweiten,Milch.,nan,wiederbelebt.,nan,deutlich.,gerne.,nan,nan,Schule.,wieder,nan,Honig,nan,nan,nan,Milch.,nan,genug.,nan,gepasst,nan,rekonstruiert.,Medikament,vermiest.,nan,deutlich.,nan,Menge,nan,gefertigt.,nan,nan,kaufen.,Schule.,nan,dummer,wurden.,berührt.,nan,,,,,,,,,,,,,,,,,,,,,,,6,0,6,0,0,8,8,8,,,,,,,space,0.374562978745,,,,,,2017_Jan_27_1259,59.4805964646,spr_backupper,001,Fr13,
,,,,,,,,,,,,,,,,,,,,,,,,,,,,,,,,,,,,,,,,,,,,,,,,,,,,,,,,,,,,,,,,,,,,,,,,,,,,,,,,,,,,,,,,,,,,,,,,,,,,,,,,,,,,,,,,,,,,,,,,,6,0,6,0,,,,,,,,,,,,,None,n,2.11191082001,,,2017_Jan_27_1259,59.4805964646,spr_backupper,001,Fr13,
,Er,Er,Man,Jungtiere,Es,In,Unter,Wir,100,Sie,Außer,Viele,In,Die,Sie,Die,Wir,Die,Außer,Nicht,Jetzt,Wir,Es,Ich,Wir,Sie,Bei,Die,In,Ich,Sie,Beträchtliche,Außer,Viele,Die,Es,Wir,Wir,Dort,Die,Sie,Der,Beträchtliche,Mit,Die,Alle,In,Fernab,In,Wir,Bei,Mit,Wir,Die,Ihr,Sie,Danach,Bei,Bei,In,Am,Die,Außer,Im,Wir,Die,Die,Die,Ich,Er,Er,Dort,Manche,Walter,In,Die,100,Die,Die,Die,Das,In,Dass,Als,Im,Die,Man,Die,Er,Am,Es,Jugendliche,Die,Die,Sie,Es,Nicht,Die,,,,,,,,,,,,,,,,,,,,,,,7,0,7,0,0,0,0,0,,,,,,None,space,0.553751945496,,,,,,2017_Jan_27_1259,59.4805964646,spr_backupper,001,Fr13,
,stellt,wurde,machte,sollten,waren,meinem,keinen,haben,g,verbrauchen,den,Tonnen,meinem,Schuhe,verbrauchen,Linie,haben,Schule,dem,ein,ist,mussten,hat,nehme,konnten,verlassen,der,Lösung,der,nehme,verlassen,Stücke,das,Tonnen,Gäste,wurden,mussten,hatten,türmen,Teilnehmerinnen,hatte,Flug,Stücke,dieser,Autos,Betten,der,des,diesem,hatten,unserer,dieser,übergaben,Uhr,Blutdruck,haben,wurde,unserer,der,den,äußersten,müden,dem,Fernrohr,übergaben,Stücke,Schule,Kinder,wurde,wurde,stellt,türmen,Kreditnehmer,Scheel,den,Formen,g,Eislaufbahnen,Schuhe,Gäste,Tuch,einer,es,die,Fernrohr,Autos,machte,Uhr,hat,äußeren,wurden,können,Kinder,Uhr,hatte,waren,ein,"Uhr,",,,,,,,,,,,,,,,,,,,,,,,7,0,7,0,0,1,1,1,,,,,,,space,0.420024871826,,,,,,2017_Jan_27_1259,59.4805964646,spr_backupper,001,Fr13,
,die,trotz,mal,immer,nur,Studium,Umständen,jede,brauner,60,Bürgermeister,gebrauchte,Studium,in,60,101,jede,verbraucht,Bürgermeister,Tropfen,genau,uns,uns,eine,dann,wegen,Feier,wird,Tat,eine,wegen,saftigen,Essen,gebrauchter,suchen,Eimer,uns,in,sich,wussten,keine,zum,saftiges,Methode,beider,wurden,Tat,Rummels,Zirkus,in,Ankunft,Methode,dem,war,kann,die,die,Ankunft,Feier,Kakao,Rand,Teilnehmer,Essen,sahen,das,wurden,verbraucht,fuhren,damals,trotz,die,sich,sind,war,Kakao,wurden,braunen,wurden,in,suchen,wurde,Studie,"regnete,",Sonne,sahen,beider,mal,schlug,ein,Rand,Eimer,Kleidung,fuhren,schlug,keine,nur,Tropfen,die,,,,,,,,,,,,,,,,,,,,,,,7,0,7,0,0,2,2,2,,,,,,,space,0.386061906815,,,,,,2017_Jan_27_1259,59.4805964646,spr_backupper,001,Fr13,
,Masse,des,wieder,auf,kleinere,habe,können,Menge,Zucker,Liter,beschuldigten,Kleidung,las,Größe,Liter,hält,Menge,260.000,beschuldigten,königliches,die,durch,die,große,mit,des,gedachte,mit,wissen,große,dem,Fleischs,kann,Kleidung,die,rote,durch,Dänemark,Berge,überwiegend,Lust,Mond,Fleisch,kann,beteiligten,mit,wissen,wurde,werden,Dänemark,stand,kann,Mann,aus,schon,Erlebnisse,Leinwand,stand,gedachte,gehören,der,wurden,kann,wir,Auto,aus,260.000,mit,schnell,dem,Masse,Berge,mit,der,gehören,unter,Zuckers,mit,Größe,die,dann,wurde,hat,"unterging,",wir,beteiligter,wieder,"sporadisch,",Hemd,der,roter,bei,mit,"sporadisch,",Lust,kleinere,königlichen,er,,,,,,,,,,,,,,,,,,,,,,,7,0,7,0,0,3,3,3,,,,,,,space,0.342438936234,,,,,,2017_Jan_27_1259,59.4805964646,spr_backupper,001,Fr13,
,mit,bekannten,viel,warmem,"Delikte,",ich,Neuwahlen,alten,sind,sprudelnden,die,landen,ich,36,sprudelndes,nicht,alten,Kilowattstunden,die,Blut,richtige,Büschel,Stimmung,Packung,"minimalem,",schönen,man,"reichlichem,",wir,Packung,schönen,wurden,ich,landen,Wohnung,Farbe,Büschel,einen,schmutziger,"nicht,",auf,dauerte,wurden,man,Fahrer,"üblichem,",wir,schon,die,gelegentlich,ein,man,das,"Japan,",bei,bei,aus,ein,man,immer,Stadt,mit,ich,den,dem,"wertvollem,",Kilowattstunden,solch,dank,bekannten,mit,schmutzige,"sämtlichem,",vierte,immer,"regelmäßigem,",sind,dauerhaftem,36,Wohnung,mit,jetzt,uns,war,den,Fahrer,viel,obschon,aus,Stadt,Farbe,ausreichendem,solchen,obwohl,auf,"Delikte,",Bluts,"trug,",,,,,,,,,,,,,,,,,,,,,,,7,0,7,0,0,4,4,4,,,,,,,space,0.345760822296,,,,,,2017_Jan_27_1259,59.4805964646,spr_backupper,001,Fr13,
,einem,Skandals,Lärm,weichem,derer,mehr,vor,Kram,auf,Trinkwassers.,Störenfriede,im,mehr,hätten,Trinkwasser.,am,Krams,elektrischer,Störenfriede,hat,"Zeit,",frisches,ziemlich,salziger,sauberen,Wetters,den,purem,um,salzige,Wetter,serviert.,leider,im,des,geschleudert.,frischen,gelegentlichen,Wäsche.,was,noch,ungefähr,serviert.,eine,wurden,harten,von,immer,Tiere,einen,Glas,eine,Auto,die,minimalem,"frischem,",seltenem,Glas,der,350,liegen,zusätzlichem,leider,roten,Mann,klassischen,elektrische,unzureichenden,täglichem,Skandal,einem,Wäsche.,künftigem,Bundespräsident.,350,kaltem,auf,feinem,würden,des,"reichem,","nachgewiesen,",die,die,roten,wurden,Lärm,sie,feinem,liegen,geschleudert.,monatlichem,unzureichenden,sie,noch,deren,hat,war,,,,,,,,,,,,,,,,,,,,,,,7,0,7,0,0,5,5,5,,,,,,,space,0.386945962906,,,,,,2017_Jan_27_1259,59.4805964646,spr_backupper,001,Fr13,
,Esslöffel,wiedergewählt.,um,Untergrund,sie,als,Dezember,aus,jeden,nan,jeden.,Müll.,als,seiner,nan,Hauptbahnhof.,aus,Energie.,jeden.,den,um,Gras,"vermiest,",Wurst,Kraftstoff,die,Soldaten,Alkohol,die,Wurst,die,nan,nichts,Müll.,Herrn,nan,Grases,Besucher.,nan,Tupperware,eine,drei,nan,große,verschrottet.,Schaumstoff,den,ruhig,artgerecht,Besucher.,köstlicher,große,mehr,er,täglichen,kaltem,dichten,köstlichen,Soldaten,ml,die,schwarzem,nichts,Planeten,mehr,Schmuck,Energie.,Helmen,grünen,wiedergewählt.,Esslöffel,nan,Einkommen,nan,ml,Abduschen,jeden,Kunsteis,seiner,Herrn,goldenen,dass,Stimmung,Flut,Planet,verschrottet.,um,defekt,dichten,die,nan,Taschengeld,Helmen,defekt,eine,sie,den,aus,,,,,,,,,,,,,,,,,,,,,,,7,0,7,0,0,6,6,6,,,,,,,space,0.362411975861,,,,,,2017_Jan_27_1259,59.4805964646,spr_backupper,001,Fr13,
,warmen,nan,jede,liegen.,überführt,einmal,stattfinden.,dem,Fall,nan,nan,nan,einmal,Frau,nan,nan,dem,nan,nan,Boden,Nadelhölzer,zwängen.,dass,mit,fahren.,Wohnung.,des,verdünnt.,Probleme,mit,Wohnung.,nan,mitbringen.,nan,Gantenbein.,nan,zwängen.,nan,nan,ist.,Sammlung,Tage.,nan,Menge,nan,gefertigt.,Problemen,diskutiert.,gehalten.,nan,Wein,Menge,als,trug.,Einsatz,Saft,Gewebe,Weins,des,warme,Slums.,Kaffee,mitbringen.,ganz,als,umgearbeitet.,nan,zur,Tee,nan,warmem,nan,haftbar.,nan,warmer,gehärtet.,Fall,eingesprüht.,Frau,Gantenbeins.,Besatz,das,ziemlich,zurückgekehrt.,ganz,nan,jede,war.,Stoff,Slums.,nan,selber,zur,war.,Sammlung,überführt,Boden,Japan.,,,,,,,,,,,,,,,,,,,,,,,7,0,7,0,0,7,7,7,,,,,,,space,0.420513868332,,,,,,2017_Jan_27_1259,59.4805964646,spr_backupper,001,Fr13,
,Honigs,nan,Menge,nan,wurden.,Rilke,nan,Haus,genug.,nan,nan,nan,Rilke.,gepasst.,nan,nan,Haus,nan,nan,berührt.,umzusetzen.,nan,es,an,nan,nan,zweiten,nan,im,an,nan,nan,nan,nan,nan,nan,nan,nan,nan,nan,dumme,nan,nan,dunkle,nan,nan,im,nan,nan,nan,schon,dunkler,gerne.,nan,sinken.,besprochen.,wiederhergestellt.,schon,zweiten,Milch.,nan,wiederbelebt.,nan,deutlich.,gerne.,nan,nan,Schule.,wieder,nan,Honig,nan,nan,nan,Milch.,nan,genug.,nan,gepasst,nan,rekonstruiert.,Medikament,vermiest.,nan,deutlich.,nan,Menge,nan,gefertigt.,nan,nan,kaufen.,Schule.,nan,dummer,wurden.,berührt.,nan,,,,,,,,,,,,,,,,,,,,,,,7,0,7,0,0,8,8,8,,,,,,,space,0.346113920212,,,,,,2017_Jan_27_1259,59.4805964646,spr_backupper,001,Fr13,
,her.,nan,heißer,nan,nan,gelesen.,nan,geschafft.,nan,nan,nan,nan,nan,nan,nan,nan,geschafft.,nan,nan,nan,nan,nan,regnete.,den,nan,nan,Weltkriegs.,nan,Landkreis.,den,nan,nan,nan,nan,nan,nan,nan,nan,nan,nan,Sprüche.,nan,nan,Materie,nan,nan,Landkreis.,nan,nan,nan,auf,Materie,nan,nan,nan,nan,nan,auf,Weltkriegs.,nan,nan,nan,nan,nan,nan,nan,nan,nan,fit.,nan,her.,nan,nan,nan,nan,nan,nan,nan,haben.,nan,nan,nicht,nan,nan,nan,nan,heiße,nan,nan,nan,nan,nan,nan,nan,Sprüche.,nan,nan,nan,,,,,,,,,,,,,,,,,,,,,,,7,0,7,0,0,9,9,9,,,,,,,space,0.370866060257,,,,,,2017_Jan_27_1259,59.4805964646,spr_backupper,001,Fr13,
,nan,nan,Luft.,nan,nan,nan,nan,nan,nan,nan,nan,nan,nan,nan,nan,nan,nan,nan,nan,nan,nan,nan,nan,See.,nan,nan,nan,nan,nan,See.,nan,nan,nan,nan,nan,nan,nan,nan,nan,nan,nan,nan,nan,erzeugen.,nan,nan,nan,nan,nan,nan,dem,erzeugen.,nan,nan,nan,nan,nan,dem,nan,nan,nan,nan,nan,nan,nan,nan,nan,nan,nan,nan,nan,nan,nan,nan,nan,nan,nan,nan,nan,nan,nan,wirkt.,nan,nan,nan,nan,Luft.,nan,nan,nan,nan,nan,nan,nan,nan,nan,nan,nan,,,,,,,,,,,,,,,,,,,,,,,7,0,7,0,0,10,10,10,,,,,,,space,0.383930921555,,,,,,2017_Jan_27_1259,59.4805964646,spr_backupper,001,Fr13,
,,,,,,,,,,,,,,,,,,,,,,,,,,,,,,,,,,,,,,,,,,,,,,,,,,,,,,,,,,,,,,,,,,,,,,,,,,,,,,,,,,,,,,,,,,,,,,,,,,,,,,,,,,,,,,,,,,,,,,,,,7,0,7,0,,,,,,,,,,,,,None,n,2.21114706993,,,2017_Jan_27_1259,59.4805964646,spr_backupper,001,Fr13,
,Er,Er,Man,Jungtiere,Es,In,Unter,Wir,100,Sie,Außer,Viele,In,Die,Sie,Die,Wir,Die,Außer,Nicht,Jetzt,Wir,Es,Ich,Wir,Sie,Bei,Die,In,Ich,Sie,Beträchtliche,Außer,Viele,Die,Es,Wir,Wir,Dort,Die,Sie,Der,Beträchtliche,Mit,Die,Alle,In,Fernab,In,Wir,Bei,Mit,Wir,Die,Ihr,Sie,Danach,Bei,Bei,In,Am,Die,Außer,Im,Wir,Die,Die,Die,Ich,Er,Er,Dort,Manche,Walter,In,Die,100,Die,Die,Die,Das,In,Dass,Als,Im,Die,Man,Die,Er,Am,Es,Jugendliche,Die,Die,Sie,Es,Nicht,Die,,,,,,,,,,,,,,,,,,,,,,,8,0,8,0,0,0,0,0,,,,,,None,space,0.496355056763,,,,,,2017_Jan_27_1259,59.4805964646,spr_backupper,001,Fr13,
,stellt,wurde,machte,sollten,waren,meinem,keinen,haben,g,verbrauchen,den,Tonnen,meinem,Schuhe,verbrauchen,Linie,haben,Schule,dem,ein,ist,mussten,hat,nehme,konnten,verlassen,der,Lösung,der,nehme,verlassen,Stücke,das,Tonnen,Gäste,wurden,mussten,hatten,türmen,Teilnehmerinnen,hatte,Flug,Stücke,dieser,Autos,Betten,der,des,diesem,hatten,unserer,dieser,übergaben,Uhr,Blutdruck,haben,wurde,unserer,der,den,äußersten,müden,dem,Fernrohr,übergaben,Stücke,Schule,Kinder,wurde,wurde,stellt,türmen,Kreditnehmer,Scheel,den,Formen,g,Eislaufbahnen,Schuhe,Gäste,Tuch,einer,es,die,Fernrohr,Autos,machte,Uhr,hat,äußeren,wurden,können,Kinder,Uhr,hatte,waren,ein,"Uhr,",,,,,,,,,,,,,,,,,,,,,,,8,0,8,0,0,1,1,1,,,,,,,space,0.311388015747,,,,,,2017_Jan_27_1259,59.4805964646,spr_backupper,001,Fr13,
,die,trotz,mal,immer,nur,Studium,Umständen,jede,brauner,60,Bürgermeister,gebrauchte,Studium,in,60,101,jede,verbraucht,Bürgermeister,Tropfen,genau,uns,uns,eine,dann,wegen,Feier,wird,Tat,eine,wegen,saftigen,Essen,gebrauchter,suchen,Eimer,uns,in,sich,wussten,keine,zum,saftiges,Methode,beider,wurden,Tat,Rummels,Zirkus,in,Ankunft,Methode,dem,war,kann,die,die,Ankunft,Feier,Kakao,Rand,Teilnehmer,Essen,sahen,das,wurden,verbraucht,fuhren,damals,trotz,die,sich,sind,war,Kakao,wurden,braunen,wurden,in,suchen,wurde,Studie,"regnete,",Sonne,sahen,beider,mal,schlug,ein,Rand,Eimer,Kleidung,fuhren,schlug,keine,nur,Tropfen,die,,,,,,,,,,,,,,,,,,,,,,,8,0,8,0,0,2,2,2,,,,,,,space,0.308178901672,,,,,,2017_Jan_27_1259,59.4805964646,spr_backupper,001,Fr13,
,Masse,des,wieder,auf,kleinere,habe,können,Menge,Zucker,Liter,beschuldigten,Kleidung,las,Größe,Liter,hält,Menge,260.000,beschuldigten,königliches,die,durch,die,große,mit,des,gedachte,mit,wissen,große,dem,Fleischs,kann,Kleidung,die,rote,durch,Dänemark,Berge,überwiegend,Lust,Mond,Fleisch,kann,beteiligten,mit,wissen,wurde,werden,Dänemark,stand,kann,Mann,aus,schon,Erlebnisse,Leinwand,stand,gedachte,gehören,der,wurden,kann,wir,Auto,aus,260.000,mit,schnell,dem,Masse,Berge,mit,der,gehören,unter,Zuckers,mit,Größe,die,dann,wurde,hat,"unterging,",wir,beteiligter,wieder,"sporadisch,",Hemd,der,roter,bei,mit,"sporadisch,",Lust,kleinere,königlichen,er,,,,,,,,,,,,,,,,,,,,,,,8,0,8,0,0,3,3,3,,,,,,,space,0.312040805817,,,,,,2017_Jan_27_1259,59.4805964646,spr_backupper,001,Fr13,
,mit,bekannten,viel,warmem,"Delikte,",ich,Neuwahlen,alten,sind,sprudelnden,die,landen,ich,36,sprudelndes,nicht,alten,Kilowattstunden,die,Blut,richtige,Büschel,Stimmung,Packung,"minimalem,",schönen,man,"reichlichem,",wir,Packung,schönen,wurden,ich,landen,Wohnung,Farbe,Büschel,einen,schmutziger,"nicht,",auf,dauerte,wurden,man,Fahrer,"üblichem,",wir,schon,die,gelegentlich,ein,man,das,"Japan,",bei,bei,aus,ein,man,immer,Stadt,mit,ich,den,dem,"wertvollem,",Kilowattstunden,solch,dank,bekannten,mit,schmutzige,"sämtlichem,",vierte,immer,"regelmäßigem,",sind,dauerhaftem,36,Wohnung,mit,jetzt,uns,war,den,Fahrer,viel,obschon,aus,Stadt,Farbe,ausreichendem,solchen,obwohl,auf,"Delikte,",Bluts,"trug,",,,,,,,,,,,,,,,,,,,,,,,8,0,8,0,0,4,4,4,,,,,,,space,0.317000865936,,,,,,2017_Jan_27_1259,59.4805964646,spr_backupper,001,Fr13,
,einem,Skandals,Lärm,weichem,derer,mehr,vor,Kram,auf,Trinkwassers.,Störenfriede,im,mehr,hätten,Trinkwasser.,am,Krams,elektrischer,Störenfriede,hat,"Zeit,",frisches,ziemlich,salziger,sauberen,Wetters,den,purem,um,salzige,Wetter,serviert.,leider,im,des,geschleudert.,frischen,gelegentlichen,Wäsche.,was,noch,ungefähr,serviert.,eine,wurden,harten,von,immer,Tiere,einen,Glas,eine,Auto,die,minimalem,"frischem,",seltenem,Glas,der,350,liegen,zusätzlichem,leider,roten,Mann,klassischen,elektrische,unzureichenden,täglichem,Skandal,einem,Wäsche.,künftigem,Bundespräsident.,350,kaltem,auf,feinem,würden,des,"reichem,","nachgewiesen,",die,die,roten,wurden,Lärm,sie,feinem,liegen,geschleudert.,monatlichem,unzureichenden,sie,noch,deren,hat,war,,,,,,,,,,,,,,,,,,,,,,,8,0,8,0,0,5,5,5,,,,,,,space,0.31719493866,,,,,,2017_Jan_27_1259,59.4805964646,spr_backupper,001,Fr13,
,Esslöffel,wiedergewählt.,um,Untergrund,sie,als,Dezember,aus,jeden,nan,jeden.,Müll.,als,seiner,nan,Hauptbahnhof.,aus,Energie.,jeden.,den,um,Gras,"vermiest,",Wurst,Kraftstoff,die,Soldaten,Alkohol,die,Wurst,die,nan,nichts,Müll.,Herrn,nan,Grases,Besucher.,nan,Tupperware,eine,drei,nan,große,verschrottet.,Schaumstoff,den,ruhig,artgerecht,Besucher.,köstlicher,große,mehr,er,täglichen,kaltem,dichten,köstlichen,Soldaten,ml,die,schwarzem,nichts,Planeten,mehr,Schmuck,Energie.,Helmen,grünen,wiedergewählt.,Esslöffel,nan,Einkommen,nan,ml,Abduschen,jeden,Kunsteis,seiner,Herrn,goldenen,dass,Stimmung,Flut,Planet,verschrottet.,um,defekt,dichten,die,nan,Taschengeld,Helmen,defekt,eine,sie,den,aus,,,,,,,,,,,,,,,,,,,,,,,8,0,8,0,0,6,6,6,,,,,,,space,0.330081939697,,,,,,2017_Jan_27_1259,59.4805964646,spr_backupper,001,Fr13,
,,,,,,,,,,,,,,,,,,,,,,,,,,,,,,,,,,,,,,,,,,,,,,,,,,,,,,,,,,,,,,,,,,,,,,,,,,,,,,,,,,,,,,,,,,,,,,,,,,,,,,,,,,,,,,,,,,,,,,,,,8,0,8,0,,,,,,,,,,,,,None,j,3.0615170002,,,2017_Jan_27_1259,59.4805964646,spr_backupper,001,Fr13,
,Er,Er,Man,Jungtiere,Es,In,Unter,Wir,100,Sie,Außer,Viele,In,Die,Sie,Die,Wir,Die,Außer,Nicht,Jetzt,Wir,Es,Ich,Wir,Sie,Bei,Die,In,Ich,Sie,Beträchtliche,Außer,Viele,Die,Es,Wir,Wir,Dort,Die,Sie,Der,Beträchtliche,Mit,Die,Alle,In,Fernab,In,Wir,Bei,Mit,Wir,Die,Ihr,Sie,Danach,Bei,Bei,In,Am,Die,Außer,Im,Wir,Die,Die,Die,Ich,Er,Er,Dort,Manche,Walter,In,Die,100,Die,Die,Die,Das,In,Dass,Als,Im,Die,Man,Die,Er,Am,Es,Jugendliche,Die,Die,Sie,Es,Nicht,Die,,,,,,,,,,,,,,,,,,,,,,,9,0,9,0,0,0,0,0,,,,,,None,space,0.45629119873,,,,,,2017_Jan_27_1259,59.4805964646,spr_backupper,001,Fr13,
,stellt,wurde,machte,sollten,waren,meinem,keinen,haben,g,verbrauchen,den,Tonnen,meinem,Schuhe,verbrauchen,Linie,haben,Schule,dem,ein,ist,mussten,hat,nehme,konnten,verlassen,der,Lösung,der,nehme,verlassen,Stücke,das,Tonnen,Gäste,wurden,mussten,hatten,türmen,Teilnehmerinnen,hatte,Flug,Stücke,dieser,Autos,Betten,der,des,diesem,hatten,unserer,dieser,übergaben,Uhr,Blutdruck,haben,wurde,unserer,der,den,äußersten,müden,dem,Fernrohr,übergaben,Stücke,Schule,Kinder,wurde,wurde,stellt,türmen,Kreditnehmer,Scheel,den,Formen,g,Eislaufbahnen,Schuhe,Gäste,Tuch,einer,es,die,Fernrohr,Autos,machte,Uhr,hat,äußeren,wurden,können,Kinder,Uhr,hatte,waren,ein,"Uhr,",,,,,,,,,,,,,,,,,,,,,,,9,0,9,0,0,1,1,1,,,,,,,space,0.273303031921,,,,,,2017_Jan_27_1259,59.4805964646,spr_backupper,001,Fr13,
,die,trotz,mal,immer,nur,Studium,Umständen,jede,brauner,60,Bürgermeister,gebrauchte,Studium,in,60,101,jede,verbraucht,Bürgermeister,Tropfen,genau,uns,uns,eine,dann,wegen,Feier,wird,Tat,eine,wegen,saftigen,Essen,gebrauchter,suchen,Eimer,uns,in,sich,wussten,keine,zum,saftiges,Methode,beider,wurden,Tat,Rummels,Zirkus,in,Ankunft,Methode,dem,war,kann,die,die,Ankunft,Feier,Kakao,Rand,Teilnehmer,Essen,sahen,das,wurden,verbraucht,fuhren,damals,trotz,die,sich,sind,war,Kakao,wurden,braunen,wurden,in,suchen,wurde,Studie,"regnete,",Sonne,sahen,beider,mal,schlug,ein,Rand,Eimer,Kleidung,fuhren,schlug,keine,nur,Tropfen,die,,,,,,,,,,,,,,,,,,,,,,,9,0,9,0,0,2,2,2,,,,,,,space,0.325332164764,,,,,,2017_Jan_27_1259,59.4805964646,spr_backupper,001,Fr13,
,Masse,des,wieder,auf,kleinere,habe,können,Menge,Zucker,Liter,beschuldigten,Kleidung,las,Größe,Liter,hält,Menge,260.000,beschuldigten,königliches,die,durch,die,große,mit,des,gedachte,mit,wissen,große,dem,Fleischs,kann,Kleidung,die,rote,durch,Dänemark,Berge,überwiegend,Lust,Mond,Fleisch,kann,beteiligten,mit,wissen,wurde,werden,Dänemark,stand,kann,Mann,aus,schon,Erlebnisse,Leinwand,stand,gedachte,gehören,der,wurden,kann,wir,Auto,aus,260.000,mit,schnell,dem,Masse,Berge,mit,der,gehören,unter,Zuckers,mit,Größe,die,dann,wurde,hat,"unterging,",wir,beteiligter,wieder,"sporadisch,",Hemd,der,roter,bei,mit,"sporadisch,",Lust,kleinere,königlichen,er,,,,,,,,,,,,,,,,,,,,,,,9,0,9,0,0,3,3,3,,,,,,,space,0.318636894226,,,,,,2017_Jan_27_1259,59.4805964646,spr_backupper,001,Fr13,
,mit,bekannten,viel,warmem,"Delikte,",ich,Neuwahlen,alten,sind,sprudelnden,die,landen,ich,36,sprudelndes,nicht,alten,Kilowattstunden,die,Blut,richtige,Büschel,Stimmung,Packung,"minimalem,",schönen,man,"reichlichem,",wir,Packung,schönen,wurden,ich,landen,Wohnung,Farbe,Büschel,einen,schmutziger,"nicht,",auf,dauerte,wurden,man,Fahrer,"üblichem,",wir,schon,die,gelegentlich,ein,man,das,"Japan,",bei,bei,aus,ein,man,immer,Stadt,mit,ich,den,dem,"wertvollem,",Kilowattstunden,solch,dank,bekannten,mit,schmutzige,"sämtlichem,",vierte,immer,"regelmäßigem,",sind,dauerhaftem,36,Wohnung,mit,jetzt,uns,war,den,Fahrer,viel,obschon,aus,Stadt,Farbe,ausreichendem,solchen,obwohl,auf,"Delikte,",Bluts,"trug,",,,,,,,,,,,,,,,,,,,,,,,9,0,9,0,0,4,4,4,,,,,,,space,0.33621096611,,,,,,2017_Jan_27_1259,59.4805964646,spr_backupper,001,Fr13,
,einem,Skandals,Lärm,weichem,derer,mehr,vor,Kram,auf,Trinkwassers.,Störenfriede,im,mehr,hätten,Trinkwasser.,am,Krams,elektrischer,Störenfriede,hat,"Zeit,",frisches,ziemlich,salziger,sauberen,Wetters,den,purem,um,salzige,Wetter,serviert.,leider,im,des,geschleudert.,frischen,gelegentlichen,Wäsche.,was,noch,ungefähr,serviert.,eine,wurden,harten,von,immer,Tiere,einen,Glas,eine,Auto,die,minimalem,"frischem,",seltenem,Glas,der,350,liegen,zusätzlichem,leider,roten,Mann,klassischen,elektrische,unzureichenden,täglichem,Skandal,einem,Wäsche.,künftigem,Bundespräsident.,350,kaltem,auf,feinem,würden,des,"reichem,","nachgewiesen,",die,die,roten,wurden,Lärm,sie,feinem,liegen,geschleudert.,monatlichem,unzureichenden,sie,noch,deren,hat,war,,,,,,,,,,,,,,,,,,,,,,,9,0,9,0,0,5,5,5,,,,,,,space,0.3196849823,,,,,,2017_Jan_27_1259,59.4805964646,spr_backupper,001,Fr13,
,Esslöffel,wiedergewählt.,um,Untergrund,sie,als,Dezember,aus,jeden,nan,jeden.,Müll.,als,seiner,nan,Hauptbahnhof.,aus,Energie.,jeden.,den,um,Gras,"vermiest,",Wurst,Kraftstoff,die,Soldaten,Alkohol,die,Wurst,die,nan,nichts,Müll.,Herrn,nan,Grases,Besucher.,nan,Tupperware,eine,drei,nan,große,verschrottet.,Schaumstoff,den,ruhig,artgerecht,Besucher.,köstlicher,große,mehr,er,täglichen,kaltem,dichten,köstlichen,Soldaten,ml,die,schwarzem,nichts,Planeten,mehr,Schmuck,Energie.,Helmen,grünen,wiedergewählt.,Esslöffel,nan,Einkommen,nan,ml,Abduschen,jeden,Kunsteis,seiner,Herrn,goldenen,dass,Stimmung,Flut,Planet,verschrottet.,um,defekt,dichten,die,nan,Taschengeld,Helmen,defekt,eine,sie,den,aus,,,,,,,,,,,,,,,,,,,,,,,9,0,9,0,0,6,6,6,,,,,,,space,0.316827774048,,,,,,2017_Jan_27_1259,59.4805964646,spr_backupper,001,Fr13,
,warmen,nan,jede,liegen.,überführt,einmal,stattfinden.,dem,Fall,nan,nan,nan,einmal,Frau,nan,nan,dem,nan,nan,Boden,Nadelhölzer,zwängen.,dass,mit,fahren.,Wohnung.,des,verdünnt.,Probleme,mit,Wohnung.,nan,mitbringen.,nan,Gantenbein.,nan,zwängen.,nan,nan,ist.,Sammlung,Tage.,nan,Menge,nan,gefertigt.,Problemen,diskutiert.,gehalten.,nan,Wein,Menge,als,trug.,Einsatz,Saft,Gewebe,Weins,des,warme,Slums.,Kaffee,mitbringen.,ganz,als,umgearbeitet.,nan,zur,Tee,nan,warmem,nan,haftbar.,nan,warmer,gehärtet.,Fall,eingesprüht.,Frau,Gantenbeins.,Besatz,das,ziemlich,zurückgekehrt.,ganz,nan,jede,war.,Stoff,Slums.,nan,selber,zur,war.,Sammlung,überführt,Boden,Japan.,,,,,,,,,,,,,,,,,,,,,,,9,0,9,0,0,7,7,7,,,,,,,space,0.335531949997,,,,,,2017_Jan_27_1259,59.4805964646,spr_backupper,001,Fr13,
,Honigs,nan,Menge,nan,wurden.,Rilke,nan,Haus,genug.,nan,nan,nan,Rilke.,gepasst.,nan,nan,Haus,nan,nan,berührt.,umzusetzen.,nan,es,an,nan,nan,zweiten,nan,im,an,nan,nan,nan,nan,nan,nan,nan,nan,nan,nan,dumme,nan,nan,dunkle,nan,nan,im,nan,nan,nan,schon,dunkler,gerne.,nan,sinken.,besprochen.,wiederhergestellt.,schon,zweiten,Milch.,nan,wiederbelebt.,nan,deutlich.,gerne.,nan,nan,Schule.,wieder,nan,Honig,nan,nan,nan,Milch.,nan,genug.,nan,gepasst,nan,rekonstruiert.,Medikament,vermiest.,nan,deutlich.,nan,Menge,nan,gefertigt.,nan,nan,kaufen.,Schule.,nan,dummer,wurden.,berührt.,nan,,,,,,,,,,,,,,,,,,,,,,,9,0,9,0,0,8,8,8,,,,,,,space,0.302037000656,,,,,,2017_Jan_27_1259,59.4805964646,spr_backupper,001,Fr13,
,her.,nan,heißer,nan,nan,gelesen.,nan,geschafft.,nan,nan,nan,nan,nan,nan,nan,nan,geschafft.,nan,nan,nan,nan,nan,regnete.,den,nan,nan,Weltkriegs.,nan,Landkreis.,den,nan,nan,nan,nan,nan,nan,nan,nan,nan,nan,Sprüche.,nan,nan,Materie,nan,nan,Landkreis.,nan,nan,nan,auf,Materie,nan,nan,nan,nan,nan,auf,Weltkriegs.,nan,nan,nan,nan,nan,nan,nan,nan,nan,fit.,nan,her.,nan,nan,nan,nan,nan,nan,nan,haben.,nan,nan,nicht,nan,nan,nan,nan,heiße,nan,nan,nan,nan,nan,nan,nan,Sprüche.,nan,nan,nan,,,,,,,,,,,,,,,,,,,,,,,9,0,9,0,0,9,9,9,,,,,,,space,0.318718910217,,,,,,2017_Jan_27_1259,59.4805964646,spr_backupper,001,Fr13,
,nan,nan,Luft.,nan,nan,nan,nan,nan,nan,nan,nan,nan,nan,nan,nan,nan,nan,nan,nan,nan,nan,nan,nan,See.,nan,nan,nan,nan,nan,See.,nan,nan,nan,nan,nan,nan,nan,nan,nan,nan,nan,nan,nan,erzeugen.,nan,nan,nan,nan,nan,nan,dem,erzeugen.,nan,nan,nan,nan,nan,dem,nan,nan,nan,nan,nan,nan,nan,nan,nan,nan,nan,nan,nan,nan,nan,nan,nan,nan,nan,nan,nan,nan,nan,wirkt.,nan,nan,nan,nan,Luft.,nan,nan,nan,nan,nan,nan,nan,nan,nan,nan,nan,,,,,,,,,,,,,,,,,,,,,,,9,0,9,0,0,10,10,10,,,,,,,space,0.369130134583,,,,,,2017_Jan_27_1259,59.4805964646,spr_backupper,001,Fr13,
,,,,,,,,,,,,,,,,,,,,,,,,,,,,,,,,,,,,,,,,,,,,,,,,,,,,,,,,,,,,,,,,,,,,,,,,,,,,,,,,,,,,,,,,,,,,,,,,,,,,,,,,,,,,,,,,,,,,,,,,,9,0,9,0,,,,,,,,,,,,,None,j,2.93392205238,,,2017_Jan_27_1259,59.4805964646,spr_backupper,001,Fr13,
,Er,Er,Man,Jungtiere,Es,In,Unter,Wir,100,Sie,Außer,Viele,In,Die,Sie,Die,Wir,Die,Außer,Nicht,Jetzt,Wir,Es,Ich,Wir,Sie,Bei,Die,In,Ich,Sie,Beträchtliche,Außer,Viele,Die,Es,Wir,Wir,Dort,Die,Sie,Der,Beträchtliche,Mit,Die,Alle,In,Fernab,In,Wir,Bei,Mit,Wir,Die,Ihr,Sie,Danach,Bei,Bei,In,Am,Die,Außer,Im,Wir,Die,Die,Die,Ich,Er,Er,Dort,Manche,Walter,In,Die,100,Die,Die,Die,Das,In,Dass,Als,Im,Die,Man,Die,Er,Am,Es,Jugendliche,Die,Die,Sie,Es,Nicht,Die,,,,,,,,,,,,,,,,,,,,,,,10,0,10,0,0,0,0,0,,,,,,None,space,0.905429124832,,,,,,2017_Jan_27_1259,59.4805964646,spr_backupper,001,Fr13,
,stellt,wurde,machte,sollten,waren,meinem,keinen,haben,g,verbrauchen,den,Tonnen,meinem,Schuhe,verbrauchen,Linie,haben,Schule,dem,ein,ist,mussten,hat,nehme,konnten,verlassen,der,Lösung,der,nehme,verlassen,Stücke,das,Tonnen,Gäste,wurden,mussten,hatten,türmen,Teilnehmerinnen,hatte,Flug,Stücke,dieser,Autos,Betten,der,des,diesem,hatten,unserer,dieser,übergaben,Uhr,Blutdruck,haben,wurde,unserer,der,den,äußersten,müden,dem,Fernrohr,übergaben,Stücke,Schule,Kinder,wurde,wurde,stellt,türmen,Kreditnehmer,Scheel,den,Formen,g,Eislaufbahnen,Schuhe,Gäste,Tuch,einer,es,die,Fernrohr,Autos,machte,Uhr,hat,äußeren,wurden,können,Kinder,Uhr,hatte,waren,ein,"Uhr,",,,,,,,,,,,,,,,,,,,,,,,10,0,10,0,0,1,1,1,,,,,,,space,0.407778978348,,,,,,2017_Jan_27_1259,59.4805964646,spr_backupper,001,Fr13,
,die,trotz,mal,immer,nur,Studium,Umständen,jede,brauner,60,Bürgermeister,gebrauchte,Studium,in,60,101,jede,verbraucht,Bürgermeister,Tropfen,genau,uns,uns,eine,dann,wegen,Feier,wird,Tat,eine,wegen,saftigen,Essen,gebrauchter,suchen,Eimer,uns,in,sich,wussten,keine,zum,saftiges,Methode,beider,wurden,Tat,Rummels,Zirkus,in,Ankunft,Methode,dem,war,kann,die,die,Ankunft,Feier,Kakao,Rand,Teilnehmer,Essen,sahen,das,wurden,verbraucht,fuhren,damals,trotz,die,sich,sind,war,Kakao,wurden,braunen,wurden,in,suchen,wurde,Studie,"regnete,",Sonne,sahen,beider,mal,schlug,ein,Rand,Eimer,Kleidung,fuhren,schlug,keine,nur,Tropfen,die,,,,,,,,,,,,,,,,,,,,,,,10,0,10,0,0,2,2,2,,,,,,,space,0.35940694809,,,,,,2017_Jan_27_1259,59.4805964646,spr_backupper,001,Fr13,
,Masse,des,wieder,auf,kleinere,habe,können,Menge,Zucker,Liter,beschuldigten,Kleidung,las,Größe,Liter,hält,Menge,260.000,beschuldigten,königliches,die,durch,die,große,mit,des,gedachte,mit,wissen,große,dem,Fleischs,kann,Kleidung,die,rote,durch,Dänemark,Berge,überwiegend,Lust,Mond,Fleisch,kann,beteiligten,mit,wissen,wurde,werden,Dänemark,stand,kann,Mann,aus,schon,Erlebnisse,Leinwand,stand,gedachte,gehören,der,wurden,kann,wir,Auto,aus,260.000,mit,schnell,dem,Masse,Berge,mit,der,gehören,unter,Zuckers,mit,Größe,die,dann,wurde,hat,"unterging,",wir,beteiligter,wieder,"sporadisch,",Hemd,der,roter,bei,mit,"sporadisch,",Lust,kleinere,königlichen,er,,,,,,,,,,,,,,,,,,,,,,,10,0,10,0,0,3,3,3,,,,,,,space,0.403327941895,,,,,,2017_Jan_27_1259,59.4805964646,spr_backupper,001,Fr13,
,mit,bekannten,viel,warmem,"Delikte,",ich,Neuwahlen,alten,sind,sprudelnden,die,landen,ich,36,sprudelndes,nicht,alten,Kilowattstunden,die,Blut,richtige,Büschel,Stimmung,Packung,"minimalem,",schönen,man,"reichlichem,",wir,Packung,schönen,wurden,ich,landen,Wohnung,Farbe,Büschel,einen,schmutziger,"nicht,",auf,dauerte,wurden,man,Fahrer,"üblichem,",wir,schon,die,gelegentlich,ein,man,das,"Japan,",bei,bei,aus,ein,man,immer,Stadt,mit,ich,den,dem,"wertvollem,",Kilowattstunden,solch,dank,bekannten,mit,schmutzige,"sämtlichem,",vierte,immer,"regelmäßigem,",sind,dauerhaftem,36,Wohnung,mit,jetzt,uns,war,den,Fahrer,viel,obschon,aus,Stadt,Farbe,ausreichendem,solchen,obwohl,auf,"Delikte,",Bluts,"trug,",,,,,,,,,,,,,,,,,,,,,,,10,0,10,0,0,4,4,4,,,,,,,space,0.384407043457,,,,,,2017_Jan_27_1259,59.4805964646,spr_backupper,001,Fr13,
,einem,Skandals,Lärm,weichem,derer,mehr,vor,Kram,auf,Trinkwassers.,Störenfriede,im,mehr,hätten,Trinkwasser.,am,Krams,elektrischer,Störenfriede,hat,"Zeit,",frisches,ziemlich,salziger,sauberen,Wetters,den,purem,um,salzige,Wetter,serviert.,leider,im,des,geschleudert.,frischen,gelegentlichen,Wäsche.,was,noch,ungefähr,serviert.,eine,wurden,harten,von,immer,Tiere,einen,Glas,eine,Auto,die,minimalem,"frischem,",seltenem,Glas,der,350,liegen,zusätzlichem,leider,roten,Mann,klassischen,elektrische,unzureichenden,täglichem,Skandal,einem,Wäsche.,künftigem,Bundespräsident.,350,kaltem,auf,feinem,würden,des,"reichem,","nachgewiesen,",die,die,roten,wurden,Lärm,sie,feinem,liegen,geschleudert.,monatlichem,unzureichenden,sie,noch,deren,hat,war,,,,,,,,,,,,,,,,,,,,,,,10,0,10,0,0,5,5,5,,,,,,,space,0.626790046692,,,,,,2017_Jan_27_1259,59.4805964646,spr_backupper,001,Fr13,
,Esslöffel,wiedergewählt.,um,Untergrund,sie,als,Dezember,aus,jeden,nan,jeden.,Müll.,als,seiner,nan,Hauptbahnhof.,aus,Energie.,jeden.,den,um,Gras,"vermiest,",Wurst,Kraftstoff,die,Soldaten,Alkohol,die,Wurst,die,nan,nichts,Müll.,Herrn,nan,Grases,Besucher.,nan,Tupperware,eine,drei,nan,große,verschrottet.,Schaumstoff,den,ruhig,artgerecht,Besucher.,köstlicher,große,mehr,er,täglichen,kaltem,dichten,köstlichen,Soldaten,ml,die,schwarzem,nichts,Planeten,mehr,Schmuck,Energie.,Helmen,grünen,wiedergewählt.,Esslöffel,nan,Einkommen,nan,ml,Abduschen,jeden,Kunsteis,seiner,Herrn,goldenen,dass,Stimmung,Flut,Planet,verschrottet.,um,defekt,dichten,die,nan,Taschengeld,Helmen,defekt,eine,sie,den,aus,,,,,,,,,,,,,,,,,,,,,,,10,0,10,0,0,6,6,6,,,,,,,space,0.459947824478,,,,,,2017_Jan_27_1259,59.4805964646,spr_backupper,001,Fr13,
,warmen,nan,jede,liegen.,überführt,einmal,stattfinden.,dem,Fall,nan,nan,nan,einmal,Frau,nan,nan,dem,nan,nan,Boden,Nadelhölzer,zwängen.,dass,mit,fahren.,Wohnung.,des,verdünnt.,Probleme,mit,Wohnung.,nan,mitbringen.,nan,Gantenbein.,nan,zwängen.,nan,nan,ist.,Sammlung,Tage.,nan,Menge,nan,gefertigt.,Problemen,diskutiert.,gehalten.,nan,Wein,Menge,als,trug.,Einsatz,Saft,Gewebe,Weins,des,warme,Slums.,Kaffee,mitbringen.,ganz,als,umgearbeitet.,nan,zur,Tee,nan,warmem,nan,haftbar.,nan,warmer,gehärtet.,Fall,eingesprüht.,Frau,Gantenbeins.,Besatz,das,ziemlich,zurückgekehrt.,ganz,nan,jede,war.,Stoff,Slums.,nan,selber,zur,war.,Sammlung,überführt,Boden,Japan.,,,,,,,,,,,,,,,,,,,,,,,10,0,10,0,0,7,7,7,,,,,,,space,0.376894950867,,,,,,2017_Jan_27_1259,59.4805964646,spr_backupper,001,Fr13,
,Honigs,nan,Menge,nan,wurden.,Rilke,nan,Haus,genug.,nan,nan,nan,Rilke.,gepasst.,nan,nan,Haus,nan,nan,berührt.,umzusetzen.,nan,es,an,nan,nan,zweiten,nan,im,an,nan,nan,nan,nan,nan,nan,nan,nan,nan,nan,dumme,nan,nan,dunkle,nan,nan,im,nan,nan,nan,schon,dunkler,gerne.,nan,sinken.,besprochen.,wiederhergestellt.,schon,zweiten,Milch.,nan,wiederbelebt.,nan,deutlich.,gerne.,nan,nan,Schule.,wieder,nan,Honig,nan,nan,nan,Milch.,nan,genug.,nan,gepasst,nan,rekonstruiert.,Medikament,vermiest.,nan,deutlich.,nan,Menge,nan,gefertigt.,nan,nan,kaufen.,Schule.,nan,dummer,wurden.,berührt.,nan,,,,,,,,,,,,,,,,,,,,,,,10,0,10,0,0,8,8,8,,,,,,,space,0.344913005829,,,,,,2017_Jan_27_1259,59.4805964646,spr_backupper,001,Fr13,
,her.,nan,heißer,nan,nan,gelesen.,nan,geschafft.,nan,nan,nan,nan,nan,nan,nan,nan,geschafft.,nan,nan,nan,nan,nan,regnete.,den,nan,nan,Weltkriegs.,nan,Landkreis.,den,nan,nan,nan,nan,nan,nan,nan,nan,nan,nan,Sprüche.,nan,nan,Materie,nan,nan,Landkreis.,nan,nan,nan,auf,Materie,nan,nan,nan,nan,nan,auf,Weltkriegs.,nan,nan,nan,nan,nan,nan,nan,nan,nan,fit.,nan,her.,nan,nan,nan,nan,nan,nan,nan,haben.,nan,nan,nicht,nan,nan,nan,nan,heiße,nan,nan,nan,nan,nan,nan,nan,Sprüche.,nan,nan,nan,,,,,,,,,,,,,,,,,,,,,,,10,0,10,0,0,9,9,9,,,,,,,space,0.335774898529,,,,,,2017_Jan_27_1259,59.4805964646,spr_backupper,001,Fr13,
,,,,,,,,,,,,,,,,,,,,,,,,,,,,,,,,,,,,,,,,,,,,,,,,,,,,,,,,,,,,,,,,,,,,,,,,,,,,,,,,,,,,,,,,,,,,,,,,,,,,,,,,,,,,,,,,,,,,,,,,,10,0,10,0,,,,,,,,,,,,,None,j,0.990092992783,,,2017_Jan_27_1259,59.4805964646,spr_backupper,001,Fr13,
,Er,Er,Man,Jungtiere,Es,In,Unter,Wir,100,Sie,Außer,Viele,In,Die,Sie,Die,Wir,Die,Außer,Nicht,Jetzt,Wir,Es,Ich,Wir,Sie,Bei,Die,In,Ich,Sie,Beträchtliche,Außer,Viele,Die,Es,Wir,Wir,Dort,Die,Sie,Der,Beträchtliche,Mit,Die,Alle,In,Fernab,In,Wir,Bei,Mit,Wir,Die,Ihr,Sie,Danach,Bei,Bei,In,Am,Die,Außer,Im,Wir,Die,Die,Die,Ich,Er,Er,Dort,Manche,Walter,In,Die,100,Die,Die,Die,Das,In,Dass,Als,Im,Die,Man,Die,Er,Am,Es,Jugendliche,Die,Die,Sie,Es,Nicht,Die,,,,,,,,,,,,,,,,,,,,,,,11,0,11,0,0,0,0,0,,,,,,None,space,0.437257051468,,,,,,2017_Jan_27_1259,59.4805964646,spr_backupper,001,Fr13,
,stellt,wurde,machte,sollten,waren,meinem,keinen,haben,g,verbrauchen,den,Tonnen,meinem,Schuhe,verbrauchen,Linie,haben,Schule,dem,ein,ist,mussten,hat,nehme,konnten,verlassen,der,Lösung,der,nehme,verlassen,Stücke,das,Tonnen,Gäste,wurden,mussten,hatten,türmen,Teilnehmerinnen,hatte,Flug,Stücke,dieser,Autos,Betten,der,des,diesem,hatten,unserer,dieser,übergaben,Uhr,Blutdruck,haben,wurde,unserer,der,den,äußersten,müden,dem,Fernrohr,übergaben,Stücke,Schule,Kinder,wurde,wurde,stellt,türmen,Kreditnehmer,Scheel,den,Formen,g,Eislaufbahnen,Schuhe,Gäste,Tuch,einer,es,die,Fernrohr,Autos,machte,Uhr,hat,äußeren,wurden,können,Kinder,Uhr,hatte,waren,ein,"Uhr,",,,,,,,,,,,,,,,,,,,,,,,11,0,11,0,0,1,1,1,,,,,,,space,0.262416124344,,,,,,2017_Jan_27_1259,59.4805964646,spr_backupper,001,Fr13,
,die,trotz,mal,immer,nur,Studium,Umständen,jede,brauner,60,Bürgermeister,gebrauchte,Studium,in,60,101,jede,verbraucht,Bürgermeister,Tropfen,genau,uns,uns,eine,dann,wegen,Feier,wird,Tat,eine,wegen,saftigen,Essen,gebrauchter,suchen,Eimer,uns,in,sich,wussten,keine,zum,saftiges,Methode,beider,wurden,Tat,Rummels,Zirkus,in,Ankunft,Methode,dem,war,kann,die,die,Ankunft,Feier,Kakao,Rand,Teilnehmer,Essen,sahen,das,wurden,verbraucht,fuhren,damals,trotz,die,sich,sind,war,Kakao,wurden,braunen,wurden,in,suchen,wurde,Studie,"regnete,",Sonne,sahen,beider,mal,schlug,ein,Rand,Eimer,Kleidung,fuhren,schlug,keine,nur,Tropfen,die,,,,,,,,,,,,,,,,,,,,,,,11,0,11,0,0,2,2,2,,,,,,,space,0.269291162491,,,,,,2017_Jan_27_1259,59.4805964646,spr_backupper,001,Fr13,
,Masse,des,wieder,auf,kleinere,habe,können,Menge,Zucker,Liter,beschuldigten,Kleidung,las,Größe,Liter,hält,Menge,260.000,beschuldigten,königliches,die,durch,die,große,mit,des,gedachte,mit,wissen,große,dem,Fleischs,kann,Kleidung,die,rote,durch,Dänemark,Berge,überwiegend,Lust,Mond,Fleisch,kann,beteiligten,mit,wissen,wurde,werden,Dänemark,stand,kann,Mann,aus,schon,Erlebnisse,Leinwand,stand,gedachte,gehören,der,wurden,kann,wir,Auto,aus,260.000,mit,schnell,dem,Masse,Berge,mit,der,gehören,unter,Zuckers,mit,Größe,die,dann,wurde,hat,"unterging,",wir,beteiligter,wieder,"sporadisch,",Hemd,der,roter,bei,mit,"sporadisch,",Lust,kleinere,königlichen,er,,,,,,,,,,,,,,,,,,,,,,,11,0,11,0,0,3,3,3,,,,,,,space,0.285557985306,,,,,,2017_Jan_27_1259,59.4805964646,spr_backupper,001,Fr13,
,mit,bekannten,viel,warmem,"Delikte,",ich,Neuwahlen,alten,sind,sprudelnden,die,landen,ich,36,sprudelndes,nicht,alten,Kilowattstunden,die,Blut,richtige,Büschel,Stimmung,Packung,"minimalem,",schönen,man,"reichlichem,",wir,Packung,schönen,wurden,ich,landen,Wohnung,Farbe,Büschel,einen,schmutziger,"nicht,",auf,dauerte,wurden,man,Fahrer,"üblichem,",wir,schon,die,gelegentlich,ein,man,das,"Japan,",bei,bei,aus,ein,man,immer,Stadt,mit,ich,den,dem,"wertvollem,",Kilowattstunden,solch,dank,bekannten,mit,schmutzige,"sämtlichem,",vierte,immer,"regelmäßigem,",sind,dauerhaftem,36,Wohnung,mit,jetzt,uns,war,den,Fahrer,viel,obschon,aus,Stadt,Farbe,ausreichendem,solchen,obwohl,auf,"Delikte,",Bluts,"trug,",,,,,,,,,,,,,,,,,,,,,,,11,0,11,0,0,4,4,4,,,,,,,space,0.277846097946,,,,,,2017_Jan_27_1259,59.4805964646,spr_backupper,001,Fr13,
,einem,Skandals,Lärm,weichem,derer,mehr,vor,Kram,auf,Trinkwassers.,Störenfriede,im,mehr,hätten,Trinkwasser.,am,Krams,elektrischer,Störenfriede,hat,"Zeit,",frisches,ziemlich,salziger,sauberen,Wetters,den,purem,um,salzige,Wetter,serviert.,leider,im,des,geschleudert.,frischen,gelegentlichen,Wäsche.,was,noch,ungefähr,serviert.,eine,wurden,harten,von,immer,Tiere,einen,Glas,eine,Auto,die,minimalem,"frischem,",seltenem,Glas,der,350,liegen,zusätzlichem,leider,roten,Mann,klassischen,elektrische,unzureichenden,täglichem,Skandal,einem,Wäsche.,künftigem,Bundespräsident.,350,kaltem,auf,feinem,würden,des,"reichem,","nachgewiesen,",die,die,roten,wurden,Lärm,sie,feinem,liegen,geschleudert.,monatlichem,unzureichenden,sie,noch,deren,hat,war,,,,,,,,,,,,,,,,,,,,,,,11,0,11,0,0,5,5,5,,,,,,,space,0.269825935364,,,,,,2017_Jan_27_1259,59.4805964646,spr_backupper,001,Fr13,
,Esslöffel,wiedergewählt.,um,Untergrund,sie,als,Dezember,aus,jeden,nan,jeden.,Müll.,als,seiner,nan,Hauptbahnhof.,aus,Energie.,jeden.,den,um,Gras,"vermiest,",Wurst,Kraftstoff,die,Soldaten,Alkohol,die,Wurst,die,nan,nichts,Müll.,Herrn,nan,Grases,Besucher.,nan,Tupperware,eine,drei,nan,große,verschrottet.,Schaumstoff,den,ruhig,artgerecht,Besucher.,köstlicher,große,mehr,er,täglichen,kaltem,dichten,köstlichen,Soldaten,ml,die,schwarzem,nichts,Planeten,mehr,Schmuck,Energie.,Helmen,grünen,wiedergewählt.,Esslöffel,nan,Einkommen,nan,ml,Abduschen,jeden,Kunsteis,seiner,Herrn,goldenen,dass,Stimmung,Flut,Planet,verschrottet.,um,defekt,dichten,die,nan,Taschengeld,Helmen,defekt,eine,sie,den,aus,,,,,,,,,,,,,,,,,,,,,,,11,0,11,0,0,6,6,6,,,,,,,space,0.27299618721,,,,,,2017_Jan_27_1259,59.4805964646,spr_backupper,001,Fr13,
,warmen,nan,jede,liegen.,überführt,einmal,stattfinden.,dem,Fall,nan,nan,nan,einmal,Frau,nan,nan,dem,nan,nan,Boden,Nadelhölzer,zwängen.,dass,mit,fahren.,Wohnung.,des,verdünnt.,Probleme,mit,Wohnung.,nan,mitbringen.,nan,Gantenbein.,nan,zwängen.,nan,nan,ist.,Sammlung,Tage.,nan,Menge,nan,gefertigt.,Problemen,diskutiert.,gehalten.,nan,Wein,Menge,als,trug.,Einsatz,Saft,Gewebe,Weins,des,warme,Slums.,Kaffee,mitbringen.,ganz,als,umgearbeitet.,nan,zur,Tee,nan,warmem,nan,haftbar.,nan,warmer,gehärtet.,Fall,eingesprüht.,Frau,Gantenbeins.,Besatz,das,ziemlich,zurückgekehrt.,ganz,nan,jede,war.,Stoff,Slums.,nan,selber,zur,war.,Sammlung,überführt,Boden,Japan.,,,,,,,,,,,,,,,,,,,,,,,11,0,11,0,0,7,7,7,,,,,,,space,0.269249916077,,,,,,2017_Jan_27_1259,59.4805964646,spr_backupper,001,Fr13,
,,,,,,,,,,,,,,,,,,,,,,,,,,,,,,,,,,,,,,,,,,,,,,,,,,,,,,,,,,,,,,,,,,,,,,,,,,,,,,,,,,,,,,,,,,,,,,,,,,,,,,,,,,,,,,,,,,,,,,,,,11,0,11,0,,,,,,,,,,,,,None,j,5.55155396461,,,2017_Jan_27_1259,59.4805964646,spr_backupper,001,Fr13,
,Er,Er,Man,Jungtiere,Es,In,Unter,Wir,100,Sie,Außer,Viele,In,Die,Sie,Die,Wir,Die,Außer,Nicht,Jetzt,Wir,Es,Ich,Wir,Sie,Bei,Die,In,Ich,Sie,Beträchtliche,Außer,Viele,Die,Es,Wir,Wir,Dort,Die,Sie,Der,Beträchtliche,Mit,Die,Alle,In,Fernab,In,Wir,Bei,Mit,Wir,Die,Ihr,Sie,Danach,Bei,Bei,In,Am,Die,Außer,Im,Wir,Die,Die,Die,Ich,Er,Er,Dort,Manche,Walter,In,Die,100,Die,Die,Die,Das,In,Dass,Als,Im,Die,Man,Die,Er,Am,Es,Jugendliche,Die,Die,Sie,Es,Nicht,Die,,,,,,,,,,,,,,,,,,,,,,,12,0,12,0,0,0,0,0,,,,,,None,space,0.552600860596,,,,,,2017_Jan_27_1259,59.4805964646,spr_backupper,001,Fr13,
,stellt,wurde,machte,sollten,waren,meinem,keinen,haben,g,verbrauchen,den,Tonnen,meinem,Schuhe,verbrauchen,Linie,haben,Schule,dem,ein,ist,mussten,hat,nehme,konnten,verlassen,der,Lösung,der,nehme,verlassen,Stücke,das,Tonnen,Gäste,wurden,mussten,hatten,türmen,Teilnehmerinnen,hatte,Flug,Stücke,dieser,Autos,Betten,der,des,diesem,hatten,unserer,dieser,übergaben,Uhr,Blutdruck,haben,wurde,unserer,der,den,äußersten,müden,dem,Fernrohr,übergaben,Stücke,Schule,Kinder,wurde,wurde,stellt,türmen,Kreditnehmer,Scheel,den,Formen,g,Eislaufbahnen,Schuhe,Gäste,Tuch,einer,es,die,Fernrohr,Autos,machte,Uhr,hat,äußeren,wurden,können,Kinder,Uhr,hatte,waren,ein,"Uhr,",,,,,,,,,,,,,,,,,,,,,,,12,0,12,0,0,1,1,1,,,,,,,space,0.268814086914,,,,,,2017_Jan_27_1259,59.4805964646,spr_backupper,001,Fr13,
,die,trotz,mal,immer,nur,Studium,Umständen,jede,brauner,60,Bürgermeister,gebrauchte,Studium,in,60,101,jede,verbraucht,Bürgermeister,Tropfen,genau,uns,uns,eine,dann,wegen,Feier,wird,Tat,eine,wegen,saftigen,Essen,gebrauchter,suchen,Eimer,uns,in,sich,wussten,keine,zum,saftiges,Methode,beider,wurden,Tat,Rummels,Zirkus,in,Ankunft,Methode,dem,war,kann,die,die,Ankunft,Feier,Kakao,Rand,Teilnehmer,Essen,sahen,das,wurden,verbraucht,fuhren,damals,trotz,die,sich,sind,war,Kakao,wurden,braunen,wurden,in,suchen,wurde,Studie,"regnete,",Sonne,sahen,beider,mal,schlug,ein,Rand,Eimer,Kleidung,fuhren,schlug,keine,nur,Tropfen,die,,,,,,,,,,,,,,,,,,,,,,,12,0,12,0,0,2,2,2,,,,,,,space,0.251836061478,,,,,,2017_Jan_27_1259,59.4805964646,spr_backupper,001,Fr13,
,Masse,des,wieder,auf,kleinere,habe,können,Menge,Zucker,Liter,beschuldigten,Kleidung,las,Größe,Liter,hält,Menge,260.000,beschuldigten,königliches,die,durch,die,große,mit,des,gedachte,mit,wissen,große,dem,Fleischs,kann,Kleidung,die,rote,durch,Dänemark,Berge,überwiegend,Lust,Mond,Fleisch,kann,beteiligten,mit,wissen,wurde,werden,Dänemark,stand,kann,Mann,aus,schon,Erlebnisse,Leinwand,stand,gedachte,gehören,der,wurden,kann,wir,Auto,aus,260.000,mit,schnell,dem,Masse,Berge,mit,der,gehören,unter,Zuckers,mit,Größe,die,dann,wurde,hat,"unterging,",wir,beteiligter,wieder,"sporadisch,",Hemd,der,roter,bei,mit,"sporadisch,",Lust,kleinere,königlichen,er,,,,,,,,,,,,,,,,,,,,,,,12,0,12,0,0,3,3,3,,,,,,,space,0.245370864868,,,,,,2017_Jan_27_1259,59.4805964646,spr_backupper,001,Fr13,
,mit,bekannten,viel,warmem,"Delikte,",ich,Neuwahlen,alten,sind,sprudelnden,die,landen,ich,36,sprudelndes,nicht,alten,Kilowattstunden,die,Blut,richtige,Büschel,Stimmung,Packung,"minimalem,",schönen,man,"reichlichem,",wir,Packung,schönen,wurden,ich,landen,Wohnung,Farbe,Büschel,einen,schmutziger,"nicht,",auf,dauerte,wurden,man,Fahrer,"üblichem,",wir,schon,die,gelegentlich,ein,man,das,"Japan,",bei,bei,aus,ein,man,immer,Stadt,mit,ich,den,dem,"wertvollem,",Kilowattstunden,solch,dank,bekannten,mit,schmutzige,"sämtlichem,",vierte,immer,"regelmäßigem,",sind,dauerhaftem,36,Wohnung,mit,jetzt,uns,war,den,Fahrer,viel,obschon,aus,Stadt,Farbe,ausreichendem,solchen,obwohl,auf,"Delikte,",Bluts,"trug,",,,,,,,,,,,,,,,,,,,,,,,12,0,12,0,0,4,4,4,,,,,,,space,0.269207000732,,,,,,2017_Jan_27_1259,59.4805964646,spr_backupper,001,Fr13,
,einem,Skandals,Lärm,weichem,derer,mehr,vor,Kram,auf,Trinkwassers.,Störenfriede,im,mehr,hätten,Trinkwasser.,am,Krams,elektrischer,Störenfriede,hat,"Zeit,",frisches,ziemlich,salziger,sauberen,Wetters,den,purem,um,salzige,Wetter,serviert.,leider,im,des,geschleudert.,frischen,gelegentlichen,Wäsche.,was,noch,ungefähr,serviert.,eine,wurden,harten,von,immer,Tiere,einen,Glas,eine,Auto,die,minimalem,"frischem,",seltenem,Glas,der,350,liegen,zusätzlichem,leider,roten,Mann,klassischen,elektrische,unzureichenden,täglichem,Skandal,einem,Wäsche.,künftigem,Bundespräsident.,350,kaltem,auf,feinem,würden,des,"reichem,","nachgewiesen,",die,die,roten,wurden,Lärm,sie,feinem,liegen,geschleudert.,monatlichem,unzureichenden,sie,noch,deren,hat,war,,,,,,,,,,,,,,,,,,,,,,,12,0,12,0,0,5,5,5,,,,,,,space,0.281681060791,,,,,,2017_Jan_27_1259,59.4805964646,spr_backupper,001,Fr13,
,Esslöffel,wiedergewählt.,um,Untergrund,sie,als,Dezember,aus,jeden,nan,jeden.,Müll.,als,seiner,nan,Hauptbahnhof.,aus,Energie.,jeden.,den,um,Gras,"vermiest,",Wurst,Kraftstoff,die,Soldaten,Alkohol,die,Wurst,die,nan,nichts,Müll.,Herrn,nan,Grases,Besucher.,nan,Tupperware,eine,drei,nan,große,verschrottet.,Schaumstoff,den,ruhig,artgerecht,Besucher.,köstlicher,große,mehr,er,täglichen,kaltem,dichten,köstlichen,Soldaten,ml,die,schwarzem,nichts,Planeten,mehr,Schmuck,Energie.,Helmen,grünen,wiedergewählt.,Esslöffel,nan,Einkommen,nan,ml,Abduschen,jeden,Kunsteis,seiner,Herrn,goldenen,dass,Stimmung,Flut,Planet,verschrottet.,um,defekt,dichten,die,nan,Taschengeld,Helmen,defekt,eine,sie,den,aus,,,,,,,,,,,,,,,,,,,,,,,12,0,12,0,0,6,6,6,,,,,,,space,0.252220153809,,,,,,2017_Jan_27_1259,59.4805964646,spr_backupper,001,Fr13,
,warmen,nan,jede,liegen.,überführt,einmal,stattfinden.,dem,Fall,nan,nan,nan,einmal,Frau,nan,nan,dem,nan,nan,Boden,Nadelhölzer,zwängen.,dass,mit,fahren.,Wohnung.,des,verdünnt.,Probleme,mit,Wohnung.,nan,mitbringen.,nan,Gantenbein.,nan,zwängen.,nan,nan,ist.,Sammlung,Tage.,nan,Menge,nan,gefertigt.,Problemen,diskutiert.,gehalten.,nan,Wein,Menge,als,trug.,Einsatz,Saft,Gewebe,Weins,des,warme,Slums.,Kaffee,mitbringen.,ganz,als,umgearbeitet.,nan,zur,Tee,nan,warmem,nan,haftbar.,nan,warmer,gehärtet.,Fall,eingesprüht.,Frau,Gantenbeins.,Besatz,das,ziemlich,zurückgekehrt.,ganz,nan,jede,war.,Stoff,Slums.,nan,selber,zur,war.,Sammlung,überführt,Boden,Japan.,,,,,,,,,,,,,,,,,,,,,,,12,0,12,0,0,7,7,7,,,,,,,space,0.256445884705,,,,,,2017_Jan_27_1259,59.4805964646,spr_backupper,001,Fr13,
,Honigs,nan,Menge,nan,wurden.,Rilke,nan,Haus,genug.,nan,nan,nan,Rilke.,gepasst.,nan,nan,Haus,nan,nan,berührt.,umzusetzen.,nan,es,an,nan,nan,zweiten,nan,im,an,nan,nan,nan,nan,nan,nan,nan,nan,nan,nan,dumme,nan,nan,dunkle,nan,nan,im,nan,nan,nan,schon,dunkler,gerne.,nan,sinken.,besprochen.,wiederhergestellt.,schon,zweiten,Milch.,nan,wiederbelebt.,nan,deutlich.,gerne.,nan,nan,Schule.,wieder,nan,Honig,nan,nan,nan,Milch.,nan,genug.,nan,gepasst,nan,rekonstruiert.,Medikament,vermiest.,nan,deutlich.,nan,Menge,nan,gefertigt.,nan,nan,kaufen.,Schule.,nan,dummer,wurden.,berührt.,nan,,,,,,,,,,,,,,,,,,,,,,,12,0,12,0,0,8,8,8,,,,,,,space,0.289826154709,,,,,,2017_Jan_27_1259,59.4805964646,spr_backupper,001,Fr13,
,,,,,,,,,,,,,,,,,,,,,,,,,,,,,,,,,,,,,,,,,,,,,,,,,,,,,,,,,,,,,,,,,,,,,,,,,,,,,,,,,,,,,,,,,,,,,,,,,,,,,,,,,,,,,,,,,,,,,,,,,12,0,12,0,,,,,,,,,,,,,None,j,3.80102396011,,,2017_Jan_27_1259,59.4805964646,spr_backupper,001,Fr13,
,Er,Er,Man,Jungtiere,Es,In,Unter,Wir,100,Sie,Außer,Viele,In,Die,Sie,Die,Wir,Die,Außer,Nicht,Jetzt,Wir,Es,Ich,Wir,Sie,Bei,Die,In,Ich,Sie,Beträchtliche,Außer,Viele,Die,Es,Wir,Wir,Dort,Die,Sie,Der,Beträchtliche,Mit,Die,Alle,In,Fernab,In,Wir,Bei,Mit,Wir,Die,Ihr,Sie,Danach,Bei,Bei,In,Am,Die,Außer,Im,Wir,Die,Die,Die,Ich,Er,Er,Dort,Manche,Walter,In,Die,100,Die,Die,Die,Das,In,Dass,Als,Im,Die,Man,Die,Er,Am,Es,Jugendliche,Die,Die,Sie,Es,Nicht,Die,,,,,,,,,,,,,,,,,,,,,,,13,0,13,0,0,0,0,0,,,,,,None,space,0.445901155472,,,,,,2017_Jan_27_1259,59.4805964646,spr_backupper,001,Fr13,
,stellt,wurde,machte,sollten,waren,meinem,keinen,haben,g,verbrauchen,den,Tonnen,meinem,Schuhe,verbrauchen,Linie,haben,Schule,dem,ein,ist,mussten,hat,nehme,konnten,verlassen,der,Lösung,der,nehme,verlassen,Stücke,das,Tonnen,Gäste,wurden,mussten,hatten,türmen,Teilnehmerinnen,hatte,Flug,Stücke,dieser,Autos,Betten,der,des,diesem,hatten,unserer,dieser,übergaben,Uhr,Blutdruck,haben,wurde,unserer,der,den,äußersten,müden,dem,Fernrohr,übergaben,Stücke,Schule,Kinder,wurde,wurde,stellt,türmen,Kreditnehmer,Scheel,den,Formen,g,Eislaufbahnen,Schuhe,Gäste,Tuch,einer,es,die,Fernrohr,Autos,machte,Uhr,hat,äußeren,wurden,können,Kinder,Uhr,hatte,waren,ein,"Uhr,",,,,,,,,,,,,,,,,,,,,,,,13,0,13,0,0,1,1,1,,,,,,,space,0.261425971985,,,,,,2017_Jan_27_1259,59.4805964646,spr_backupper,001,Fr13,
,die,trotz,mal,immer,nur,Studium,Umständen,jede,brauner,60,Bürgermeister,gebrauchte,Studium,in,60,101,jede,verbraucht,Bürgermeister,Tropfen,genau,uns,uns,eine,dann,wegen,Feier,wird,Tat,eine,wegen,saftigen,Essen,gebrauchter,suchen,Eimer,uns,in,sich,wussten,keine,zum,saftiges,Methode,beider,wurden,Tat,Rummels,Zirkus,in,Ankunft,Methode,dem,war,kann,die,die,Ankunft,Feier,Kakao,Rand,Teilnehmer,Essen,sahen,das,wurden,verbraucht,fuhren,damals,trotz,die,sich,sind,war,Kakao,wurden,braunen,wurden,in,suchen,wurde,Studie,"regnete,",Sonne,sahen,beider,mal,schlug,ein,Rand,Eimer,Kleidung,fuhren,schlug,keine,nur,Tropfen,die,,,,,,,,,,,,,,,,,,,,,,,13,0,13,0,0,2,2,2,,,,,,,space,0.252363920212,,,,,,2017_Jan_27_1259,59.4805964646,spr_backupper,001,Fr13,
,Masse,des,wieder,auf,kleinere,habe,können,Menge,Zucker,Liter,beschuldigten,Kleidung,las,Größe,Liter,hält,Menge,260.000,beschuldigten,königliches,die,durch,die,große,mit,des,gedachte,mit,wissen,große,dem,Fleischs,kann,Kleidung,die,rote,durch,Dänemark,Berge,überwiegend,Lust,Mond,Fleisch,kann,beteiligten,mit,wissen,wurde,werden,Dänemark,stand,kann,Mann,aus,schon,Erlebnisse,Leinwand,stand,gedachte,gehören,der,wurden,kann,wir,Auto,aus,260.000,mit,schnell,dem,Masse,Berge,mit,der,gehören,unter,Zuckers,mit,Größe,die,dann,wurde,hat,"unterging,",wir,beteiligter,wieder,"sporadisch,",Hemd,der,roter,bei,mit,"sporadisch,",Lust,kleinere,königlichen,er,,,,,,,,,,,,,,,,,,,,,,,13,0,13,0,0,3,3,3,,,,,,,space,0.255128145218,,,,,,2017_Jan_27_1259,59.4805964646,spr_backupper,001,Fr13,
,mit,bekannten,viel,warmem,"Delikte,",ich,Neuwahlen,alten,sind,sprudelnden,die,landen,ich,36,sprudelndes,nicht,alten,Kilowattstunden,die,Blut,richtige,Büschel,Stimmung,Packung,"minimalem,",schönen,man,"reichlichem,",wir,Packung,schönen,wurden,ich,landen,Wohnung,Farbe,Büschel,einen,schmutziger,"nicht,",auf,dauerte,wurden,man,Fahrer,"üblichem,",wir,schon,die,gelegentlich,ein,man,das,"Japan,",bei,bei,aus,ein,man,immer,Stadt,mit,ich,den,dem,"wertvollem,",Kilowattstunden,solch,dank,bekannten,mit,schmutzige,"sämtlichem,",vierte,immer,"regelmäßigem,",sind,dauerhaftem,36,Wohnung,mit,jetzt,uns,war,den,Fahrer,viel,obschon,aus,Stadt,Farbe,ausreichendem,solchen,obwohl,auf,"Delikte,",Bluts,"trug,",,,,,,,,,,,,,,,,,,,,,,,13,0,13,0,0,4,4,4,,,,,,,space,0.292708873749,,,,,,2017_Jan_27_1259,59.4805964646,spr_backupper,001,Fr13,
,einem,Skandals,Lärm,weichem,derer,mehr,vor,Kram,auf,Trinkwassers.,Störenfriede,im,mehr,hätten,Trinkwasser.,am,Krams,elektrischer,Störenfriede,hat,"Zeit,",frisches,ziemlich,salziger,sauberen,Wetters,den,purem,um,salzige,Wetter,serviert.,leider,im,des,geschleudert.,frischen,gelegentlichen,Wäsche.,was,noch,ungefähr,serviert.,eine,wurden,harten,von,immer,Tiere,einen,Glas,eine,Auto,die,minimalem,"frischem,",seltenem,Glas,der,350,liegen,zusätzlichem,leider,roten,Mann,klassischen,elektrische,unzureichenden,täglichem,Skandal,einem,Wäsche.,künftigem,Bundespräsident.,350,kaltem,auf,feinem,würden,des,"reichem,","nachgewiesen,",die,die,roten,wurden,Lärm,sie,feinem,liegen,geschleudert.,monatlichem,unzureichenden,sie,noch,deren,hat,war,,,,,,,,,,,,,,,,,,,,,,,13,0,13,0,0,5,5,5,,,,,,,space,0.253984928131,,,,,,2017_Jan_27_1259,59.4805964646,spr_backupper,001,Fr13,
,Esslöffel,wiedergewählt.,um,Untergrund,sie,als,Dezember,aus,jeden,nan,jeden.,Müll.,als,seiner,nan,Hauptbahnhof.,aus,Energie.,jeden.,den,um,Gras,"vermiest,",Wurst,Kraftstoff,die,Soldaten,Alkohol,die,Wurst,die,nan,nichts,Müll.,Herrn,nan,Grases,Besucher.,nan,Tupperware,eine,drei,nan,große,verschrottet.,Schaumstoff,den,ruhig,artgerecht,Besucher.,köstlicher,große,mehr,er,täglichen,kaltem,dichten,köstlichen,Soldaten,ml,die,schwarzem,nichts,Planeten,mehr,Schmuck,Energie.,Helmen,grünen,wiedergewählt.,Esslöffel,nan,Einkommen,nan,ml,Abduschen,jeden,Kunsteis,seiner,Herrn,goldenen,dass,Stimmung,Flut,Planet,verschrottet.,um,defekt,dichten,die,nan,Taschengeld,Helmen,defekt,eine,sie,den,aus,,,,,,,,,,,,,,,,,,,,,,,13,0,13,0,0,6,6,6,,,,,,,space,0.296514987946,,,,,,2017_Jan_27_1259,59.4805964646,spr_backupper,001,Fr13,
,warmen,nan,jede,liegen.,überführt,einmal,stattfinden.,dem,Fall,nan,nan,nan,einmal,Frau,nan,nan,dem,nan,nan,Boden,Nadelhölzer,zwängen.,dass,mit,fahren.,Wohnung.,des,verdünnt.,Probleme,mit,Wohnung.,nan,mitbringen.,nan,Gantenbein.,nan,zwängen.,nan,nan,ist.,Sammlung,Tage.,nan,Menge,nan,gefertigt.,Problemen,diskutiert.,gehalten.,nan,Wein,Menge,als,trug.,Einsatz,Saft,Gewebe,Weins,des,warme,Slums.,Kaffee,mitbringen.,ganz,als,umgearbeitet.,nan,zur,Tee,nan,warmem,nan,haftbar.,nan,warmer,gehärtet.,Fall,eingesprüht.,Frau,Gantenbeins.,Besatz,das,ziemlich,zurückgekehrt.,ganz,nan,jede,war.,Stoff,Slums.,nan,selber,zur,war.,Sammlung,überführt,Boden,Japan.,,,,,,,,,,,,,,,,,,,,,,,13,0,13,0,0,7,7,7,,,,,,,space,0.302670955658,,,,,,2017_Jan_27_1259,59.4805964646,spr_backupper,001,Fr13,
,Honigs,nan,Menge,nan,wurden.,Rilke,nan,Haus,genug.,nan,nan,nan,Rilke.,gepasst.,nan,nan,Haus,nan,nan,berührt.,umzusetzen.,nan,es,an,nan,nan,zweiten,nan,im,an,nan,nan,nan,nan,nan,nan,nan,nan,nan,nan,dumme,nan,nan,dunkle,nan,nan,im,nan,nan,nan,schon,dunkler,gerne.,nan,sinken.,besprochen.,wiederhergestellt.,schon,zweiten,Milch.,nan,wiederbelebt.,nan,deutlich.,gerne.,nan,nan,Schule.,wieder,nan,Honig,nan,nan,nan,Milch.,nan,genug.,nan,gepasst,nan,rekonstruiert.,Medikament,vermiest.,nan,deutlich.,nan,Menge,nan,gefertigt.,nan,nan,kaufen.,Schule.,nan,dummer,wurden.,berührt.,nan,,,,,,,,,,,,,,,,,,,,,,,13,0,13,0,0,8,8,8,,,,,,,space,0.330868959427,,,,,,2017_Jan_27_1259,59.4805964646,spr_backupper,001,Fr13,
