text,sent48,sent9,sent8,sent15,sent3,sent2,sent1,sent14,sent7,sent6,sent5,sent4,sent57,sent56,sent55,sent54,sent53,sent52,sent51,sent50,sent13,sent12,sent11,sent10,sent17,sent16,sent59,sent58,sent93,sent92,sent91,sent90,sent97,sent96,sent95,sent94,sent98,sent22,sent23,sent20,sent21,sent26,sent27,sent24,sent25,sent28,sent29,sent68,sent69,sent66,sent67,sent64,sent65,sent62,sent63,sent60,sent61,sent31,sent30,sent33,sent32,sent35,sent34,sent37,sent36,sent39,sent38,sent79,sent78,sent75,sent74,sent77,sent76,sent71,sent70,sent73,sent72,sent19,sent49,sent18,sent44,sent45,sent84,sent85,sent86,sent87,sent80,sent81,sent82,sent83,sent40,sent41,sent42,sent43,sent88,sent89,sent46,sent47,intros.thisRepN,intros.thisTrialN,intros.thisN,intros.thisIndex,trials.thisRepN,trials.thisTrialN,trials.thisN,trials.thisIndex,testWords.thisRepN,testWords.thisTrialN,testWords.thisN,testWords.thisIndex,test1,test3,test2,test5,test4,test7,test6,test9,test8,test10,realTrials.thisRepN,realTrials.thisTrialN,realTrials.thisN,realTrials.thisIndex,words.thisRepN,words.thisTrialN,words.thisN,words.thisIndex,key_resp_3.keys,key_resp_3.rt,key_resp_8.keys,key_resp_10.keys,key_resp_10.rt,key_resp_6.keys,wordRead.keys,wordRead.rt,key_resp_5.keys,questAnswer.keys,questAnswer.rt,key_resp_6.rt,key_resp_5.rt,date,frameRate,expName,session,participant,
"Vielen Dank, dass Sie an diesem Experiment teilnehmen. Vor dem eigentlichen Experiment sehen Sie nun zuerst eine kurze Erläuterung, und Sie absolvieren ein kurze Übungsphase.

Das Experiment dauert insgesamt nicht mehr als 45 Minuten.",,,,,,,,,,,,,,,,,,,,,,,,,,,,,,,,,,,,,,,,,,,,,,,,,,,,,,,,,,,,,,,,,,,,,,,,,,,,,,,,,,,,,,,,,,,,,,,,,,,0,0,0,0,,,,,,,,,,,,,,,,,,,,,,,,,,,,,,,,,,,,,,,,2017_Jan_27_1456,61.1385166603,spr_backupper,001,Fr15,
"In diesem Experiment lesen Sie deutsche Sätze, indem Sie sich von Wort zu Wort mit der Leertaste durch den Satz klicken.",,,,,,,,,,,,,,,,,,,,,,,,,,,,,,,,,,,,,,,,,,,,,,,,,,,,,,,,,,,,,,,,,,,,,,,,,,,,,,,,,,,,,,,,,,,,,,,,,,,0,1,1,1,,,,,,,,,,,,,,,,,,,,,,,,,,,,,,,,,,,,,,,,2017_Jan_27_1456,61.1385166603,spr_backupper,001,Fr15,
"Sie sehen dabei immer nur das aktuelle Wort. Die Lesegeschwindigkeit bestimmen Sie vollständig selber. Vor jedem Satz sehen Sie in der Bildschirmmitte für zwei Sekunden ein + an der Stelle, an der dann die Wörter erscheinen.",,,,,,,,,,,,,,,,,,,,,,,,,,,,,,,,,,,,,,,,,,,,,,,,,,,,,,,,,,,,,,,,,,,,,,,,,,,,,,,,,,,,,,,,,,,,,,,,,,,0,2,2,2,,,,,,,,,,,,,,,,,,,,,,,,,,,,,,,,,,,,,,,,2017_Jan_27_1456,61.1385166603,spr_backupper,001,Fr15,
"Nach jedem Satz wird Ihnen eine Ja/Nein-Verständnisfrage zum zuvor gelesenen Satz gestellt, die Sie mit der J-Taste für "Ja" und der N-Taste für "Nein" beantworten. Antworten Sie möglichst spontan und ohne lange Nachzudenken.",,,,,,,,,,,,,,,,,,,,,,,,,,,,,,,,,,,,,,,,,,,,,,,,,,,,,,,,,,,,,,,,,,,,,,,,,,,,,,,,,,,,,,,,,,,,,,,,,,,0,3,3,3,,,,,,,,,,,,,,,,,,,,,,,,,,,,,,,,,,,,,,,,2017_Jan_27_1456,61.1385166603,spr_backupper,001,Fr15,
"Unterbrechen Sie das Experiment bitte auf keinen Fall, stellen Sie den ExperimentatorInnen nach dem Experimentbeginn keine Fragen, und lassen Sie sich nicht durch Umgebungsgeräusche ablenken.",,,,,,,,,,,,,,,,,,,,,,,,,,,,,,,,,,,,,,,,,,,,,,,,,,,,,,,,,,,,,,,,,,,,,,,,,,,,,,,,,,,,,,,,,,,,,,,,,,,0,4,4,4,,,,,,,,,,,,,,,,,,,,,,,,,,,,,,,,,,,,,,,,2017_Jan_27_1456,61.1385166603,spr_backupper,001,Fr15,
"Im nächsten Schritt beantworten Sie bitte eine Frage zu Ihren Deutschkenntnissen. Danach beginnt eine Übungseinheit, mit der Sie sich an die Art der Durchführung dieses Experiments gewöhnen können.",,,,,,,,,,,,,,,,,,,,,,,,,,,,,,,,,,,,,,,,,,,,,,,,,,,,,,,,,,,,,,,,,,,,,,,,,,,,,,,,,,,,,,,,,,,,,,,,,,,0,5,5,5,,,,,,,,,,,,,,,,,,,,,,,,,,,,,,,,,,,,,,,,2017_Jan_27_1456,61.1385166603,spr_backupper,001,Fr15,
,,,,,,,,,,,,,,,,,,,,,,,,,,,,,,,,,,,,,,,,,,,,,,,,,,,,,,,,,,,,,,,,,,,,,,,,,,,,,,,,,,,,,,,,,,,,,,,,,,,,,,,,,,,,,,,,,,,,,,,,,,,,,,,,,j,12.4591190815,,,,,,,,,,,,2017_Jan_27_1456,61.1385166603,spr_backupper,001,Fr15,
,,,,,,,,,,,,,,,,,,,,,,,,,,,,,,,,,,,,,,,,,,,,,,,,,,,,,,,,,,,,,,,,,,,,,,,,,,,,,,,,,,,,,,,,,,,,,,,,,,,,,,,0,0,0,0,,,,,,,,,,,,,,,,,,,,,,,,,None,,,,,,,,,,,2017_Jan_27_1456,61.1385166603,spr_backupper,001,Fr15,
,,,,,,,,,,,,,,,,,,,,,,,,,,,,,,,,,,,,,,,,,,,,,,,,,,,,,,,,,,,,,,,,,,,,,,,,,,,,,,,,,,,,,,,,,,,,,,,,,,,,,,,1,0,1,0,,,,,,,,,,,,,,,,,,,,,,,,,None,,,,,,,,,,,2017_Jan_27_1456,61.1385166603,spr_backupper,001,Fr15,
,,,,,,,,,,,,,,,,,,,,,,,,,,,,,,,,,,,,,,,,,,,,,,,,,,,,,,,,,,,,,,,,,,,,,,,,,,,,,,,,,,,,,,,,,,,,,,,,,,,,,,,2,0,2,0,,,,,,,,,,,,,,,,,,,,,,,,,None,,,,,,,,,,,2017_Jan_27_1456,61.1385166603,spr_backupper,001,Fr15,
,,,,,,,,,,,,,,,,,,,,,,,,,,,,,,,,,,,,,,,,,,,,,,,,,,,,,,,,,,,,,,,,,,,,,,,,,,,,,,,,,,,,,,,,,,,,,,,,,,,,,,,3,0,3,0,,,,,,,,,,,,,,,,,,,,,,,,,None,,,,,,,,,,,2017_Jan_27_1456,61.1385166603,spr_backupper,001,Fr15,
,,,,,,,,,,,,,,,,,,,,,,,,,,,,,,,,,,,,,,,,,,,,,,,,,,,,,,,,,,,,,,,,,,,,,,,,,,,,,,,,,,,,,,,,,,,,,,,,,,,,,,,4,0,4,0,,,,,,,,,,,,,,,,,,,,,,,,,None,,,,,,,,,,,2017_Jan_27_1456,61.1385166603,spr_backupper,001,Fr15,
,,,,,,,,,,,,,,,,,,,,,,,,,,,,,,,,,,,,,,,,,,,,,,,,,,,,,,,,,,,,,,,,,,,,,,,,,,,,,,,,,,,,,,,,,,,,,,,,,,,,,,,5,0,5,0,,,,,,,,,,,,,,,,,,,,,,,,,None,,,,,,,,,,,2017_Jan_27_1456,61.1385166603,spr_backupper,001,Fr15,
,,,,,,,,,,,,,,,,,,,,,,,,,,,,,,,,,,,,,,,,,,,,,,,,,,,,,,,,,,,,,,,,,,,,,,,,,,,,,,,,,,,,,,,,,,,,,,,,,,,,,,,6,0,6,0,,,,,,,,,,,,,,,,,,,,,,,,,None,,,,,,,,,,,2017_Jan_27_1456,61.1385166603,spr_backupper,001,Fr15,
,,,,,,,,,,,,,,,,,,,,,,,,,,,,,,,,,,,,,,,,,,,,,,,,,,,,,,,,,,,,,,,,,,,,,,,,,,,,,,,,,,,,,,,,,,,,,,,,,,,,,,,7,0,7,0,,,,,,,,,,,,,,,,,,,,,,,,,None,,,,,,,,,,,2017_Jan_27_1456,61.1385166603,spr_backupper,001,Fr15,
,,,,,,,,,,,,,,,,,,,,,,,,,,,,,,,,,,,,,,,,,,,,,,,,,,,,,,,,,,,,,,,,,,,,,,,,,,,,,,,,,,,,,,,,,,,,,,,,,,,,,,,8,0,8,0,,,,,,,,,,,,,,,,,,,,,,,,,None,,,,,,,,,,,2017_Jan_27_1456,61.1385166603,spr_backupper,001,Fr15,
,,,,,,,,,,,,,,,,,,,,,,,,,,,,,,,,,,,,,,,,,,,,,,,,,,,,,,,,,,,,,,,,,,,,,,,,,,,,,,,,,,,,,,,,,,,,,,,,,,,,,,,9,0,9,0,,,,,,,,,,,,,,,,,,,,,,,,,None,,,,,,,,,,,2017_Jan_27_1456,61.1385166603,spr_backupper,001,Fr15,
,,,,,,,,,,,,,,,,,,,,,,,,,,,,,,,,,,,,,,,,,,,,,,,,,,,,,,,,,,,,,,,,,,,,,,,,,,,,,,,,,,,,,,,,,,,,,,,,,,,,,,,,,,,,,,,,,,,,,,,,,,,,,,,,,,,,space,2.07935905457,,,,,,,,,2017_Jan_27_1456,61.1385166603,spr_backupper,001,Fr15,
,Die,Die,Unter,Die,Es,In,In,Die,Beträchtliche,Die,Nicht,Wir,Bei,Im,Ihr,Die,Dass,Nicht,Am,Ich,Dort,100,Der,Außer,Im,Die,Die,Er,Ich,In,Er,Die,Als,Die,Mit,In,Wir,Wir,Das,Sie,Wir,Es,Sie,Die,In,Alle,Jungtiere,Wir,Sie,Die,Viele,Sie,Walter,Wir,Fernab,Bei,Die,Er,In,Ich,Viele,Es,Am,Wir,Sie,Bei,Wir,Die,Manche,100,Beträchtliche,Außer,In,Man,Er,Die,Sie,Jugendliche,Man,Mit,Jetzt,Die,In,Die,Außer,Es,Wir,Es,Sie,Danach,Die,Die,Die,Außer,Die,Dort,Bei,Er,,,,,,,,,,,,,,,,,,,,,,,0,0,0,0,0,0,0,0,,,,,,None,space,0.909280061722,,,,,,2017_Jan_27_1456,61.1385166603,spr_backupper,001,Fr15,
,Schuhe,Teilnehmerinnen,keinen,Eislaufbahnen,wurden,den,der,Gäste,Stücke,Schule,ein,konnten,der,Fernrohr,Blutdruck,Kinder,es,ein,äußeren,wurde,türmen,g,Flug,dem,Fernrohr,müden,Schule,wurde,nehme,den,hat,Uhr,die,Formen,dieser,der,haben,hatten,Tuch,hatte,haben,waren,verbrauchen,Uhr,einer,Betten,sollten,mussten,verbrauchen,Gäste,Tonnen,haben,Scheel,übergaben,des,unserer,Lösung,stellt,meinem,nehme,Tonnen,hat,äußersten,mussten,verlassen,der,übergaben,Linie,Kreditnehmer,g,Stücke,dem,meinem,machte,stellt,Schuhe,verlassen,können,machte,dieser,ist,Autos,diesem,Autos,das,waren,hatten,wurden,hatte,wurde,Kinder,"Uhr,",Stücke,den,Uhr,türmen,unserer,wurde,,,,,,,,,,,,,,,,,,,,,,,0,0,0,0,0,1,1,1,,,,,,,space,0.435963153839,,,,,,2017_Jan_27_1456,61.1385166603,spr_backupper,001,Fr15,
,in,wussten,Umständen,wurden,Eimer,Kakao,Tat,suchen,saftiges,verbraucht,Tropfen,dann,Feier,sahen,kann,fuhren,"regnete,",Tropfen,Rand,damals,sich,brauner,zum,Essen,sahen,Teilnehmer,verbraucht,trotz,eine,Kakao,ein,schlug,Sonne,wurden,Methode,Tat,jede,in,wurde,keine,jede,nur,60,schlug,Studie,wurden,immer,uns,60,suchen,gebrauchter,die,war,dem,Rummels,Ankunft,wird,die,Studium,eine,gebrauchte,uns,Rand,uns,wegen,Feier,das,101,sind,braunen,saftigen,Bürgermeister,Studium,mal,die,in,wegen,Kleidung,mal,Methode,genau,beider,Zirkus,beider,Essen,nur,in,Eimer,keine,die,fuhren,die,wurden,Bürgermeister,war,sich,Ankunft,trotz,,,,,,,,,,,,,,,,,,,,,,,0,0,0,0,0,2,2,2,,,,,,,space,0.554038047791,,,,,,2017_Jan_27_1456,61.1385166603,spr_backupper,001,Fr15,
,Größe,überwiegend,können,mit,roter,gehören,wissen,die,Fleisch,260.000,königlichen,mit,gedachte,wir,schon,mit,hat,königliches,der,schnell,Berge,Zucker,Mond,kann,wir,wurden,260.000,dem,große,gehören,Hemd,"sporadisch,","unterging,",unter,kann,wissen,Menge,Dänemark,dann,Lust,Menge,kleinere,Liter,"sporadisch,",wurde,mit,auf,durch,Liter,die,Kleidung,Erlebnisse,der,Mann,wurde,stand,mit,Masse,habe,große,Kleidung,die,der,durch,des,gedachte,Auto,hält,mit,Zuckers,Fleischs,beschuldigten,las,wieder,Masse,Größe,dem,bei,wieder,kann,die,beteiligten,werden,beteiligter,kann,kleinere,Dänemark,rote,Lust,Leinwand,mit,er,aus,beschuldigten,aus,Berge,stand,des,,,,,,,,,,,,,,,,,,,,,,,0,0,0,0,0,3,3,3,,,,,,,space,0.532065153122,,,,,,2017_Jan_27_1456,61.1385166603,spr_backupper,001,Fr15,
,36,"nicht,",Neuwahlen,dauerhaftem,Farbe,immer,wir,Wohnung,wurden,Kilowattstunden,Bluts,"minimalem,",man,den,bei,solch,uns,Blut,Stadt,dank,schmutziger,sind,dauerte,ich,den,mit,Kilowattstunden,bekannten,Packung,immer,aus,obschon,war,"regelmäßigem,",man,wir,alten,einen,mit,auf,alten,"Delikte,",sprudelnden,obwohl,jetzt,"üblichem,",warmem,Büschel,sprudelndes,Wohnung,landen,bei,vierte,das,schon,ein,"reichlichem,",mit,ich,Packung,landen,Stimmung,Stadt,Büschel,schönen,man,dem,nicht,"sämtlichem,",sind,wurden,die,ich,viel,mit,36,schönen,ausreichendem,viel,man,richtige,Fahrer,die,Fahrer,ich,"Delikte,",gelegentlich,Farbe,auf,aus,solchen,"trug,","wertvollem,",die,"Japan,",schmutzige,ein,bekannten,,,,,,,,,,,,,,,,,,,,,,,0,0,0,0,0,4,4,4,,,,,,,space,0.464559078217,,,,,,2017_Jan_27_1456,61.1385166603,spr_backupper,001,Fr15,
,würden,was,vor,feinem,geschleudert.,350,von,des,serviert.,elektrische,hat,sauberen,den,roten,minimalem,unzureichenden,die,hat,liegen,täglichem,Wäsche.,auf,ungefähr,leider,roten,zusätzlichem,elektrischer,Skandal,salzige,350,feinem,sie,die,kaltem,eine,um,Krams,gelegentlichen,"reichem,",noch,Kram,derer,Trinkwassers.,sie,"nachgewiesen,",harten,weichem,frischen,Trinkwasser.,des,im,"frischem,",Bundespräsident.,Auto,immer,Glas,purem,einem,mehr,salziger,im,ziemlich,liegen,frisches,Wetters,der,Mann,am,künftigem,auf,serviert.,Störenfriede,mehr,Lärm,einem,hätten,Wetter,monatlichem,Lärm,eine,"Zeit,",wurden,Tiere,wurden,leider,deren,einen,geschleudert.,noch,seltenem,unzureichenden,war,klassischen,Störenfriede,die,Wäsche.,Glas,Skandals,,,,,,,,,,,,,,,,,,,,,,,0,0,0,0,0,5,5,5,,,,,,,space,0.500049114227,,,,,,2017_Jan_27_1456,61.1385166603,spr_backupper,001,Fr15,
,seiner,Tupperware,Dezember,Kunsteis,nan,ml,den,Herrn,nan,Energie.,den,Kraftstoff,Soldaten,Planet,täglichen,Helmen,Stimmung,den,die,grünen,nan,jeden,drei,nichts,Planeten,schwarzem,Energie.,wiedergewählt.,Wurst,ml,dichten,defekt,Flut,Abduschen,große,die,aus,Besucher.,goldenen,eine,aus,sie,nan,defekt,dass,Schaumstoff,Untergrund,Grases,nan,Herrn,Müll.,kaltem,nan,mehr,ruhig,köstlicher,Alkohol,Esslöffel,als,Wurst,Müll.,"vermiest,",die,Gras,die,Soldaten,mehr,Hauptbahnhof.,Einkommen,jeden,nan,jeden.,als,um,Esslöffel,seiner,die,Taschengeld,um,große,um,verschrottet.,artgerecht,verschrottet.,nichts,sie,Besucher.,nan,eine,dichten,Helmen,aus,Schmuck,jeden.,er,nan,köstlichen,wiedergewählt.,,,,,,,,,,,,,,,,,,,,,,,0,0,0,0,0,6,6,6,,,,,,,space,0.45973610878,,,,,,2017_Jan_27_1456,61.1385166603,spr_backupper,001,Fr15,
,Frau,ist.,stattfinden.,eingesprüht.,nan,warme,Problemen,Gantenbeins.,nan,nan,Boden,fahren.,des,ganz,Einsatz,zur,ziemlich,Boden,Slums.,Tee,nan,Fall,Tage.,mitbringen.,ganz,Kaffee,nan,nan,mit,warmer,Stoff,war.,zurückgekehrt.,gehärtet.,Menge,Probleme,dem,nan,Besatz,Sammlung,dem,überführt,nan,war.,das,gefertigt.,liegen.,zwängen.,nan,Gantenbein.,nan,Saft,nan,als,diskutiert.,Wein,verdünnt.,warmen,einmal,mit,nan,dass,Slums.,zwängen.,Wohnung.,des,als,nan,haftbar.,Fall,nan,nan,einmal,jede,warmem,Frau,Wohnung.,selber,jede,Menge,Nadelhölzer,nan,gehalten.,nan,mitbringen.,überführt,nan,nan,Sammlung,Gewebe,zur,Japan.,umgearbeitet.,nan,trug.,nan,Weins,nan,,,,,,,,,,,,,,,,,,,,,,,0,0,0,0,0,7,7,7,,,,,,,space,0.426054954529,,,,,,2017_Jan_27_1456,61.1385166603,spr_backupper,001,Fr15,
,gepasst,nan,nan,nan,nan,Milch.,im,nan,nan,nan,berührt.,nan,zweiten,deutlich.,sinken.,Schule.,vermiest.,berührt.,nan,wieder,nan,genug.,nan,nan,deutlich.,wiederbelebt.,nan,nan,an,Milch.,gefertigt.,nan,nan,nan,dunkler,im,Haus,nan,rekonstruiert.,dumme,Haus,wurden.,nan,nan,Medikament,nan,nan,nan,nan,nan,nan,besprochen.,nan,gerne.,nan,schon,nan,Honigs,Rilke,an,nan,es,nan,nan,nan,zweiten,gerne.,nan,nan,genug.,nan,nan,Rilke.,Menge,Honig,gepasst.,nan,kaufen.,Menge,dunkle,umzusetzen.,nan,nan,nan,nan,wurden.,nan,nan,dummer,wiederhergestellt.,Schule.,nan,nan,nan,nan,nan,schon,nan,,,,,,,,,,,,,,,,,,,,,,,0,0,0,0,0,8,8,8,,,,,,,space,0.437076807022,,,,,,2017_Jan_27_1456,61.1385166603,spr_backupper,001,Fr15,
,haben.,nan,nan,nan,nan,nan,Landkreis.,nan,nan,nan,nan,nan,Weltkriegs.,nan,nan,nan,nan,nan,nan,fit.,nan,nan,nan,nan,nan,nan,nan,nan,den,nan,nan,nan,nan,nan,Materie,Landkreis.,geschafft.,nan,nan,Sprüche.,geschafft.,nan,nan,nan,nicht,nan,nan,nan,nan,nan,nan,nan,nan,nan,nan,auf,nan,her.,gelesen.,den,nan,regnete.,nan,nan,nan,Weltkriegs.,nan,nan,nan,nan,nan,nan,nan,heiße,her.,nan,nan,nan,heißer,Materie,nan,nan,nan,nan,nan,nan,nan,nan,Sprüche.,nan,nan,nan,nan,nan,nan,nan,auf,nan,,,,,,,,,,,,,,,,,,,,,,,0,0,0,0,0,9,9,9,,,,,,,space,0.524052858353,,,,,,2017_Jan_27_1456,61.1385166603,spr_backupper,001,Fr15,
,,,,,,,,,,,,,,,,,,,,,,,,,,,,,,,,,,,,,,,,,,,,,,,,,,,,,,,,,,,,,,,,,,,,,,,,,,,,,,,,,,,,,,,,,,,,,,,,,,,,,,,,,,,,,,,,,,,,,,,,,0,0,0,0,,,,,,,,,,,,,None,j,0.949141025543,,,2017_Jan_27_1456,61.1385166603,spr_backupper,001,Fr15,
,Die,Die,Unter,Die,Es,In,In,Die,Beträchtliche,Die,Nicht,Wir,Bei,Im,Ihr,Die,Dass,Nicht,Am,Ich,Dort,100,Der,Außer,Im,Die,Die,Er,Ich,In,Er,Die,Als,Die,Mit,In,Wir,Wir,Das,Sie,Wir,Es,Sie,Die,In,Alle,Jungtiere,Wir,Sie,Die,Viele,Sie,Walter,Wir,Fernab,Bei,Die,Er,In,Ich,Viele,Es,Am,Wir,Sie,Bei,Wir,Die,Manche,100,Beträchtliche,Außer,In,Man,Er,Die,Sie,Jugendliche,Man,Mit,Jetzt,Die,In,Die,Außer,Es,Wir,Es,Sie,Danach,Die,Die,Die,Außer,Die,Dort,Bei,Er,,,,,,,,,,,,,,,,,,,,,,,1,0,1,0,0,0,0,0,,,,,,space,space,0.370032072067,,,,1.17452001572,,2017_Jan_27_1456,61.1385166603,spr_backupper,001,Fr15,
,Schuhe,Teilnehmerinnen,keinen,Eislaufbahnen,wurden,den,der,Gäste,Stücke,Schule,ein,konnten,der,Fernrohr,Blutdruck,Kinder,es,ein,äußeren,wurde,türmen,g,Flug,dem,Fernrohr,müden,Schule,wurde,nehme,den,hat,Uhr,die,Formen,dieser,der,haben,hatten,Tuch,hatte,haben,waren,verbrauchen,Uhr,einer,Betten,sollten,mussten,verbrauchen,Gäste,Tonnen,haben,Scheel,übergaben,des,unserer,Lösung,stellt,meinem,nehme,Tonnen,hat,äußersten,mussten,verlassen,der,übergaben,Linie,Kreditnehmer,g,Stücke,dem,meinem,machte,stellt,Schuhe,verlassen,können,machte,dieser,ist,Autos,diesem,Autos,das,waren,hatten,wurden,hatte,wurde,Kinder,"Uhr,",Stücke,den,Uhr,türmen,unserer,wurde,,,,,,,,,,,,,,,,,,,,,,,1,0,1,0,0,1,1,1,,,,,,,space,0.451766014099,,,,,,2017_Jan_27_1456,61.1385166603,spr_backupper,001,Fr15,
,in,wussten,Umständen,wurden,Eimer,Kakao,Tat,suchen,saftiges,verbraucht,Tropfen,dann,Feier,sahen,kann,fuhren,"regnete,",Tropfen,Rand,damals,sich,brauner,zum,Essen,sahen,Teilnehmer,verbraucht,trotz,eine,Kakao,ein,schlug,Sonne,wurden,Methode,Tat,jede,in,wurde,keine,jede,nur,60,schlug,Studie,wurden,immer,uns,60,suchen,gebrauchter,die,war,dem,Rummels,Ankunft,wird,die,Studium,eine,gebrauchte,uns,Rand,uns,wegen,Feier,das,101,sind,braunen,saftigen,Bürgermeister,Studium,mal,die,in,wegen,Kleidung,mal,Methode,genau,beider,Zirkus,beider,Essen,nur,in,Eimer,keine,die,fuhren,die,wurden,Bürgermeister,war,sich,Ankunft,trotz,,,,,,,,,,,,,,,,,,,,,,,1,0,1,0,0,2,2,2,,,,,,,space,0.572797060013,,,,,,2017_Jan_27_1456,61.1385166603,spr_backupper,001,Fr15,
,Größe,überwiegend,können,mit,roter,gehören,wissen,die,Fleisch,260.000,königlichen,mit,gedachte,wir,schon,mit,hat,königliches,der,schnell,Berge,Zucker,Mond,kann,wir,wurden,260.000,dem,große,gehören,Hemd,"sporadisch,","unterging,",unter,kann,wissen,Menge,Dänemark,dann,Lust,Menge,kleinere,Liter,"sporadisch,",wurde,mit,auf,durch,Liter,die,Kleidung,Erlebnisse,der,Mann,wurde,stand,mit,Masse,habe,große,Kleidung,die,der,durch,des,gedachte,Auto,hält,mit,Zuckers,Fleischs,beschuldigten,las,wieder,Masse,Größe,dem,bei,wieder,kann,die,beteiligten,werden,beteiligter,kann,kleinere,Dänemark,rote,Lust,Leinwand,mit,er,aus,beschuldigten,aus,Berge,stand,des,,,,,,,,,,,,,,,,,,,,,,,1,0,1,0,0,3,3,3,,,,,,,space,0.403094053268,,,,,,2017_Jan_27_1456,61.1385166603,spr_backupper,001,Fr15,
,36,"nicht,",Neuwahlen,dauerhaftem,Farbe,immer,wir,Wohnung,wurden,Kilowattstunden,Bluts,"minimalem,",man,den,bei,solch,uns,Blut,Stadt,dank,schmutziger,sind,dauerte,ich,den,mit,Kilowattstunden,bekannten,Packung,immer,aus,obschon,war,"regelmäßigem,",man,wir,alten,einen,mit,auf,alten,"Delikte,",sprudelnden,obwohl,jetzt,"üblichem,",warmem,Büschel,sprudelndes,Wohnung,landen,bei,vierte,das,schon,ein,"reichlichem,",mit,ich,Packung,landen,Stimmung,Stadt,Büschel,schönen,man,dem,nicht,"sämtlichem,",sind,wurden,die,ich,viel,mit,36,schönen,ausreichendem,viel,man,richtige,Fahrer,die,Fahrer,ich,"Delikte,",gelegentlich,Farbe,auf,aus,solchen,"trug,","wertvollem,",die,"Japan,",schmutzige,ein,bekannten,,,,,,,,,,,,,,,,,,,,,,,1,0,1,0,0,4,4,4,,,,,,,space,0.385976076126,,,,,,2017_Jan_27_1456,61.1385166603,spr_backupper,001,Fr15,
,würden,was,vor,feinem,geschleudert.,350,von,des,serviert.,elektrische,hat,sauberen,den,roten,minimalem,unzureichenden,die,hat,liegen,täglichem,Wäsche.,auf,ungefähr,leider,roten,zusätzlichem,elektrischer,Skandal,salzige,350,feinem,sie,die,kaltem,eine,um,Krams,gelegentlichen,"reichem,",noch,Kram,derer,Trinkwassers.,sie,"nachgewiesen,",harten,weichem,frischen,Trinkwasser.,des,im,"frischem,",Bundespräsident.,Auto,immer,Glas,purem,einem,mehr,salziger,im,ziemlich,liegen,frisches,Wetters,der,Mann,am,künftigem,auf,serviert.,Störenfriede,mehr,Lärm,einem,hätten,Wetter,monatlichem,Lärm,eine,"Zeit,",wurden,Tiere,wurden,leider,deren,einen,geschleudert.,noch,seltenem,unzureichenden,war,klassischen,Störenfriede,die,Wäsche.,Glas,Skandals,,,,,,,,,,,,,,,,,,,,,,,1,0,1,0,0,5,5,5,,,,,,,space,0.503950119019,,,,,,2017_Jan_27_1456,61.1385166603,spr_backupper,001,Fr15,
,seiner,Tupperware,Dezember,Kunsteis,nan,ml,den,Herrn,nan,Energie.,den,Kraftstoff,Soldaten,Planet,täglichen,Helmen,Stimmung,den,die,grünen,nan,jeden,drei,nichts,Planeten,schwarzem,Energie.,wiedergewählt.,Wurst,ml,dichten,defekt,Flut,Abduschen,große,die,aus,Besucher.,goldenen,eine,aus,sie,nan,defekt,dass,Schaumstoff,Untergrund,Grases,nan,Herrn,Müll.,kaltem,nan,mehr,ruhig,köstlicher,Alkohol,Esslöffel,als,Wurst,Müll.,"vermiest,",die,Gras,die,Soldaten,mehr,Hauptbahnhof.,Einkommen,jeden,nan,jeden.,als,um,Esslöffel,seiner,die,Taschengeld,um,große,um,verschrottet.,artgerecht,verschrottet.,nichts,sie,Besucher.,nan,eine,dichten,Helmen,aus,Schmuck,jeden.,er,nan,köstlichen,wiedergewählt.,,,,,,,,,,,,,,,,,,,,,,,1,0,1,0,0,6,6,6,,,,,,,space,0.485408067703,,,,,,2017_Jan_27_1456,61.1385166603,spr_backupper,001,Fr15,
,Frau,ist.,stattfinden.,eingesprüht.,nan,warme,Problemen,Gantenbeins.,nan,nan,Boden,fahren.,des,ganz,Einsatz,zur,ziemlich,Boden,Slums.,Tee,nan,Fall,Tage.,mitbringen.,ganz,Kaffee,nan,nan,mit,warmer,Stoff,war.,zurückgekehrt.,gehärtet.,Menge,Probleme,dem,nan,Besatz,Sammlung,dem,überführt,nan,war.,das,gefertigt.,liegen.,zwängen.,nan,Gantenbein.,nan,Saft,nan,als,diskutiert.,Wein,verdünnt.,warmen,einmal,mit,nan,dass,Slums.,zwängen.,Wohnung.,des,als,nan,haftbar.,Fall,nan,nan,einmal,jede,warmem,Frau,Wohnung.,selber,jede,Menge,Nadelhölzer,nan,gehalten.,nan,mitbringen.,überführt,nan,nan,Sammlung,Gewebe,zur,Japan.,umgearbeitet.,nan,trug.,nan,Weins,nan,,,,,,,,,,,,,,,,,,,,,,,1,0,1,0,0,7,7,7,,,,,,,space,0.36021900177,,,,,,2017_Jan_27_1456,61.1385166603,spr_backupper,001,Fr15,
,gepasst,nan,nan,nan,nan,Milch.,im,nan,nan,nan,berührt.,nan,zweiten,deutlich.,sinken.,Schule.,vermiest.,berührt.,nan,wieder,nan,genug.,nan,nan,deutlich.,wiederbelebt.,nan,nan,an,Milch.,gefertigt.,nan,nan,nan,dunkler,im,Haus,nan,rekonstruiert.,dumme,Haus,wurden.,nan,nan,Medikament,nan,nan,nan,nan,nan,nan,besprochen.,nan,gerne.,nan,schon,nan,Honigs,Rilke,an,nan,es,nan,nan,nan,zweiten,gerne.,nan,nan,genug.,nan,nan,Rilke.,Menge,Honig,gepasst.,nan,kaufen.,Menge,dunkle,umzusetzen.,nan,nan,nan,nan,wurden.,nan,nan,dummer,wiederhergestellt.,Schule.,nan,nan,nan,nan,nan,schon,nan,,,,,,,,,,,,,,,,,,,,,,,1,0,1,0,0,8,8,8,,,,,,,space,0.352404117584,,,,,,2017_Jan_27_1456,61.1385166603,spr_backupper,001,Fr15,
,,,,,,,,,,,,,,,,,,,,,,,,,,,,,,,,,,,,,,,,,,,,,,,,,,,,,,,,,,,,,,,,,,,,,,,,,,,,,,,,,,,,,,,,,,,,,,,,,,,,,,,,,,,,,,,,,,,,,,,,,1,0,1,0,,,,,,,,,,,,,None,j,0.956470012665,,,2017_Jan_27_1456,61.1385166603,spr_backupper,001,Fr15,
,Die,Die,Unter,Die,Es,In,In,Die,Beträchtliche,Die,Nicht,Wir,Bei,Im,Ihr,Die,Dass,Nicht,Am,Ich,Dort,100,Der,Außer,Im,Die,Die,Er,Ich,In,Er,Die,Als,Die,Mit,In,Wir,Wir,Das,Sie,Wir,Es,Sie,Die,In,Alle,Jungtiere,Wir,Sie,Die,Viele,Sie,Walter,Wir,Fernab,Bei,Die,Er,In,Ich,Viele,Es,Am,Wir,Sie,Bei,Wir,Die,Manche,100,Beträchtliche,Außer,In,Man,Er,Die,Sie,Jugendliche,Man,Mit,Jetzt,Die,In,Die,Außer,Es,Wir,Es,Sie,Danach,Die,Die,Die,Außer,Die,Dort,Bei,Er,,,,,,,,,,,,,,,,,,,,,,,2,0,2,0,0,0,0,0,,,,,,space,space,0.000164985656738,,,,0.754942893982,,2017_Jan_27_1456,61.1385166603,spr_backupper,001,Fr15,
,Schuhe,Teilnehmerinnen,keinen,Eislaufbahnen,wurden,den,der,Gäste,Stücke,Schule,ein,konnten,der,Fernrohr,Blutdruck,Kinder,es,ein,äußeren,wurde,türmen,g,Flug,dem,Fernrohr,müden,Schule,wurde,nehme,den,hat,Uhr,die,Formen,dieser,der,haben,hatten,Tuch,hatte,haben,waren,verbrauchen,Uhr,einer,Betten,sollten,mussten,verbrauchen,Gäste,Tonnen,haben,Scheel,übergaben,des,unserer,Lösung,stellt,meinem,nehme,Tonnen,hat,äußersten,mussten,verlassen,der,übergaben,Linie,Kreditnehmer,g,Stücke,dem,meinem,machte,stellt,Schuhe,verlassen,können,machte,dieser,ist,Autos,diesem,Autos,das,waren,hatten,wurden,hatte,wurde,Kinder,"Uhr,",Stücke,den,Uhr,türmen,unserer,wurde,,,,,,,,,,,,,,,,,,,,,,,2,0,2,0,0,1,1,1,,,,,,,space,0.307309865952,,,,,,2017_Jan_27_1456,61.1385166603,spr_backupper,001,Fr15,
,in,wussten,Umständen,wurden,Eimer,Kakao,Tat,suchen,saftiges,verbraucht,Tropfen,dann,Feier,sahen,kann,fuhren,"regnete,",Tropfen,Rand,damals,sich,brauner,zum,Essen,sahen,Teilnehmer,verbraucht,trotz,eine,Kakao,ein,schlug,Sonne,wurden,Methode,Tat,jede,in,wurde,keine,jede,nur,60,schlug,Studie,wurden,immer,uns,60,suchen,gebrauchter,die,war,dem,Rummels,Ankunft,wird,die,Studium,eine,gebrauchte,uns,Rand,uns,wegen,Feier,das,101,sind,braunen,saftigen,Bürgermeister,Studium,mal,die,in,wegen,Kleidung,mal,Methode,genau,beider,Zirkus,beider,Essen,nur,in,Eimer,keine,die,fuhren,die,wurden,Bürgermeister,war,sich,Ankunft,trotz,,,,,,,,,,,,,,,,,,,,,,,2,0,2,0,0,2,2,2,,,,,,,space,0.805857896805,,,,,,2017_Jan_27_1456,61.1385166603,spr_backupper,001,Fr15,
,Größe,überwiegend,können,mit,roter,gehören,wissen,die,Fleisch,260.000,königlichen,mit,gedachte,wir,schon,mit,hat,königliches,der,schnell,Berge,Zucker,Mond,kann,wir,wurden,260.000,dem,große,gehören,Hemd,"sporadisch,","unterging,",unter,kann,wissen,Menge,Dänemark,dann,Lust,Menge,kleinere,Liter,"sporadisch,",wurde,mit,auf,durch,Liter,die,Kleidung,Erlebnisse,der,Mann,wurde,stand,mit,Masse,habe,große,Kleidung,die,der,durch,des,gedachte,Auto,hält,mit,Zuckers,Fleischs,beschuldigten,las,wieder,Masse,Größe,dem,bei,wieder,kann,die,beteiligten,werden,beteiligter,kann,kleinere,Dänemark,rote,Lust,Leinwand,mit,er,aus,beschuldigten,aus,Berge,stand,des,,,,,,,,,,,,,,,,,,,,,,,2,0,2,0,0,3,3,3,,,,,,,space,0.804229021072,,,,,,2017_Jan_27_1456,61.1385166603,spr_backupper,001,Fr15,
,36,"nicht,",Neuwahlen,dauerhaftem,Farbe,immer,wir,Wohnung,wurden,Kilowattstunden,Bluts,"minimalem,",man,den,bei,solch,uns,Blut,Stadt,dank,schmutziger,sind,dauerte,ich,den,mit,Kilowattstunden,bekannten,Packung,immer,aus,obschon,war,"regelmäßigem,",man,wir,alten,einen,mit,auf,alten,"Delikte,",sprudelnden,obwohl,jetzt,"üblichem,",warmem,Büschel,sprudelndes,Wohnung,landen,bei,vierte,das,schon,ein,"reichlichem,",mit,ich,Packung,landen,Stimmung,Stadt,Büschel,schönen,man,dem,nicht,"sämtlichem,",sind,wurden,die,ich,viel,mit,36,schönen,ausreichendem,viel,man,richtige,Fahrer,die,Fahrer,ich,"Delikte,",gelegentlich,Farbe,auf,aus,solchen,"trug,","wertvollem,",die,"Japan,",schmutzige,ein,bekannten,,,,,,,,,,,,,,,,,,,,,,,2,0,2,0,0,4,4,4,,,,,,,space,0.402973175049,,,,,,2017_Jan_27_1456,61.1385166603,spr_backupper,001,Fr15,
,würden,was,vor,feinem,geschleudert.,350,von,des,serviert.,elektrische,hat,sauberen,den,roten,minimalem,unzureichenden,die,hat,liegen,täglichem,Wäsche.,auf,ungefähr,leider,roten,zusätzlichem,elektrischer,Skandal,salzige,350,feinem,sie,die,kaltem,eine,um,Krams,gelegentlichen,"reichem,",noch,Kram,derer,Trinkwassers.,sie,"nachgewiesen,",harten,weichem,frischen,Trinkwasser.,des,im,"frischem,",Bundespräsident.,Auto,immer,Glas,purem,einem,mehr,salziger,im,ziemlich,liegen,frisches,Wetters,der,Mann,am,künftigem,auf,serviert.,Störenfriede,mehr,Lärm,einem,hätten,Wetter,monatlichem,Lärm,eine,"Zeit,",wurden,Tiere,wurden,leider,deren,einen,geschleudert.,noch,seltenem,unzureichenden,war,klassischen,Störenfriede,die,Wäsche.,Glas,Skandals,,,,,,,,,,,,,,,,,,,,,,,2,0,2,0,0,5,5,5,,,,,,,space,0.520372867584,,,,,,2017_Jan_27_1456,61.1385166603,spr_backupper,001,Fr15,
,,,,,,,,,,,,,,,,,,,,,,,,,,,,,,,,,,,,,,,,,,,,,,,,,,,,,,,,,,,,,,,,,,,,,,,,,,,,,,,,,,,,,,,,,,,,,,,,,,,,,,,,,,,,,,,,,,,,,,,,,2,0,2,0,,,,,,,,,,,,,None,j,2.32253909111,,,2017_Jan_27_1456,61.1385166603,spr_backupper,001,Fr15,
,Die,Die,Unter,Die,Es,In,In,Die,Beträchtliche,Die,Nicht,Wir,Bei,Im,Ihr,Die,Dass,Nicht,Am,Ich,Dort,100,Der,Außer,Im,Die,Die,Er,Ich,In,Er,Die,Als,Die,Mit,In,Wir,Wir,Das,Sie,Wir,Es,Sie,Die,In,Alle,Jungtiere,Wir,Sie,Die,Viele,Sie,Walter,Wir,Fernab,Bei,Die,Er,In,Ich,Viele,Es,Am,Wir,Sie,Bei,Wir,Die,Manche,100,Beträchtliche,Außer,In,Man,Er,Die,Sie,Jugendliche,Man,Mit,Jetzt,Die,In,Die,Außer,Es,Wir,Es,Sie,Danach,Die,Die,Die,Außer,Die,Dort,Bei,Er,,,,,,,,,,,,,,,,,,,,,,,3,0,3,0,0,0,0,0,,,,,,space,space,0.634238958359,,,,1.0069360733,,2017_Jan_27_1456,61.1385166603,spr_backupper,001,Fr15,
,Schuhe,Teilnehmerinnen,keinen,Eislaufbahnen,wurden,den,der,Gäste,Stücke,Schule,ein,konnten,der,Fernrohr,Blutdruck,Kinder,es,ein,äußeren,wurde,türmen,g,Flug,dem,Fernrohr,müden,Schule,wurde,nehme,den,hat,Uhr,die,Formen,dieser,der,haben,hatten,Tuch,hatte,haben,waren,verbrauchen,Uhr,einer,Betten,sollten,mussten,verbrauchen,Gäste,Tonnen,haben,Scheel,übergaben,des,unserer,Lösung,stellt,meinem,nehme,Tonnen,hat,äußersten,mussten,verlassen,der,übergaben,Linie,Kreditnehmer,g,Stücke,dem,meinem,machte,stellt,Schuhe,verlassen,können,machte,dieser,ist,Autos,diesem,Autos,das,waren,hatten,wurden,hatte,wurde,Kinder,"Uhr,",Stücke,den,Uhr,türmen,unserer,wurde,,,,,,,,,,,,,,,,,,,,,,,3,0,3,0,0,1,1,1,,,,,,,space,0.503405094147,,,,,,2017_Jan_27_1456,61.1385166603,spr_backupper,001,Fr15,
,in,wussten,Umständen,wurden,Eimer,Kakao,Tat,suchen,saftiges,verbraucht,Tropfen,dann,Feier,sahen,kann,fuhren,"regnete,",Tropfen,Rand,damals,sich,brauner,zum,Essen,sahen,Teilnehmer,verbraucht,trotz,eine,Kakao,ein,schlug,Sonne,wurden,Methode,Tat,jede,in,wurde,keine,jede,nur,60,schlug,Studie,wurden,immer,uns,60,suchen,gebrauchter,die,war,dem,Rummels,Ankunft,wird,die,Studium,eine,gebrauchte,uns,Rand,uns,wegen,Feier,das,101,sind,braunen,saftigen,Bürgermeister,Studium,mal,die,in,wegen,Kleidung,mal,Methode,genau,beider,Zirkus,beider,Essen,nur,in,Eimer,keine,die,fuhren,die,wurden,Bürgermeister,war,sich,Ankunft,trotz,,,,,,,,,,,,,,,,,,,,,,,3,0,3,0,0,2,2,2,,,,,,,space,0.518087863922,,,,,,2017_Jan_27_1456,61.1385166603,spr_backupper,001,Fr15,
,Größe,überwiegend,können,mit,roter,gehören,wissen,die,Fleisch,260.000,königlichen,mit,gedachte,wir,schon,mit,hat,königliches,der,schnell,Berge,Zucker,Mond,kann,wir,wurden,260.000,dem,große,gehören,Hemd,"sporadisch,","unterging,",unter,kann,wissen,Menge,Dänemark,dann,Lust,Menge,kleinere,Liter,"sporadisch,",wurde,mit,auf,durch,Liter,die,Kleidung,Erlebnisse,der,Mann,wurde,stand,mit,Masse,habe,große,Kleidung,die,der,durch,des,gedachte,Auto,hält,mit,Zuckers,Fleischs,beschuldigten,las,wieder,Masse,Größe,dem,bei,wieder,kann,die,beteiligten,werden,beteiligter,kann,kleinere,Dänemark,rote,Lust,Leinwand,mit,er,aus,beschuldigten,aus,Berge,stand,des,,,,,,,,,,,,,,,,,,,,,,,3,0,3,0,0,3,3,3,,,,,,,space,0.453233003616,,,,,,2017_Jan_27_1456,61.1385166603,spr_backupper,001,Fr15,
,36,"nicht,",Neuwahlen,dauerhaftem,Farbe,immer,wir,Wohnung,wurden,Kilowattstunden,Bluts,"minimalem,",man,den,bei,solch,uns,Blut,Stadt,dank,schmutziger,sind,dauerte,ich,den,mit,Kilowattstunden,bekannten,Packung,immer,aus,obschon,war,"regelmäßigem,",man,wir,alten,einen,mit,auf,alten,"Delikte,",sprudelnden,obwohl,jetzt,"üblichem,",warmem,Büschel,sprudelndes,Wohnung,landen,bei,vierte,das,schon,ein,"reichlichem,",mit,ich,Packung,landen,Stimmung,Stadt,Büschel,schönen,man,dem,nicht,"sämtlichem,",sind,wurden,die,ich,viel,mit,36,schönen,ausreichendem,viel,man,richtige,Fahrer,die,Fahrer,ich,"Delikte,",gelegentlich,Farbe,auf,aus,solchen,"trug,","wertvollem,",die,"Japan,",schmutzige,ein,bekannten,,,,,,,,,,,,,,,,,,,,,,,3,0,3,0,0,4,4,4,,,,,,,space,0.548173189163,,,,,,2017_Jan_27_1456,61.1385166603,spr_backupper,001,Fr15,
,würden,was,vor,feinem,geschleudert.,350,von,des,serviert.,elektrische,hat,sauberen,den,roten,minimalem,unzureichenden,die,hat,liegen,täglichem,Wäsche.,auf,ungefähr,leider,roten,zusätzlichem,elektrischer,Skandal,salzige,350,feinem,sie,die,kaltem,eine,um,Krams,gelegentlichen,"reichem,",noch,Kram,derer,Trinkwassers.,sie,"nachgewiesen,",harten,weichem,frischen,Trinkwasser.,des,im,"frischem,",Bundespräsident.,Auto,immer,Glas,purem,einem,mehr,salziger,im,ziemlich,liegen,frisches,Wetters,der,Mann,am,künftigem,auf,serviert.,Störenfriede,mehr,Lärm,einem,hätten,Wetter,monatlichem,Lärm,eine,"Zeit,",wurden,Tiere,wurden,leider,deren,einen,geschleudert.,noch,seltenem,unzureichenden,war,klassischen,Störenfriede,die,Wäsche.,Glas,Skandals,,,,,,,,,,,,,,,,,,,,,,,3,0,3,0,0,5,5,5,,,,,,,space,0.485062122345,,,,,,2017_Jan_27_1456,61.1385166603,spr_backupper,001,Fr15,
,seiner,Tupperware,Dezember,Kunsteis,nan,ml,den,Herrn,nan,Energie.,den,Kraftstoff,Soldaten,Planet,täglichen,Helmen,Stimmung,den,die,grünen,nan,jeden,drei,nichts,Planeten,schwarzem,Energie.,wiedergewählt.,Wurst,ml,dichten,defekt,Flut,Abduschen,große,die,aus,Besucher.,goldenen,eine,aus,sie,nan,defekt,dass,Schaumstoff,Untergrund,Grases,nan,Herrn,Müll.,kaltem,nan,mehr,ruhig,köstlicher,Alkohol,Esslöffel,als,Wurst,Müll.,"vermiest,",die,Gras,die,Soldaten,mehr,Hauptbahnhof.,Einkommen,jeden,nan,jeden.,als,um,Esslöffel,seiner,die,Taschengeld,um,große,um,verschrottet.,artgerecht,verschrottet.,nichts,sie,Besucher.,nan,eine,dichten,Helmen,aus,Schmuck,jeden.,er,nan,köstlichen,wiedergewählt.,,,,,,,,,,,,,,,,,,,,,,,3,0,3,0,0,6,6,6,,,,,,,space,0.654685974121,,,,,,2017_Jan_27_1456,61.1385166603,spr_backupper,001,Fr15,
,Frau,ist.,stattfinden.,eingesprüht.,nan,warme,Problemen,Gantenbeins.,nan,nan,Boden,fahren.,des,ganz,Einsatz,zur,ziemlich,Boden,Slums.,Tee,nan,Fall,Tage.,mitbringen.,ganz,Kaffee,nan,nan,mit,warmer,Stoff,war.,zurückgekehrt.,gehärtet.,Menge,Probleme,dem,nan,Besatz,Sammlung,dem,überführt,nan,war.,das,gefertigt.,liegen.,zwängen.,nan,Gantenbein.,nan,Saft,nan,als,diskutiert.,Wein,verdünnt.,warmen,einmal,mit,nan,dass,Slums.,zwängen.,Wohnung.,des,als,nan,haftbar.,Fall,nan,nan,einmal,jede,warmem,Frau,Wohnung.,selber,jede,Menge,Nadelhölzer,nan,gehalten.,nan,mitbringen.,überführt,nan,nan,Sammlung,Gewebe,zur,Japan.,umgearbeitet.,nan,trug.,nan,Weins,nan,,,,,,,,,,,,,,,,,,,,,,,3,0,3,0,0,7,7,7,,,,,,,space,0.48726606369,,,,,,2017_Jan_27_1456,61.1385166603,spr_backupper,001,Fr15,
,,,,,,,,,,,,,,,,,,,,,,,,,,,,,,,,,,,,,,,,,,,,,,,,,,,,,,,,,,,,,,,,,,,,,,,,,,,,,,,,,,,,,,,,,,,,,,,,,,,,,,,,,,,,,,,,,,,,,,,,,3,0,3,0,,,,,,,,,,,,,None,n,2.04677009583,,,2017_Jan_27_1456,61.1385166603,spr_backupper,001,Fr15,
,Die,Die,Unter,Die,Es,In,In,Die,Beträchtliche,Die,Nicht,Wir,Bei,Im,Ihr,Die,Dass,Nicht,Am,Ich,Dort,100,Der,Außer,Im,Die,Die,Er,Ich,In,Er,Die,Als,Die,Mit,In,Wir,Wir,Das,Sie,Wir,Es,Sie,Die,In,Alle,Jungtiere,Wir,Sie,Die,Viele,Sie,Walter,Wir,Fernab,Bei,Die,Er,In,Ich,Viele,Es,Am,Wir,Sie,Bei,Wir,Die,Manche,100,Beträchtliche,Außer,In,Man,Er,Die,Sie,Jugendliche,Man,Mit,Jetzt,Die,In,Die,Außer,Es,Wir,Es,Sie,Danach,Die,Die,Die,Außer,Die,Dort,Bei,Er,,,,,,,,,,,,,,,,,,,,,,,4,0,4,0,0,0,0,0,,,,,,space,space,0.0689239501953,,,,0.636920928955,,2017_Jan_27_1456,61.1385166603,spr_backupper,001,Fr15,
,Schuhe,Teilnehmerinnen,keinen,Eislaufbahnen,wurden,den,der,Gäste,Stücke,Schule,ein,konnten,der,Fernrohr,Blutdruck,Kinder,es,ein,äußeren,wurde,türmen,g,Flug,dem,Fernrohr,müden,Schule,wurde,nehme,den,hat,Uhr,die,Formen,dieser,der,haben,hatten,Tuch,hatte,haben,waren,verbrauchen,Uhr,einer,Betten,sollten,mussten,verbrauchen,Gäste,Tonnen,haben,Scheel,übergaben,des,unserer,Lösung,stellt,meinem,nehme,Tonnen,hat,äußersten,mussten,verlassen,der,übergaben,Linie,Kreditnehmer,g,Stücke,dem,meinem,machte,stellt,Schuhe,verlassen,können,machte,dieser,ist,Autos,diesem,Autos,das,waren,hatten,wurden,hatte,wurde,Kinder,"Uhr,",Stücke,den,Uhr,türmen,unserer,wurde,,,,,,,,,,,,,,,,,,,,,,,4,0,4,0,0,1,1,1,,,,,,,space,1.03907203674,,,,,,2017_Jan_27_1456,61.1385166603,spr_backupper,001,Fr15,
,in,wussten,Umständen,wurden,Eimer,Kakao,Tat,suchen,saftiges,verbraucht,Tropfen,dann,Feier,sahen,kann,fuhren,"regnete,",Tropfen,Rand,damals,sich,brauner,zum,Essen,sahen,Teilnehmer,verbraucht,trotz,eine,Kakao,ein,schlug,Sonne,wurden,Methode,Tat,jede,in,wurde,keine,jede,nur,60,schlug,Studie,wurden,immer,uns,60,suchen,gebrauchter,die,war,dem,Rummels,Ankunft,wird,die,Studium,eine,gebrauchte,uns,Rand,uns,wegen,Feier,das,101,sind,braunen,saftigen,Bürgermeister,Studium,mal,die,in,wegen,Kleidung,mal,Methode,genau,beider,Zirkus,beider,Essen,nur,in,Eimer,keine,die,fuhren,die,wurden,Bürgermeister,war,sich,Ankunft,trotz,,,,,,,,,,,,,,,,,,,,,,,4,0,4,0,0,2,2,2,,,,,,,space,0.671720027924,,,,,,2017_Jan_27_1456,61.1385166603,spr_backupper,001,Fr15,
,Größe,überwiegend,können,mit,roter,gehören,wissen,die,Fleisch,260.000,königlichen,mit,gedachte,wir,schon,mit,hat,königliches,der,schnell,Berge,Zucker,Mond,kann,wir,wurden,260.000,dem,große,gehören,Hemd,"sporadisch,","unterging,",unter,kann,wissen,Menge,Dänemark,dann,Lust,Menge,kleinere,Liter,"sporadisch,",wurde,mit,auf,durch,Liter,die,Kleidung,Erlebnisse,der,Mann,wurde,stand,mit,Masse,habe,große,Kleidung,die,der,durch,des,gedachte,Auto,hält,mit,Zuckers,Fleischs,beschuldigten,las,wieder,Masse,Größe,dem,bei,wieder,kann,die,beteiligten,werden,beteiligter,kann,kleinere,Dänemark,rote,Lust,Leinwand,mit,er,aus,beschuldigten,aus,Berge,stand,des,,,,,,,,,,,,,,,,,,,,,,,4,0,4,0,0,3,3,3,,,,,,,space,0.877623081207,,,,,,2017_Jan_27_1456,61.1385166603,spr_backupper,001,Fr15,
,36,"nicht,",Neuwahlen,dauerhaftem,Farbe,immer,wir,Wohnung,wurden,Kilowattstunden,Bluts,"minimalem,",man,den,bei,solch,uns,Blut,Stadt,dank,schmutziger,sind,dauerte,ich,den,mit,Kilowattstunden,bekannten,Packung,immer,aus,obschon,war,"regelmäßigem,",man,wir,alten,einen,mit,auf,alten,"Delikte,",sprudelnden,obwohl,jetzt,"üblichem,",warmem,Büschel,sprudelndes,Wohnung,landen,bei,vierte,das,schon,ein,"reichlichem,",mit,ich,Packung,landen,Stimmung,Stadt,Büschel,schönen,man,dem,nicht,"sämtlichem,",sind,wurden,die,ich,viel,mit,36,schönen,ausreichendem,viel,man,richtige,Fahrer,die,Fahrer,ich,"Delikte,",gelegentlich,Farbe,auf,aus,solchen,"trug,","wertvollem,",die,"Japan,",schmutzige,ein,bekannten,,,,,,,,,,,,,,,,,,,,,,,4,0,4,0,0,4,4,4,,,,,,,space,0.57183599472,,,,,,2017_Jan_27_1456,61.1385166603,spr_backupper,001,Fr15,
,würden,was,vor,feinem,geschleudert.,350,von,des,serviert.,elektrische,hat,sauberen,den,roten,minimalem,unzureichenden,die,hat,liegen,täglichem,Wäsche.,auf,ungefähr,leider,roten,zusätzlichem,elektrischer,Skandal,salzige,350,feinem,sie,die,kaltem,eine,um,Krams,gelegentlichen,"reichem,",noch,Kram,derer,Trinkwassers.,sie,"nachgewiesen,",harten,weichem,frischen,Trinkwasser.,des,im,"frischem,",Bundespräsident.,Auto,immer,Glas,purem,einem,mehr,salziger,im,ziemlich,liegen,frisches,Wetters,der,Mann,am,künftigem,auf,serviert.,Störenfriede,mehr,Lärm,einem,hätten,Wetter,monatlichem,Lärm,eine,"Zeit,",wurden,Tiere,wurden,leider,deren,einen,geschleudert.,noch,seltenem,unzureichenden,war,klassischen,Störenfriede,die,Wäsche.,Glas,Skandals,,,,,,,,,,,,,,,,,,,,,,,4,0,4,0,0,5,5,5,,,,,,,space,0.376972913742,,,,,,2017_Jan_27_1456,61.1385166603,spr_backupper,001,Fr15,
,seiner,Tupperware,Dezember,Kunsteis,nan,ml,den,Herrn,nan,Energie.,den,Kraftstoff,Soldaten,Planet,täglichen,Helmen,Stimmung,den,die,grünen,nan,jeden,drei,nichts,Planeten,schwarzem,Energie.,wiedergewählt.,Wurst,ml,dichten,defekt,Flut,Abduschen,große,die,aus,Besucher.,goldenen,eine,aus,sie,nan,defekt,dass,Schaumstoff,Untergrund,Grases,nan,Herrn,Müll.,kaltem,nan,mehr,ruhig,köstlicher,Alkohol,Esslöffel,als,Wurst,Müll.,"vermiest,",die,Gras,die,Soldaten,mehr,Hauptbahnhof.,Einkommen,jeden,nan,jeden.,als,um,Esslöffel,seiner,die,Taschengeld,um,große,um,verschrottet.,artgerecht,verschrottet.,nichts,sie,Besucher.,nan,eine,dichten,Helmen,aus,Schmuck,jeden.,er,nan,köstlichen,wiedergewählt.,,,,,,,,,,,,,,,,,,,,,,,4,0,4,0,0,6,6,6,,,,,,,space,0.402015924454,,,,,,2017_Jan_27_1456,61.1385166603,spr_backupper,001,Fr15,
,Frau,ist.,stattfinden.,eingesprüht.,nan,warme,Problemen,Gantenbeins.,nan,nan,Boden,fahren.,des,ganz,Einsatz,zur,ziemlich,Boden,Slums.,Tee,nan,Fall,Tage.,mitbringen.,ganz,Kaffee,nan,nan,mit,warmer,Stoff,war.,zurückgekehrt.,gehärtet.,Menge,Probleme,dem,nan,Besatz,Sammlung,dem,überführt,nan,war.,das,gefertigt.,liegen.,zwängen.,nan,Gantenbein.,nan,Saft,nan,als,diskutiert.,Wein,verdünnt.,warmen,einmal,mit,nan,dass,Slums.,zwängen.,Wohnung.,des,als,nan,haftbar.,Fall,nan,nan,einmal,jede,warmem,Frau,Wohnung.,selber,jede,Menge,Nadelhölzer,nan,gehalten.,nan,mitbringen.,überführt,nan,nan,Sammlung,Gewebe,zur,Japan.,umgearbeitet.,nan,trug.,nan,Weins,nan,,,,,,,,,,,,,,,,,,,,,,,4,0,4,0,0,7,7,7,,,,,,,space,0.409697055817,,,,,,2017_Jan_27_1456,61.1385166603,spr_backupper,001,Fr15,
,gepasst,nan,nan,nan,nan,Milch.,im,nan,nan,nan,berührt.,nan,zweiten,deutlich.,sinken.,Schule.,vermiest.,berührt.,nan,wieder,nan,genug.,nan,nan,deutlich.,wiederbelebt.,nan,nan,an,Milch.,gefertigt.,nan,nan,nan,dunkler,im,Haus,nan,rekonstruiert.,dumme,Haus,wurden.,nan,nan,Medikament,nan,nan,nan,nan,nan,nan,besprochen.,nan,gerne.,nan,schon,nan,Honigs,Rilke,an,nan,es,nan,nan,nan,zweiten,gerne.,nan,nan,genug.,nan,nan,Rilke.,Menge,Honig,gepasst.,nan,kaufen.,Menge,dunkle,umzusetzen.,nan,nan,nan,nan,wurden.,nan,nan,dummer,wiederhergestellt.,Schule.,nan,nan,nan,nan,nan,schon,nan,,,,,,,,,,,,,,,,,,,,,,,4,0,4,0,0,8,8,8,,,,,,,space,0.382836103439,,,,,,2017_Jan_27_1456,61.1385166603,spr_backupper,001,Fr15,
,,,,,,,,,,,,,,,,,,,,,,,,,,,,,,,,,,,,,,,,,,,,,,,,,,,,,,,,,,,,,,,,,,,,,,,,,,,,,,,,,,,,,,,,,,,,,,,,,,,,,,,,,,,,,,,,,,,,,,,,,4,0,4,0,,,,,,,,,,,,,None,n,2.11631083488,,,2017_Jan_27_1456,61.1385166603,spr_backupper,001,Fr15,
,Die,Die,Unter,Die,Es,In,In,Die,Beträchtliche,Die,Nicht,Wir,Bei,Im,Ihr,Die,Dass,Nicht,Am,Ich,Dort,100,Der,Außer,Im,Die,Die,Er,Ich,In,Er,Die,Als,Die,Mit,In,Wir,Wir,Das,Sie,Wir,Es,Sie,Die,In,Alle,Jungtiere,Wir,Sie,Die,Viele,Sie,Walter,Wir,Fernab,Bei,Die,Er,In,Ich,Viele,Es,Am,Wir,Sie,Bei,Wir,Die,Manche,100,Beträchtliche,Außer,In,Man,Er,Die,Sie,Jugendliche,Man,Mit,Jetzt,Die,In,Die,Außer,Es,Wir,Es,Sie,Danach,Die,Die,Die,Außer,Die,Dort,Bei,Er,,,,,,,,,,,,,,,,,,,,,,,5,0,5,0,0,0,0,0,,,,,,None,space,0.924740076065,,,,,,2017_Jan_27_1456,61.1385166603,spr_backupper,001,Fr15,
,Schuhe,Teilnehmerinnen,keinen,Eislaufbahnen,wurden,den,der,Gäste,Stücke,Schule,ein,konnten,der,Fernrohr,Blutdruck,Kinder,es,ein,äußeren,wurde,türmen,g,Flug,dem,Fernrohr,müden,Schule,wurde,nehme,den,hat,Uhr,die,Formen,dieser,der,haben,hatten,Tuch,hatte,haben,waren,verbrauchen,Uhr,einer,Betten,sollten,mussten,verbrauchen,Gäste,Tonnen,haben,Scheel,übergaben,des,unserer,Lösung,stellt,meinem,nehme,Tonnen,hat,äußersten,mussten,verlassen,der,übergaben,Linie,Kreditnehmer,g,Stücke,dem,meinem,machte,stellt,Schuhe,verlassen,können,machte,dieser,ist,Autos,diesem,Autos,das,waren,hatten,wurden,hatte,wurde,Kinder,"Uhr,",Stücke,den,Uhr,türmen,unserer,wurde,,,,,,,,,,,,,,,,,,,,,,,5,0,5,0,0,1,1,1,,,,,,,space,0.517169952393,,,,,,2017_Jan_27_1456,61.1385166603,spr_backupper,001,Fr15,
,in,wussten,Umständen,wurden,Eimer,Kakao,Tat,suchen,saftiges,verbraucht,Tropfen,dann,Feier,sahen,kann,fuhren,"regnete,",Tropfen,Rand,damals,sich,brauner,zum,Essen,sahen,Teilnehmer,verbraucht,trotz,eine,Kakao,ein,schlug,Sonne,wurden,Methode,Tat,jede,in,wurde,keine,jede,nur,60,schlug,Studie,wurden,immer,uns,60,suchen,gebrauchter,die,war,dem,Rummels,Ankunft,wird,die,Studium,eine,gebrauchte,uns,Rand,uns,wegen,Feier,das,101,sind,braunen,saftigen,Bürgermeister,Studium,mal,die,in,wegen,Kleidung,mal,Methode,genau,beider,Zirkus,beider,Essen,nur,in,Eimer,keine,die,fuhren,die,wurden,Bürgermeister,war,sich,Ankunft,trotz,,,,,,,,,,,,,,,,,,,,,,,5,0,5,0,0,2,2,2,,,,,,,space,0.737275123596,,,,,,2017_Jan_27_1456,61.1385166603,spr_backupper,001,Fr15,
,Größe,überwiegend,können,mit,roter,gehören,wissen,die,Fleisch,260.000,königlichen,mit,gedachte,wir,schon,mit,hat,königliches,der,schnell,Berge,Zucker,Mond,kann,wir,wurden,260.000,dem,große,gehören,Hemd,"sporadisch,","unterging,",unter,kann,wissen,Menge,Dänemark,dann,Lust,Menge,kleinere,Liter,"sporadisch,",wurde,mit,auf,durch,Liter,die,Kleidung,Erlebnisse,der,Mann,wurde,stand,mit,Masse,habe,große,Kleidung,die,der,durch,des,gedachte,Auto,hält,mit,Zuckers,Fleischs,beschuldigten,las,wieder,Masse,Größe,dem,bei,wieder,kann,die,beteiligten,werden,beteiligter,kann,kleinere,Dänemark,rote,Lust,Leinwand,mit,er,aus,beschuldigten,aus,Berge,stand,des,,,,,,,,,,,,,,,,,,,,,,,5,0,5,0,0,3,3,3,,,,,,,space,0.536789894104,,,,,,2017_Jan_27_1456,61.1385166603,spr_backupper,001,Fr15,
,36,"nicht,",Neuwahlen,dauerhaftem,Farbe,immer,wir,Wohnung,wurden,Kilowattstunden,Bluts,"minimalem,",man,den,bei,solch,uns,Blut,Stadt,dank,schmutziger,sind,dauerte,ich,den,mit,Kilowattstunden,bekannten,Packung,immer,aus,obschon,war,"regelmäßigem,",man,wir,alten,einen,mit,auf,alten,"Delikte,",sprudelnden,obwohl,jetzt,"üblichem,",warmem,Büschel,sprudelndes,Wohnung,landen,bei,vierte,das,schon,ein,"reichlichem,",mit,ich,Packung,landen,Stimmung,Stadt,Büschel,schönen,man,dem,nicht,"sämtlichem,",sind,wurden,die,ich,viel,mit,36,schönen,ausreichendem,viel,man,richtige,Fahrer,die,Fahrer,ich,"Delikte,",gelegentlich,Farbe,auf,aus,solchen,"trug,","wertvollem,",die,"Japan,",schmutzige,ein,bekannten,,,,,,,,,,,,,,,,,,,,,,,5,0,5,0,0,4,4,4,,,,,,,space,0.420755147934,,,,,,2017_Jan_27_1456,61.1385166603,spr_backupper,001,Fr15,
,würden,was,vor,feinem,geschleudert.,350,von,des,serviert.,elektrische,hat,sauberen,den,roten,minimalem,unzureichenden,die,hat,liegen,täglichem,Wäsche.,auf,ungefähr,leider,roten,zusätzlichem,elektrischer,Skandal,salzige,350,feinem,sie,die,kaltem,eine,um,Krams,gelegentlichen,"reichem,",noch,Kram,derer,Trinkwassers.,sie,"nachgewiesen,",harten,weichem,frischen,Trinkwasser.,des,im,"frischem,",Bundespräsident.,Auto,immer,Glas,purem,einem,mehr,salziger,im,ziemlich,liegen,frisches,Wetters,der,Mann,am,künftigem,auf,serviert.,Störenfriede,mehr,Lärm,einem,hätten,Wetter,monatlichem,Lärm,eine,"Zeit,",wurden,Tiere,wurden,leider,deren,einen,geschleudert.,noch,seltenem,unzureichenden,war,klassischen,Störenfriede,die,Wäsche.,Glas,Skandals,,,,,,,,,,,,,,,,,,,,,,,5,0,5,0,0,5,5,5,,,,,,,space,0.449191093445,,,,,,2017_Jan_27_1456,61.1385166603,spr_backupper,001,Fr15,
,seiner,Tupperware,Dezember,Kunsteis,nan,ml,den,Herrn,nan,Energie.,den,Kraftstoff,Soldaten,Planet,täglichen,Helmen,Stimmung,den,die,grünen,nan,jeden,drei,nichts,Planeten,schwarzem,Energie.,wiedergewählt.,Wurst,ml,dichten,defekt,Flut,Abduschen,große,die,aus,Besucher.,goldenen,eine,aus,sie,nan,defekt,dass,Schaumstoff,Untergrund,Grases,nan,Herrn,Müll.,kaltem,nan,mehr,ruhig,köstlicher,Alkohol,Esslöffel,als,Wurst,Müll.,"vermiest,",die,Gras,die,Soldaten,mehr,Hauptbahnhof.,Einkommen,jeden,nan,jeden.,als,um,Esslöffel,seiner,die,Taschengeld,um,große,um,verschrottet.,artgerecht,verschrottet.,nichts,sie,Besucher.,nan,eine,dichten,Helmen,aus,Schmuck,jeden.,er,nan,köstlichen,wiedergewählt.,,,,,,,,,,,,,,,,,,,,,,,5,0,5,0,0,6,6,6,,,,,,,space,0.358052968979,,,,,,2017_Jan_27_1456,61.1385166603,spr_backupper,001,Fr15,
,,,,,,,,,,,,,,,,,,,,,,,,,,,,,,,,,,,,,,,,,,,,,,,,,,,,,,,,,,,,,,,,,,,,,,,,,,,,,,,,,,,,,,,,,,,,,,,,,,,,,,,,,,,,,,,,,,,,,,,,,5,0,5,0,,,,,,,,,,,,,None,j,4.03208899498,,,2017_Jan_27_1456,61.1385166603,spr_backupper,001,Fr15,
,Die,Die,Unter,Die,Es,In,In,Die,Beträchtliche,Die,Nicht,Wir,Bei,Im,Ihr,Die,Dass,Nicht,Am,Ich,Dort,100,Der,Außer,Im,Die,Die,Er,Ich,In,Er,Die,Als,Die,Mit,In,Wir,Wir,Das,Sie,Wir,Es,Sie,Die,In,Alle,Jungtiere,Wir,Sie,Die,Viele,Sie,Walter,Wir,Fernab,Bei,Die,Er,In,Ich,Viele,Es,Am,Wir,Sie,Bei,Wir,Die,Manche,100,Beträchtliche,Außer,In,Man,Er,Die,Sie,Jugendliche,Man,Mit,Jetzt,Die,In,Die,Außer,Es,Wir,Es,Sie,Danach,Die,Die,Die,Außer,Die,Dort,Bei,Er,,,,,,,,,,,,,,,,,,,,,,,6,0,6,0,0,0,0,0,,,,,,None,space,0.948458909988,,,,,,2017_Jan_27_1456,61.1385166603,spr_backupper,001,Fr15,
,Schuhe,Teilnehmerinnen,keinen,Eislaufbahnen,wurden,den,der,Gäste,Stücke,Schule,ein,konnten,der,Fernrohr,Blutdruck,Kinder,es,ein,äußeren,wurde,türmen,g,Flug,dem,Fernrohr,müden,Schule,wurde,nehme,den,hat,Uhr,die,Formen,dieser,der,haben,hatten,Tuch,hatte,haben,waren,verbrauchen,Uhr,einer,Betten,sollten,mussten,verbrauchen,Gäste,Tonnen,haben,Scheel,übergaben,des,unserer,Lösung,stellt,meinem,nehme,Tonnen,hat,äußersten,mussten,verlassen,der,übergaben,Linie,Kreditnehmer,g,Stücke,dem,meinem,machte,stellt,Schuhe,verlassen,können,machte,dieser,ist,Autos,diesem,Autos,das,waren,hatten,wurden,hatte,wurde,Kinder,"Uhr,",Stücke,den,Uhr,türmen,unserer,wurde,,,,,,,,,,,,,,,,,,,,,,,6,0,6,0,0,1,1,1,,,,,,,space,0.531935930252,,,,,,2017_Jan_27_1456,61.1385166603,spr_backupper,001,Fr15,
,in,wussten,Umständen,wurden,Eimer,Kakao,Tat,suchen,saftiges,verbraucht,Tropfen,dann,Feier,sahen,kann,fuhren,"regnete,",Tropfen,Rand,damals,sich,brauner,zum,Essen,sahen,Teilnehmer,verbraucht,trotz,eine,Kakao,ein,schlug,Sonne,wurden,Methode,Tat,jede,in,wurde,keine,jede,nur,60,schlug,Studie,wurden,immer,uns,60,suchen,gebrauchter,die,war,dem,Rummels,Ankunft,wird,die,Studium,eine,gebrauchte,uns,Rand,uns,wegen,Feier,das,101,sind,braunen,saftigen,Bürgermeister,Studium,mal,die,in,wegen,Kleidung,mal,Methode,genau,beider,Zirkus,beider,Essen,nur,in,Eimer,keine,die,fuhren,die,wurden,Bürgermeister,war,sich,Ankunft,trotz,,,,,,,,,,,,,,,,,,,,,,,6,0,6,0,0,2,2,2,,,,,,,space,0.613461971283,,,,,,2017_Jan_27_1456,61.1385166603,spr_backupper,001,Fr15,
,Größe,überwiegend,können,mit,roter,gehören,wissen,die,Fleisch,260.000,königlichen,mit,gedachte,wir,schon,mit,hat,königliches,der,schnell,Berge,Zucker,Mond,kann,wir,wurden,260.000,dem,große,gehören,Hemd,"sporadisch,","unterging,",unter,kann,wissen,Menge,Dänemark,dann,Lust,Menge,kleinere,Liter,"sporadisch,",wurde,mit,auf,durch,Liter,die,Kleidung,Erlebnisse,der,Mann,wurde,stand,mit,Masse,habe,große,Kleidung,die,der,durch,des,gedachte,Auto,hält,mit,Zuckers,Fleischs,beschuldigten,las,wieder,Masse,Größe,dem,bei,wieder,kann,die,beteiligten,werden,beteiligter,kann,kleinere,Dänemark,rote,Lust,Leinwand,mit,er,aus,beschuldigten,aus,Berge,stand,des,,,,,,,,,,,,,,,,,,,,,,,6,0,6,0,0,3,3,3,,,,,,,space,0.486474990845,,,,,,2017_Jan_27_1456,61.1385166603,spr_backupper,001,Fr15,
,36,"nicht,",Neuwahlen,dauerhaftem,Farbe,immer,wir,Wohnung,wurden,Kilowattstunden,Bluts,"minimalem,",man,den,bei,solch,uns,Blut,Stadt,dank,schmutziger,sind,dauerte,ich,den,mit,Kilowattstunden,bekannten,Packung,immer,aus,obschon,war,"regelmäßigem,",man,wir,alten,einen,mit,auf,alten,"Delikte,",sprudelnden,obwohl,jetzt,"üblichem,",warmem,Büschel,sprudelndes,Wohnung,landen,bei,vierte,das,schon,ein,"reichlichem,",mit,ich,Packung,landen,Stimmung,Stadt,Büschel,schönen,man,dem,nicht,"sämtlichem,",sind,wurden,die,ich,viel,mit,36,schönen,ausreichendem,viel,man,richtige,Fahrer,die,Fahrer,ich,"Delikte,",gelegentlich,Farbe,auf,aus,solchen,"trug,","wertvollem,",die,"Japan,",schmutzige,ein,bekannten,,,,,,,,,,,,,,,,,,,,,,,6,0,6,0,0,4,4,4,,,,,,,space,0.437041044235,,,,,,2017_Jan_27_1456,61.1385166603,spr_backupper,001,Fr15,
,würden,was,vor,feinem,geschleudert.,350,von,des,serviert.,elektrische,hat,sauberen,den,roten,minimalem,unzureichenden,die,hat,liegen,täglichem,Wäsche.,auf,ungefähr,leider,roten,zusätzlichem,elektrischer,Skandal,salzige,350,feinem,sie,die,kaltem,eine,um,Krams,gelegentlichen,"reichem,",noch,Kram,derer,Trinkwassers.,sie,"nachgewiesen,",harten,weichem,frischen,Trinkwasser.,des,im,"frischem,",Bundespräsident.,Auto,immer,Glas,purem,einem,mehr,salziger,im,ziemlich,liegen,frisches,Wetters,der,Mann,am,künftigem,auf,serviert.,Störenfriede,mehr,Lärm,einem,hätten,Wetter,monatlichem,Lärm,eine,"Zeit,",wurden,Tiere,wurden,leider,deren,einen,geschleudert.,noch,seltenem,unzureichenden,war,klassischen,Störenfriede,die,Wäsche.,Glas,Skandals,,,,,,,,,,,,,,,,,,,,,,,6,0,6,0,0,5,5,5,,,,,,,space,0.452706813812,,,,,,2017_Jan_27_1456,61.1385166603,spr_backupper,001,Fr15,
,,,,,,,,,,,,,,,,,,,,,,,,,,,,,,,,,,,,,,,,,,,,,,,,,,,,,,,,,,,,,,,,,,,,,,,,,,,,,,,,,,,,,,,,,,,,,,,,,,,,,,,,,,,,,,,,,,,,,,,,,6,0,6,0,,,,,,,,,,,,,None,n,1.84512400627,,,2017_Jan_27_1456,61.1385166603,spr_backupper,001,Fr15,
,Die,Die,Unter,Die,Es,In,In,Die,Beträchtliche,Die,Nicht,Wir,Bei,Im,Ihr,Die,Dass,Nicht,Am,Ich,Dort,100,Der,Außer,Im,Die,Die,Er,Ich,In,Er,Die,Als,Die,Mit,In,Wir,Wir,Das,Sie,Wir,Es,Sie,Die,In,Alle,Jungtiere,Wir,Sie,Die,Viele,Sie,Walter,Wir,Fernab,Bei,Die,Er,In,Ich,Viele,Es,Am,Wir,Sie,Bei,Wir,Die,Manche,100,Beträchtliche,Außer,In,Man,Er,Die,Sie,Jugendliche,Man,Mit,Jetzt,Die,In,Die,Außer,Es,Wir,Es,Sie,Danach,Die,Die,Die,Außer,Die,Dort,Bei,Er,,,,,,,,,,,,,,,,,,,,,,,7,0,7,0,0,0,0,0,,,,,,None,space,0.375738859177,,,,,,2017_Jan_27_1456,61.1385166603,spr_backupper,001,Fr15,
,Schuhe,Teilnehmerinnen,keinen,Eislaufbahnen,wurden,den,der,Gäste,Stücke,Schule,ein,konnten,der,Fernrohr,Blutdruck,Kinder,es,ein,äußeren,wurde,türmen,g,Flug,dem,Fernrohr,müden,Schule,wurde,nehme,den,hat,Uhr,die,Formen,dieser,der,haben,hatten,Tuch,hatte,haben,waren,verbrauchen,Uhr,einer,Betten,sollten,mussten,verbrauchen,Gäste,Tonnen,haben,Scheel,übergaben,des,unserer,Lösung,stellt,meinem,nehme,Tonnen,hat,äußersten,mussten,verlassen,der,übergaben,Linie,Kreditnehmer,g,Stücke,dem,meinem,machte,stellt,Schuhe,verlassen,können,machte,dieser,ist,Autos,diesem,Autos,das,waren,hatten,wurden,hatte,wurde,Kinder,"Uhr,",Stücke,den,Uhr,türmen,unserer,wurde,,,,,,,,,,,,,,,,,,,,,,,7,0,7,0,0,1,1,1,,,,,,,space,0.559895038605,,,,,,2017_Jan_27_1456,61.1385166603,spr_backupper,001,Fr15,
,in,wussten,Umständen,wurden,Eimer,Kakao,Tat,suchen,saftiges,verbraucht,Tropfen,dann,Feier,sahen,kann,fuhren,"regnete,",Tropfen,Rand,damals,sich,brauner,zum,Essen,sahen,Teilnehmer,verbraucht,trotz,eine,Kakao,ein,schlug,Sonne,wurden,Methode,Tat,jede,in,wurde,keine,jede,nur,60,schlug,Studie,wurden,immer,uns,60,suchen,gebrauchter,die,war,dem,Rummels,Ankunft,wird,die,Studium,eine,gebrauchte,uns,Rand,uns,wegen,Feier,das,101,sind,braunen,saftigen,Bürgermeister,Studium,mal,die,in,wegen,Kleidung,mal,Methode,genau,beider,Zirkus,beider,Essen,nur,in,Eimer,keine,die,fuhren,die,wurden,Bürgermeister,war,sich,Ankunft,trotz,,,,,,,,,,,,,,,,,,,,,,,7,0,7,0,0,2,2,2,,,,,,,space,0.582424879074,,,,,,2017_Jan_27_1456,61.1385166603,spr_backupper,001,Fr15,
,Größe,überwiegend,können,mit,roter,gehören,wissen,die,Fleisch,260.000,königlichen,mit,gedachte,wir,schon,mit,hat,königliches,der,schnell,Berge,Zucker,Mond,kann,wir,wurden,260.000,dem,große,gehören,Hemd,"sporadisch,","unterging,",unter,kann,wissen,Menge,Dänemark,dann,Lust,Menge,kleinere,Liter,"sporadisch,",wurde,mit,auf,durch,Liter,die,Kleidung,Erlebnisse,der,Mann,wurde,stand,mit,Masse,habe,große,Kleidung,die,der,durch,des,gedachte,Auto,hält,mit,Zuckers,Fleischs,beschuldigten,las,wieder,Masse,Größe,dem,bei,wieder,kann,die,beteiligten,werden,beteiligter,kann,kleinere,Dänemark,rote,Lust,Leinwand,mit,er,aus,beschuldigten,aus,Berge,stand,des,,,,,,,,,,,,,,,,,,,,,,,7,0,7,0,0,3,3,3,,,,,,,space,0.41964006424,,,,,,2017_Jan_27_1456,61.1385166603,spr_backupper,001,Fr15,
,36,"nicht,",Neuwahlen,dauerhaftem,Farbe,immer,wir,Wohnung,wurden,Kilowattstunden,Bluts,"minimalem,",man,den,bei,solch,uns,Blut,Stadt,dank,schmutziger,sind,dauerte,ich,den,mit,Kilowattstunden,bekannten,Packung,immer,aus,obschon,war,"regelmäßigem,",man,wir,alten,einen,mit,auf,alten,"Delikte,",sprudelnden,obwohl,jetzt,"üblichem,",warmem,Büschel,sprudelndes,Wohnung,landen,bei,vierte,das,schon,ein,"reichlichem,",mit,ich,Packung,landen,Stimmung,Stadt,Büschel,schönen,man,dem,nicht,"sämtlichem,",sind,wurden,die,ich,viel,mit,36,schönen,ausreichendem,viel,man,richtige,Fahrer,die,Fahrer,ich,"Delikte,",gelegentlich,Farbe,auf,aus,solchen,"trug,","wertvollem,",die,"Japan,",schmutzige,ein,bekannten,,,,,,,,,,,,,,,,,,,,,,,7,0,7,0,0,4,4,4,,,,,,,space,0.687708854675,,,,,,2017_Jan_27_1456,61.1385166603,spr_backupper,001,Fr15,
,würden,was,vor,feinem,geschleudert.,350,von,des,serviert.,elektrische,hat,sauberen,den,roten,minimalem,unzureichenden,die,hat,liegen,täglichem,Wäsche.,auf,ungefähr,leider,roten,zusätzlichem,elektrischer,Skandal,salzige,350,feinem,sie,die,kaltem,eine,um,Krams,gelegentlichen,"reichem,",noch,Kram,derer,Trinkwassers.,sie,"nachgewiesen,",harten,weichem,frischen,Trinkwasser.,des,im,"frischem,",Bundespräsident.,Auto,immer,Glas,purem,einem,mehr,salziger,im,ziemlich,liegen,frisches,Wetters,der,Mann,am,künftigem,auf,serviert.,Störenfriede,mehr,Lärm,einem,hätten,Wetter,monatlichem,Lärm,eine,"Zeit,",wurden,Tiere,wurden,leider,deren,einen,geschleudert.,noch,seltenem,unzureichenden,war,klassischen,Störenfriede,die,Wäsche.,Glas,Skandals,,,,,,,,,,,,,,,,,,,,,,,7,0,7,0,0,5,5,5,,,,,,,space,0.445095062256,,,,,,2017_Jan_27_1456,61.1385166603,spr_backupper,001,Fr15,
,seiner,Tupperware,Dezember,Kunsteis,nan,ml,den,Herrn,nan,Energie.,den,Kraftstoff,Soldaten,Planet,täglichen,Helmen,Stimmung,den,die,grünen,nan,jeden,drei,nichts,Planeten,schwarzem,Energie.,wiedergewählt.,Wurst,ml,dichten,defekt,Flut,Abduschen,große,die,aus,Besucher.,goldenen,eine,aus,sie,nan,defekt,dass,Schaumstoff,Untergrund,Grases,nan,Herrn,Müll.,kaltem,nan,mehr,ruhig,köstlicher,Alkohol,Esslöffel,als,Wurst,Müll.,"vermiest,",die,Gras,die,Soldaten,mehr,Hauptbahnhof.,Einkommen,jeden,nan,jeden.,als,um,Esslöffel,seiner,die,Taschengeld,um,große,um,verschrottet.,artgerecht,verschrottet.,nichts,sie,Besucher.,nan,eine,dichten,Helmen,aus,Schmuck,jeden.,er,nan,köstlichen,wiedergewählt.,,,,,,,,,,,,,,,,,,,,,,,7,0,7,0,0,6,6,6,,,,,,,space,0.389899015427,,,,,,2017_Jan_27_1456,61.1385166603,spr_backupper,001,Fr15,
,Frau,ist.,stattfinden.,eingesprüht.,nan,warme,Problemen,Gantenbeins.,nan,nan,Boden,fahren.,des,ganz,Einsatz,zur,ziemlich,Boden,Slums.,Tee,nan,Fall,Tage.,mitbringen.,ganz,Kaffee,nan,nan,mit,warmer,Stoff,war.,zurückgekehrt.,gehärtet.,Menge,Probleme,dem,nan,Besatz,Sammlung,dem,überführt,nan,war.,das,gefertigt.,liegen.,zwängen.,nan,Gantenbein.,nan,Saft,nan,als,diskutiert.,Wein,verdünnt.,warmen,einmal,mit,nan,dass,Slums.,zwängen.,Wohnung.,des,als,nan,haftbar.,Fall,nan,nan,einmal,jede,warmem,Frau,Wohnung.,selber,jede,Menge,Nadelhölzer,nan,gehalten.,nan,mitbringen.,überführt,nan,nan,Sammlung,Gewebe,zur,Japan.,umgearbeitet.,nan,trug.,nan,Weins,nan,,,,,,,,,,,,,,,,,,,,,,,7,0,7,0,0,7,7,7,,,,,,,space,0.437126874924,,,,,,2017_Jan_27_1456,61.1385166603,spr_backupper,001,Fr15,
,,,,,,,,,,,,,,,,,,,,,,,,,,,,,,,,,,,,,,,,,,,,,,,,,,,,,,,,,,,,,,,,,,,,,,,,,,,,,,,,,,,,,,,,,,,,,,,,,,,,,,,,,,,,,,,,,,,,,,,,,7,0,7,0,,,,,,,,,,,,,None,j,1.99636387825,,,2017_Jan_27_1456,61.1385166603,spr_backupper,001,Fr15,
,Die,Die,Unter,Die,Es,In,In,Die,Beträchtliche,Die,Nicht,Wir,Bei,Im,Ihr,Die,Dass,Nicht,Am,Ich,Dort,100,Der,Außer,Im,Die,Die,Er,Ich,In,Er,Die,Als,Die,Mit,In,Wir,Wir,Das,Sie,Wir,Es,Sie,Die,In,Alle,Jungtiere,Wir,Sie,Die,Viele,Sie,Walter,Wir,Fernab,Bei,Die,Er,In,Ich,Viele,Es,Am,Wir,Sie,Bei,Wir,Die,Manche,100,Beträchtliche,Außer,In,Man,Er,Die,Sie,Jugendliche,Man,Mit,Jetzt,Die,In,Die,Außer,Es,Wir,Es,Sie,Danach,Die,Die,Die,Außer,Die,Dort,Bei,Er,,,,,,,,,,,,,,,,,,,,,,,8,0,8,0,0,0,0,0,,,,,,None,space,1.36069297791,,,,,,2017_Jan_27_1456,61.1385166603,spr_backupper,001,Fr15,
,Schuhe,Teilnehmerinnen,keinen,Eislaufbahnen,wurden,den,der,Gäste,Stücke,Schule,ein,konnten,der,Fernrohr,Blutdruck,Kinder,es,ein,äußeren,wurde,türmen,g,Flug,dem,Fernrohr,müden,Schule,wurde,nehme,den,hat,Uhr,die,Formen,dieser,der,haben,hatten,Tuch,hatte,haben,waren,verbrauchen,Uhr,einer,Betten,sollten,mussten,verbrauchen,Gäste,Tonnen,haben,Scheel,übergaben,des,unserer,Lösung,stellt,meinem,nehme,Tonnen,hat,äußersten,mussten,verlassen,der,übergaben,Linie,Kreditnehmer,g,Stücke,dem,meinem,machte,stellt,Schuhe,verlassen,können,machte,dieser,ist,Autos,diesem,Autos,das,waren,hatten,wurden,hatte,wurde,Kinder,"Uhr,",Stücke,den,Uhr,türmen,unserer,wurde,,,,,,,,,,,,,,,,,,,,,,,8,0,8,0,0,1,1,1,,,,,,,space,0.519739151001,,,,,,2017_Jan_27_1456,61.1385166603,spr_backupper,001,Fr15,
,in,wussten,Umständen,wurden,Eimer,Kakao,Tat,suchen,saftiges,verbraucht,Tropfen,dann,Feier,sahen,kann,fuhren,"regnete,",Tropfen,Rand,damals,sich,brauner,zum,Essen,sahen,Teilnehmer,verbraucht,trotz,eine,Kakao,ein,schlug,Sonne,wurden,Methode,Tat,jede,in,wurde,keine,jede,nur,60,schlug,Studie,wurden,immer,uns,60,suchen,gebrauchter,die,war,dem,Rummels,Ankunft,wird,die,Studium,eine,gebrauchte,uns,Rand,uns,wegen,Feier,das,101,sind,braunen,saftigen,Bürgermeister,Studium,mal,die,in,wegen,Kleidung,mal,Methode,genau,beider,Zirkus,beider,Essen,nur,in,Eimer,keine,die,fuhren,die,wurden,Bürgermeister,war,sich,Ankunft,trotz,,,,,,,,,,,,,,,,,,,,,,,8,0,8,0,0,2,2,2,,,,,,,space,0.458473920822,,,,,,2017_Jan_27_1456,61.1385166603,spr_backupper,001,Fr15,
,Größe,überwiegend,können,mit,roter,gehören,wissen,die,Fleisch,260.000,königlichen,mit,gedachte,wir,schon,mit,hat,königliches,der,schnell,Berge,Zucker,Mond,kann,wir,wurden,260.000,dem,große,gehören,Hemd,"sporadisch,","unterging,",unter,kann,wissen,Menge,Dänemark,dann,Lust,Menge,kleinere,Liter,"sporadisch,",wurde,mit,auf,durch,Liter,die,Kleidung,Erlebnisse,der,Mann,wurde,stand,mit,Masse,habe,große,Kleidung,die,der,durch,des,gedachte,Auto,hält,mit,Zuckers,Fleischs,beschuldigten,las,wieder,Masse,Größe,dem,bei,wieder,kann,die,beteiligten,werden,beteiligter,kann,kleinere,Dänemark,rote,Lust,Leinwand,mit,er,aus,beschuldigten,aus,Berge,stand,des,,,,,,,,,,,,,,,,,,,,,,,8,0,8,0,0,3,3,3,,,,,,,space,0.397843122482,,,,,,2017_Jan_27_1456,61.1385166603,spr_backupper,001,Fr15,
,36,"nicht,",Neuwahlen,dauerhaftem,Farbe,immer,wir,Wohnung,wurden,Kilowattstunden,Bluts,"minimalem,",man,den,bei,solch,uns,Blut,Stadt,dank,schmutziger,sind,dauerte,ich,den,mit,Kilowattstunden,bekannten,Packung,immer,aus,obschon,war,"regelmäßigem,",man,wir,alten,einen,mit,auf,alten,"Delikte,",sprudelnden,obwohl,jetzt,"üblichem,",warmem,Büschel,sprudelndes,Wohnung,landen,bei,vierte,das,schon,ein,"reichlichem,",mit,ich,Packung,landen,Stimmung,Stadt,Büschel,schönen,man,dem,nicht,"sämtlichem,",sind,wurden,die,ich,viel,mit,36,schönen,ausreichendem,viel,man,richtige,Fahrer,die,Fahrer,ich,"Delikte,",gelegentlich,Farbe,auf,aus,solchen,"trug,","wertvollem,",die,"Japan,",schmutzige,ein,bekannten,,,,,,,,,,,,,,,,,,,,,,,8,0,8,0,0,4,4,4,,,,,,,space,0.383530139923,,,,,,2017_Jan_27_1456,61.1385166603,spr_backupper,001,Fr15,
,würden,was,vor,feinem,geschleudert.,350,von,des,serviert.,elektrische,hat,sauberen,den,roten,minimalem,unzureichenden,die,hat,liegen,täglichem,Wäsche.,auf,ungefähr,leider,roten,zusätzlichem,elektrischer,Skandal,salzige,350,feinem,sie,die,kaltem,eine,um,Krams,gelegentlichen,"reichem,",noch,Kram,derer,Trinkwassers.,sie,"nachgewiesen,",harten,weichem,frischen,Trinkwasser.,des,im,"frischem,",Bundespräsident.,Auto,immer,Glas,purem,einem,mehr,salziger,im,ziemlich,liegen,frisches,Wetters,der,Mann,am,künftigem,auf,serviert.,Störenfriede,mehr,Lärm,einem,hätten,Wetter,monatlichem,Lärm,eine,"Zeit,",wurden,Tiere,wurden,leider,deren,einen,geschleudert.,noch,seltenem,unzureichenden,war,klassischen,Störenfriede,die,Wäsche.,Glas,Skandals,,,,,,,,,,,,,,,,,,,,,,,8,0,8,0,0,5,5,5,,,,,,,space,0.359831094742,,,,,,2017_Jan_27_1456,61.1385166603,spr_backupper,001,Fr15,
,seiner,Tupperware,Dezember,Kunsteis,nan,ml,den,Herrn,nan,Energie.,den,Kraftstoff,Soldaten,Planet,täglichen,Helmen,Stimmung,den,die,grünen,nan,jeden,drei,nichts,Planeten,schwarzem,Energie.,wiedergewählt.,Wurst,ml,dichten,defekt,Flut,Abduschen,große,die,aus,Besucher.,goldenen,eine,aus,sie,nan,defekt,dass,Schaumstoff,Untergrund,Grases,nan,Herrn,Müll.,kaltem,nan,mehr,ruhig,köstlicher,Alkohol,Esslöffel,als,Wurst,Müll.,"vermiest,",die,Gras,die,Soldaten,mehr,Hauptbahnhof.,Einkommen,jeden,nan,jeden.,als,um,Esslöffel,seiner,die,Taschengeld,um,große,um,verschrottet.,artgerecht,verschrottet.,nichts,sie,Besucher.,nan,eine,dichten,Helmen,aus,Schmuck,jeden.,er,nan,köstlichen,wiedergewählt.,,,,,,,,,,,,,,,,,,,,,,,8,0,8,0,0,6,6,6,,,,,,,space,0.401017904282,,,,,,2017_Jan_27_1456,61.1385166603,spr_backupper,001,Fr15,
,Frau,ist.,stattfinden.,eingesprüht.,nan,warme,Problemen,Gantenbeins.,nan,nan,Boden,fahren.,des,ganz,Einsatz,zur,ziemlich,Boden,Slums.,Tee,nan,Fall,Tage.,mitbringen.,ganz,Kaffee,nan,nan,mit,warmer,Stoff,war.,zurückgekehrt.,gehärtet.,Menge,Probleme,dem,nan,Besatz,Sammlung,dem,überführt,nan,war.,das,gefertigt.,liegen.,zwängen.,nan,Gantenbein.,nan,Saft,nan,als,diskutiert.,Wein,verdünnt.,warmen,einmal,mit,nan,dass,Slums.,zwängen.,Wohnung.,des,als,nan,haftbar.,Fall,nan,nan,einmal,jede,warmem,Frau,Wohnung.,selber,jede,Menge,Nadelhölzer,nan,gehalten.,nan,mitbringen.,überführt,nan,nan,Sammlung,Gewebe,zur,Japan.,umgearbeitet.,nan,trug.,nan,Weins,nan,,,,,,,,,,,,,,,,,,,,,,,8,0,8,0,0,7,7,7,,,,,,,space,0.442759037018,,,,,,2017_Jan_27_1456,61.1385166603,spr_backupper,001,Fr15,
,,,,,,,,,,,,,,,,,,,,,,,,,,,,,,,,,,,,,,,,,,,,,,,,,,,,,,,,,,,,,,,,,,,,,,,,,,,,,,,,,,,,,,,,,,,,,,,,,,,,,,,,,,,,,,,,,,,,,,,,,8,0,8,0,,,,,,,,,,,,,None,n,2.56347298622,,,2017_Jan_27_1456,61.1385166603,spr_backupper,001,Fr15,
,Die,Die,Unter,Die,Es,In,In,Die,Beträchtliche,Die,Nicht,Wir,Bei,Im,Ihr,Die,Dass,Nicht,Am,Ich,Dort,100,Der,Außer,Im,Die,Die,Er,Ich,In,Er,Die,Als,Die,Mit,In,Wir,Wir,Das,Sie,Wir,Es,Sie,Die,In,Alle,Jungtiere,Wir,Sie,Die,Viele,Sie,Walter,Wir,Fernab,Bei,Die,Er,In,Ich,Viele,Es,Am,Wir,Sie,Bei,Wir,Die,Manche,100,Beträchtliche,Außer,In,Man,Er,Die,Sie,Jugendliche,Man,Mit,Jetzt,Die,In,Die,Außer,Es,Wir,Es,Sie,Danach,Die,Die,Die,Außer,Die,Dort,Bei,Er,,,,,,,,,,,,,,,,,,,,,,,9,0,9,0,0,0,0,0,,,,,,None,space,0.368382930756,,,,,,2017_Jan_27_1456,61.1385166603,spr_backupper,001,Fr15,
,Schuhe,Teilnehmerinnen,keinen,Eislaufbahnen,wurden,den,der,Gäste,Stücke,Schule,ein,konnten,der,Fernrohr,Blutdruck,Kinder,es,ein,äußeren,wurde,türmen,g,Flug,dem,Fernrohr,müden,Schule,wurde,nehme,den,hat,Uhr,die,Formen,dieser,der,haben,hatten,Tuch,hatte,haben,waren,verbrauchen,Uhr,einer,Betten,sollten,mussten,verbrauchen,Gäste,Tonnen,haben,Scheel,übergaben,des,unserer,Lösung,stellt,meinem,nehme,Tonnen,hat,äußersten,mussten,verlassen,der,übergaben,Linie,Kreditnehmer,g,Stücke,dem,meinem,machte,stellt,Schuhe,verlassen,können,machte,dieser,ist,Autos,diesem,Autos,das,waren,hatten,wurden,hatte,wurde,Kinder,"Uhr,",Stücke,den,Uhr,türmen,unserer,wurde,,,,,,,,,,,,,,,,,,,,,,,9,0,9,0,0,1,1,1,,,,,,,space,0.385020971298,,,,,,2017_Jan_27_1456,61.1385166603,spr_backupper,001,Fr15,
,in,wussten,Umständen,wurden,Eimer,Kakao,Tat,suchen,saftiges,verbraucht,Tropfen,dann,Feier,sahen,kann,fuhren,"regnete,",Tropfen,Rand,damals,sich,brauner,zum,Essen,sahen,Teilnehmer,verbraucht,trotz,eine,Kakao,ein,schlug,Sonne,wurden,Methode,Tat,jede,in,wurde,keine,jede,nur,60,schlug,Studie,wurden,immer,uns,60,suchen,gebrauchter,die,war,dem,Rummels,Ankunft,wird,die,Studium,eine,gebrauchte,uns,Rand,uns,wegen,Feier,das,101,sind,braunen,saftigen,Bürgermeister,Studium,mal,die,in,wegen,Kleidung,mal,Methode,genau,beider,Zirkus,beider,Essen,nur,in,Eimer,keine,die,fuhren,die,wurden,Bürgermeister,war,sich,Ankunft,trotz,,,,,,,,,,,,,,,,,,,,,,,9,0,9,0,0,2,2,2,,,,,,,space,0.369776964188,,,,,,2017_Jan_27_1456,61.1385166603,spr_backupper,001,Fr15,
,Größe,überwiegend,können,mit,roter,gehören,wissen,die,Fleisch,260.000,königlichen,mit,gedachte,wir,schon,mit,hat,königliches,der,schnell,Berge,Zucker,Mond,kann,wir,wurden,260.000,dem,große,gehören,Hemd,"sporadisch,","unterging,",unter,kann,wissen,Menge,Dänemark,dann,Lust,Menge,kleinere,Liter,"sporadisch,",wurde,mit,auf,durch,Liter,die,Kleidung,Erlebnisse,der,Mann,wurde,stand,mit,Masse,habe,große,Kleidung,die,der,durch,des,gedachte,Auto,hält,mit,Zuckers,Fleischs,beschuldigten,las,wieder,Masse,Größe,dem,bei,wieder,kann,die,beteiligten,werden,beteiligter,kann,kleinere,Dänemark,rote,Lust,Leinwand,mit,er,aus,beschuldigten,aus,Berge,stand,des,,,,,,,,,,,,,,,,,,,,,,,9,0,9,0,0,3,3,3,,,,,,,space,0.435753107071,,,,,,2017_Jan_27_1456,61.1385166603,spr_backupper,001,Fr15,
,36,"nicht,",Neuwahlen,dauerhaftem,Farbe,immer,wir,Wohnung,wurden,Kilowattstunden,Bluts,"minimalem,",man,den,bei,solch,uns,Blut,Stadt,dank,schmutziger,sind,dauerte,ich,den,mit,Kilowattstunden,bekannten,Packung,immer,aus,obschon,war,"regelmäßigem,",man,wir,alten,einen,mit,auf,alten,"Delikte,",sprudelnden,obwohl,jetzt,"üblichem,",warmem,Büschel,sprudelndes,Wohnung,landen,bei,vierte,das,schon,ein,"reichlichem,",mit,ich,Packung,landen,Stimmung,Stadt,Büschel,schönen,man,dem,nicht,"sämtlichem,",sind,wurden,die,ich,viel,mit,36,schönen,ausreichendem,viel,man,richtige,Fahrer,die,Fahrer,ich,"Delikte,",gelegentlich,Farbe,auf,aus,solchen,"trug,","wertvollem,",die,"Japan,",schmutzige,ein,bekannten,,,,,,,,,,,,,,,,,,,,,,,9,0,9,0,0,4,4,4,,,,,,,space,0.420264005661,,,,,,2017_Jan_27_1456,61.1385166603,spr_backupper,001,Fr15,
,würden,was,vor,feinem,geschleudert.,350,von,des,serviert.,elektrische,hat,sauberen,den,roten,minimalem,unzureichenden,die,hat,liegen,täglichem,Wäsche.,auf,ungefähr,leider,roten,zusätzlichem,elektrischer,Skandal,salzige,350,feinem,sie,die,kaltem,eine,um,Krams,gelegentlichen,"reichem,",noch,Kram,derer,Trinkwassers.,sie,"nachgewiesen,",harten,weichem,frischen,Trinkwasser.,des,im,"frischem,",Bundespräsident.,Auto,immer,Glas,purem,einem,mehr,salziger,im,ziemlich,liegen,frisches,Wetters,der,Mann,am,künftigem,auf,serviert.,Störenfriede,mehr,Lärm,einem,hätten,Wetter,monatlichem,Lärm,eine,"Zeit,",wurden,Tiere,wurden,leider,deren,einen,geschleudert.,noch,seltenem,unzureichenden,war,klassischen,Störenfriede,die,Wäsche.,Glas,Skandals,,,,,,,,,,,,,,,,,,,,,,,9,0,9,0,0,5,5,5,,,,,,,space,0.358135938644,,,,,,2017_Jan_27_1456,61.1385166603,spr_backupper,001,Fr15,
,seiner,Tupperware,Dezember,Kunsteis,nan,ml,den,Herrn,nan,Energie.,den,Kraftstoff,Soldaten,Planet,täglichen,Helmen,Stimmung,den,die,grünen,nan,jeden,drei,nichts,Planeten,schwarzem,Energie.,wiedergewählt.,Wurst,ml,dichten,defekt,Flut,Abduschen,große,die,aus,Besucher.,goldenen,eine,aus,sie,nan,defekt,dass,Schaumstoff,Untergrund,Grases,nan,Herrn,Müll.,kaltem,nan,mehr,ruhig,köstlicher,Alkohol,Esslöffel,als,Wurst,Müll.,"vermiest,",die,Gras,die,Soldaten,mehr,Hauptbahnhof.,Einkommen,jeden,nan,jeden.,als,um,Esslöffel,seiner,die,Taschengeld,um,große,um,verschrottet.,artgerecht,verschrottet.,nichts,sie,Besucher.,nan,eine,dichten,Helmen,aus,Schmuck,jeden.,er,nan,köstlichen,wiedergewählt.,,,,,,,,,,,,,,,,,,,,,,,9,0,9,0,0,6,6,6,,,,,,,space,0.386353969574,,,,,,2017_Jan_27_1456,61.1385166603,spr_backupper,001,Fr15,
,Frau,ist.,stattfinden.,eingesprüht.,nan,warme,Problemen,Gantenbeins.,nan,nan,Boden,fahren.,des,ganz,Einsatz,zur,ziemlich,Boden,Slums.,Tee,nan,Fall,Tage.,mitbringen.,ganz,Kaffee,nan,nan,mit,warmer,Stoff,war.,zurückgekehrt.,gehärtet.,Menge,Probleme,dem,nan,Besatz,Sammlung,dem,überführt,nan,war.,das,gefertigt.,liegen.,zwängen.,nan,Gantenbein.,nan,Saft,nan,als,diskutiert.,Wein,verdünnt.,warmen,einmal,mit,nan,dass,Slums.,zwängen.,Wohnung.,des,als,nan,haftbar.,Fall,nan,nan,einmal,jede,warmem,Frau,Wohnung.,selber,jede,Menge,Nadelhölzer,nan,gehalten.,nan,mitbringen.,überführt,nan,nan,Sammlung,Gewebe,zur,Japan.,umgearbeitet.,nan,trug.,nan,Weins,nan,,,,,,,,,,,,,,,,,,,,,,,9,0,9,0,0,7,7,7,,,,,,,space,0.452481031418,,,,,,2017_Jan_27_1456,61.1385166603,spr_backupper,001,Fr15,
,,,,,,,,,,,,,,,,,,,,,,,,,,,,,,,,,,,,,,,,,,,,,,,,,,,,,,,,,,,,,,,,,,,,,,,,,,,,,,,,,,,,,,,,,,,,,,,,,,,,,,,,,,,,,,,,,,,,,,,,,9,0,9,0,,,,,,,,,,,,,None,n,4.04517602921,,,2017_Jan_27_1456,61.1385166603,spr_backupper,001,Fr15,
,Die,Die,Unter,Die,Es,In,In,Die,Beträchtliche,Die,Nicht,Wir,Bei,Im,Ihr,Die,Dass,Nicht,Am,Ich,Dort,100,Der,Außer,Im,Die,Die,Er,Ich,In,Er,Die,Als,Die,Mit,In,Wir,Wir,Das,Sie,Wir,Es,Sie,Die,In,Alle,Jungtiere,Wir,Sie,Die,Viele,Sie,Walter,Wir,Fernab,Bei,Die,Er,In,Ich,Viele,Es,Am,Wir,Sie,Bei,Wir,Die,Manche,100,Beträchtliche,Außer,In,Man,Er,Die,Sie,Jugendliche,Man,Mit,Jetzt,Die,In,Die,Außer,Es,Wir,Es,Sie,Danach,Die,Die,Die,Außer,Die,Dort,Bei,Er,,,,,,,,,,,,,,,,,,,,,,,10,0,10,0,0,0,0,0,,,,,,None,space,0.608910083771,,,,,,2017_Jan_27_1456,61.1385166603,spr_backupper,001,Fr15,
,Schuhe,Teilnehmerinnen,keinen,Eislaufbahnen,wurden,den,der,Gäste,Stücke,Schule,ein,konnten,der,Fernrohr,Blutdruck,Kinder,es,ein,äußeren,wurde,türmen,g,Flug,dem,Fernrohr,müden,Schule,wurde,nehme,den,hat,Uhr,die,Formen,dieser,der,haben,hatten,Tuch,hatte,haben,waren,verbrauchen,Uhr,einer,Betten,sollten,mussten,verbrauchen,Gäste,Tonnen,haben,Scheel,übergaben,des,unserer,Lösung,stellt,meinem,nehme,Tonnen,hat,äußersten,mussten,verlassen,der,übergaben,Linie,Kreditnehmer,g,Stücke,dem,meinem,machte,stellt,Schuhe,verlassen,können,machte,dieser,ist,Autos,diesem,Autos,das,waren,hatten,wurden,hatte,wurde,Kinder,"Uhr,",Stücke,den,Uhr,türmen,unserer,wurde,,,,,,,,,,,,,,,,,,,,,,,10,0,10,0,0,1,1,1,,,,,,,space,0.453547954559,,,,,,2017_Jan_27_1456,61.1385166603,spr_backupper,001,Fr15,
,in,wussten,Umständen,wurden,Eimer,Kakao,Tat,suchen,saftiges,verbraucht,Tropfen,dann,Feier,sahen,kann,fuhren,"regnete,",Tropfen,Rand,damals,sich,brauner,zum,Essen,sahen,Teilnehmer,verbraucht,trotz,eine,Kakao,ein,schlug,Sonne,wurden,Methode,Tat,jede,in,wurde,keine,jede,nur,60,schlug,Studie,wurden,immer,uns,60,suchen,gebrauchter,die,war,dem,Rummels,Ankunft,wird,die,Studium,eine,gebrauchte,uns,Rand,uns,wegen,Feier,das,101,sind,braunen,saftigen,Bürgermeister,Studium,mal,die,in,wegen,Kleidung,mal,Methode,genau,beider,Zirkus,beider,Essen,nur,in,Eimer,keine,die,fuhren,die,wurden,Bürgermeister,war,sich,Ankunft,trotz,,,,,,,,,,,,,,,,,,,,,,,10,0,10,0,0,2,2,2,,,,,,,space,0.376843929291,,,,,,2017_Jan_27_1456,61.1385166603,spr_backupper,001,Fr15,
,Größe,überwiegend,können,mit,roter,gehören,wissen,die,Fleisch,260.000,königlichen,mit,gedachte,wir,schon,mit,hat,königliches,der,schnell,Berge,Zucker,Mond,kann,wir,wurden,260.000,dem,große,gehören,Hemd,"sporadisch,","unterging,",unter,kann,wissen,Menge,Dänemark,dann,Lust,Menge,kleinere,Liter,"sporadisch,",wurde,mit,auf,durch,Liter,die,Kleidung,Erlebnisse,der,Mann,wurde,stand,mit,Masse,habe,große,Kleidung,die,der,durch,des,gedachte,Auto,hält,mit,Zuckers,Fleischs,beschuldigten,las,wieder,Masse,Größe,dem,bei,wieder,kann,die,beteiligten,werden,beteiligter,kann,kleinere,Dänemark,rote,Lust,Leinwand,mit,er,aus,beschuldigten,aus,Berge,stand,des,,,,,,,,,,,,,,,,,,,,,,,10,0,10,0,0,3,3,3,,,,,,,space,0.370043039322,,,,,,2017_Jan_27_1456,61.1385166603,spr_backupper,001,Fr15,
,36,"nicht,",Neuwahlen,dauerhaftem,Farbe,immer,wir,Wohnung,wurden,Kilowattstunden,Bluts,"minimalem,",man,den,bei,solch,uns,Blut,Stadt,dank,schmutziger,sind,dauerte,ich,den,mit,Kilowattstunden,bekannten,Packung,immer,aus,obschon,war,"regelmäßigem,",man,wir,alten,einen,mit,auf,alten,"Delikte,",sprudelnden,obwohl,jetzt,"üblichem,",warmem,Büschel,sprudelndes,Wohnung,landen,bei,vierte,das,schon,ein,"reichlichem,",mit,ich,Packung,landen,Stimmung,Stadt,Büschel,schönen,man,dem,nicht,"sämtlichem,",sind,wurden,die,ich,viel,mit,36,schönen,ausreichendem,viel,man,richtige,Fahrer,die,Fahrer,ich,"Delikte,",gelegentlich,Farbe,auf,aus,solchen,"trug,","wertvollem,",die,"Japan,",schmutzige,ein,bekannten,,,,,,,,,,,,,,,,,,,,,,,10,0,10,0,0,4,4,4,,,,,,,space,0.377939939499,,,,,,2017_Jan_27_1456,61.1385166603,spr_backupper,001,Fr15,
,würden,was,vor,feinem,geschleudert.,350,von,des,serviert.,elektrische,hat,sauberen,den,roten,minimalem,unzureichenden,die,hat,liegen,täglichem,Wäsche.,auf,ungefähr,leider,roten,zusätzlichem,elektrischer,Skandal,salzige,350,feinem,sie,die,kaltem,eine,um,Krams,gelegentlichen,"reichem,",noch,Kram,derer,Trinkwassers.,sie,"nachgewiesen,",harten,weichem,frischen,Trinkwasser.,des,im,"frischem,",Bundespräsident.,Auto,immer,Glas,purem,einem,mehr,salziger,im,ziemlich,liegen,frisches,Wetters,der,Mann,am,künftigem,auf,serviert.,Störenfriede,mehr,Lärm,einem,hätten,Wetter,monatlichem,Lärm,eine,"Zeit,",wurden,Tiere,wurden,leider,deren,einen,geschleudert.,noch,seltenem,unzureichenden,war,klassischen,Störenfriede,die,Wäsche.,Glas,Skandals,,,,,,,,,,,,,,,,,,,,,,,10,0,10,0,0,5,5,5,,,,,,,space,0.403625011444,,,,,,2017_Jan_27_1456,61.1385166603,spr_backupper,001,Fr15,
,seiner,Tupperware,Dezember,Kunsteis,nan,ml,den,Herrn,nan,Energie.,den,Kraftstoff,Soldaten,Planet,täglichen,Helmen,Stimmung,den,die,grünen,nan,jeden,drei,nichts,Planeten,schwarzem,Energie.,wiedergewählt.,Wurst,ml,dichten,defekt,Flut,Abduschen,große,die,aus,Besucher.,goldenen,eine,aus,sie,nan,defekt,dass,Schaumstoff,Untergrund,Grases,nan,Herrn,Müll.,kaltem,nan,mehr,ruhig,köstlicher,Alkohol,Esslöffel,als,Wurst,Müll.,"vermiest,",die,Gras,die,Soldaten,mehr,Hauptbahnhof.,Einkommen,jeden,nan,jeden.,als,um,Esslöffel,seiner,die,Taschengeld,um,große,um,verschrottet.,artgerecht,verschrottet.,nichts,sie,Besucher.,nan,eine,dichten,Helmen,aus,Schmuck,jeden.,er,nan,köstlichen,wiedergewählt.,,,,,,,,,,,,,,,,,,,,,,,10,0,10,0,0,6,6,6,,,,,,,space,0.37793803215,,,,,,2017_Jan_27_1456,61.1385166603,spr_backupper,001,Fr15,
,Frau,ist.,stattfinden.,eingesprüht.,nan,warme,Problemen,Gantenbeins.,nan,nan,Boden,fahren.,des,ganz,Einsatz,zur,ziemlich,Boden,Slums.,Tee,nan,Fall,Tage.,mitbringen.,ganz,Kaffee,nan,nan,mit,warmer,Stoff,war.,zurückgekehrt.,gehärtet.,Menge,Probleme,dem,nan,Besatz,Sammlung,dem,überführt,nan,war.,das,gefertigt.,liegen.,zwängen.,nan,Gantenbein.,nan,Saft,nan,als,diskutiert.,Wein,verdünnt.,warmen,einmal,mit,nan,dass,Slums.,zwängen.,Wohnung.,des,als,nan,haftbar.,Fall,nan,nan,einmal,jede,warmem,Frau,Wohnung.,selber,jede,Menge,Nadelhölzer,nan,gehalten.,nan,mitbringen.,überführt,nan,nan,Sammlung,Gewebe,zur,Japan.,umgearbeitet.,nan,trug.,nan,Weins,nan,,,,,,,,,,,,,,,,,,,,,,,10,0,10,0,0,7,7,7,,,,,,,space,0.385827064514,,,,,,2017_Jan_27_1456,61.1385166603,spr_backupper,001,Fr15,
,,,,,,,,,,,,,,,,,,,,,,,,,,,,,,,,,,,,,,,,,,,,,,,,,,,,,,,,,,,,,,,,,,,,,,,,,,,,,,,,,,,,,,,,,,,,,,,,,,,,,,,,,,,,,,,,,,,,,,,,,10,0,10,0,,,,,,,,,,,,,None,j,1.28147387505,,,2017_Jan_27_1456,61.1385166603,spr_backupper,001,Fr15,
,Die,Die,Unter,Die,Es,In,In,Die,Beträchtliche,Die,Nicht,Wir,Bei,Im,Ihr,Die,Dass,Nicht,Am,Ich,Dort,100,Der,Außer,Im,Die,Die,Er,Ich,In,Er,Die,Als,Die,Mit,In,Wir,Wir,Das,Sie,Wir,Es,Sie,Die,In,Alle,Jungtiere,Wir,Sie,Die,Viele,Sie,Walter,Wir,Fernab,Bei,Die,Er,In,Ich,Viele,Es,Am,Wir,Sie,Bei,Wir,Die,Manche,100,Beträchtliche,Außer,In,Man,Er,Die,Sie,Jugendliche,Man,Mit,Jetzt,Die,In,Die,Außer,Es,Wir,Es,Sie,Danach,Die,Die,Die,Außer,Die,Dort,Bei,Er,,,,,,,,,,,,,,,,,,,,,,,11,0,11,0,0,0,0,0,,,,,,None,space,0.950456142426,,,,,,2017_Jan_27_1456,61.1385166603,spr_backupper,001,Fr15,
,Schuhe,Teilnehmerinnen,keinen,Eislaufbahnen,wurden,den,der,Gäste,Stücke,Schule,ein,konnten,der,Fernrohr,Blutdruck,Kinder,es,ein,äußeren,wurde,türmen,g,Flug,dem,Fernrohr,müden,Schule,wurde,nehme,den,hat,Uhr,die,Formen,dieser,der,haben,hatten,Tuch,hatte,haben,waren,verbrauchen,Uhr,einer,Betten,sollten,mussten,verbrauchen,Gäste,Tonnen,haben,Scheel,übergaben,des,unserer,Lösung,stellt,meinem,nehme,Tonnen,hat,äußersten,mussten,verlassen,der,übergaben,Linie,Kreditnehmer,g,Stücke,dem,meinem,machte,stellt,Schuhe,verlassen,können,machte,dieser,ist,Autos,diesem,Autos,das,waren,hatten,wurden,hatte,wurde,Kinder,"Uhr,",Stücke,den,Uhr,türmen,unserer,wurde,,,,,,,,,,,,,,,,,,,,,,,11,0,11,0,0,1,1,1,,,,,,,space,0.369687080383,,,,,,2017_Jan_27_1456,61.1385166603,spr_backupper,001,Fr15,
,in,wussten,Umständen,wurden,Eimer,Kakao,Tat,suchen,saftiges,verbraucht,Tropfen,dann,Feier,sahen,kann,fuhren,"regnete,",Tropfen,Rand,damals,sich,brauner,zum,Essen,sahen,Teilnehmer,verbraucht,trotz,eine,Kakao,ein,schlug,Sonne,wurden,Methode,Tat,jede,in,wurde,keine,jede,nur,60,schlug,Studie,wurden,immer,uns,60,suchen,gebrauchter,die,war,dem,Rummels,Ankunft,wird,die,Studium,eine,gebrauchte,uns,Rand,uns,wegen,Feier,das,101,sind,braunen,saftigen,Bürgermeister,Studium,mal,die,in,wegen,Kleidung,mal,Methode,genau,beider,Zirkus,beider,Essen,nur,in,Eimer,keine,die,fuhren,die,wurden,Bürgermeister,war,sich,Ankunft,trotz,,,,,,,,,,,,,,,,,,,,,,,11,0,11,0,0,2,2,2,,,,,,,space,0.567063093185,,,,,,2017_Jan_27_1456,61.1385166603,spr_backupper,001,Fr15,
,Größe,überwiegend,können,mit,roter,gehören,wissen,die,Fleisch,260.000,königlichen,mit,gedachte,wir,schon,mit,hat,königliches,der,schnell,Berge,Zucker,Mond,kann,wir,wurden,260.000,dem,große,gehören,Hemd,"sporadisch,","unterging,",unter,kann,wissen,Menge,Dänemark,dann,Lust,Menge,kleinere,Liter,"sporadisch,",wurde,mit,auf,durch,Liter,die,Kleidung,Erlebnisse,der,Mann,wurde,stand,mit,Masse,habe,große,Kleidung,die,der,durch,des,gedachte,Auto,hält,mit,Zuckers,Fleischs,beschuldigten,las,wieder,Masse,Größe,dem,bei,wieder,kann,die,beteiligten,werden,beteiligter,kann,kleinere,Dänemark,rote,Lust,Leinwand,mit,er,aus,beschuldigten,aus,Berge,stand,des,,,,,,,,,,,,,,,,,,,,,,,11,0,11,0,0,3,3,3,,,,,,,space,0.403106927872,,,,,,2017_Jan_27_1456,61.1385166603,spr_backupper,001,Fr15,
,36,"nicht,",Neuwahlen,dauerhaftem,Farbe,immer,wir,Wohnung,wurden,Kilowattstunden,Bluts,"minimalem,",man,den,bei,solch,uns,Blut,Stadt,dank,schmutziger,sind,dauerte,ich,den,mit,Kilowattstunden,bekannten,Packung,immer,aus,obschon,war,"regelmäßigem,",man,wir,alten,einen,mit,auf,alten,"Delikte,",sprudelnden,obwohl,jetzt,"üblichem,",warmem,Büschel,sprudelndes,Wohnung,landen,bei,vierte,das,schon,ein,"reichlichem,",mit,ich,Packung,landen,Stimmung,Stadt,Büschel,schönen,man,dem,nicht,"sämtlichem,",sind,wurden,die,ich,viel,mit,36,schönen,ausreichendem,viel,man,richtige,Fahrer,die,Fahrer,ich,"Delikte,",gelegentlich,Farbe,auf,aus,solchen,"trug,","wertvollem,",die,"Japan,",schmutzige,ein,bekannten,,,,,,,,,,,,,,,,,,,,,,,11,0,11,0,0,4,4,4,,,,,,,space,0.336519956589,,,,,,2017_Jan_27_1456,61.1385166603,spr_backupper,001,Fr15,
,würden,was,vor,feinem,geschleudert.,350,von,des,serviert.,elektrische,hat,sauberen,den,roten,minimalem,unzureichenden,die,hat,liegen,täglichem,Wäsche.,auf,ungefähr,leider,roten,zusätzlichem,elektrischer,Skandal,salzige,350,feinem,sie,die,kaltem,eine,um,Krams,gelegentlichen,"reichem,",noch,Kram,derer,Trinkwassers.,sie,"nachgewiesen,",harten,weichem,frischen,Trinkwasser.,des,im,"frischem,",Bundespräsident.,Auto,immer,Glas,purem,einem,mehr,salziger,im,ziemlich,liegen,frisches,Wetters,der,Mann,am,künftigem,auf,serviert.,Störenfriede,mehr,Lärm,einem,hätten,Wetter,monatlichem,Lärm,eine,"Zeit,",wurden,Tiere,wurden,leider,deren,einen,geschleudert.,noch,seltenem,unzureichenden,war,klassischen,Störenfriede,die,Wäsche.,Glas,Skandals,,,,,,,,,,,,,,,,,,,,,,,11,0,11,0,0,5,5,5,,,,,,,space,0.343572854996,,,,,,2017_Jan_27_1456,61.1385166603,spr_backupper,001,Fr15,
,seiner,Tupperware,Dezember,Kunsteis,nan,ml,den,Herrn,nan,Energie.,den,Kraftstoff,Soldaten,Planet,täglichen,Helmen,Stimmung,den,die,grünen,nan,jeden,drei,nichts,Planeten,schwarzem,Energie.,wiedergewählt.,Wurst,ml,dichten,defekt,Flut,Abduschen,große,die,aus,Besucher.,goldenen,eine,aus,sie,nan,defekt,dass,Schaumstoff,Untergrund,Grases,nan,Herrn,Müll.,kaltem,nan,mehr,ruhig,köstlicher,Alkohol,Esslöffel,als,Wurst,Müll.,"vermiest,",die,Gras,die,Soldaten,mehr,Hauptbahnhof.,Einkommen,jeden,nan,jeden.,als,um,Esslöffel,seiner,die,Taschengeld,um,große,um,verschrottet.,artgerecht,verschrottet.,nichts,sie,Besucher.,nan,eine,dichten,Helmen,aus,Schmuck,jeden.,er,nan,köstlichen,wiedergewählt.,,,,,,,,,,,,,,,,,,,,,,,11,0,11,0,0,6,6,6,,,,,,,space,0.324835777283,,,,,,2017_Jan_27_1456,61.1385166603,spr_backupper,001,Fr15,
,Frau,ist.,stattfinden.,eingesprüht.,nan,warme,Problemen,Gantenbeins.,nan,nan,Boden,fahren.,des,ganz,Einsatz,zur,ziemlich,Boden,Slums.,Tee,nan,Fall,Tage.,mitbringen.,ganz,Kaffee,nan,nan,mit,warmer,Stoff,war.,zurückgekehrt.,gehärtet.,Menge,Probleme,dem,nan,Besatz,Sammlung,dem,überführt,nan,war.,das,gefertigt.,liegen.,zwängen.,nan,Gantenbein.,nan,Saft,nan,als,diskutiert.,Wein,verdünnt.,warmen,einmal,mit,nan,dass,Slums.,zwängen.,Wohnung.,des,als,nan,haftbar.,Fall,nan,nan,einmal,jede,warmem,Frau,Wohnung.,selber,jede,Menge,Nadelhölzer,nan,gehalten.,nan,mitbringen.,überführt,nan,nan,Sammlung,Gewebe,zur,Japan.,umgearbeitet.,nan,trug.,nan,Weins,nan,,,,,,,,,,,,,,,,,,,,,,,11,0,11,0,0,7,7,7,,,,,,,space,0.309530973434,,,,,,2017_Jan_27_1456,61.1385166603,spr_backupper,001,Fr15,
,gepasst,nan,nan,nan,nan,Milch.,im,nan,nan,nan,berührt.,nan,zweiten,deutlich.,sinken.,Schule.,vermiest.,berührt.,nan,wieder,nan,genug.,nan,nan,deutlich.,wiederbelebt.,nan,nan,an,Milch.,gefertigt.,nan,nan,nan,dunkler,im,Haus,nan,rekonstruiert.,dumme,Haus,wurden.,nan,nan,Medikament,nan,nan,nan,nan,nan,nan,besprochen.,nan,gerne.,nan,schon,nan,Honigs,Rilke,an,nan,es,nan,nan,nan,zweiten,gerne.,nan,nan,genug.,nan,nan,Rilke.,Menge,Honig,gepasst.,nan,kaufen.,Menge,dunkle,umzusetzen.,nan,nan,nan,nan,wurden.,nan,nan,dummer,wiederhergestellt.,Schule.,nan,nan,nan,nan,nan,schon,nan,,,,,,,,,,,,,,,,,,,,,,,11,0,11,0,0,8,8,8,,,,,,,space,0.32754611969,,,,,,2017_Jan_27_1456,61.1385166603,spr_backupper,001,Fr15,
,,,,,,,,,,,,,,,,,,,,,,,,,,,,,,,,,,,,,,,,,,,,,,,,,,,,,,,,,,,,,,,,,,,,,,,,,,,,,,,,,,,,,,,,,,,,,,,,,,,,,,,,,,,,,,,,,,,,,,,,,11,0,11,0,,,,,,,,,,,,,None,j,1.61300301552,,,2017_Jan_27_1456,61.1385166603,spr_backupper,001,Fr15,
,Die,Die,Unter,Die,Es,In,In,Die,Beträchtliche,Die,Nicht,Wir,Bei,Im,Ihr,Die,Dass,Nicht,Am,Ich,Dort,100,Der,Außer,Im,Die,Die,Er,Ich,In,Er,Die,Als,Die,Mit,In,Wir,Wir,Das,Sie,Wir,Es,Sie,Die,In,Alle,Jungtiere,Wir,Sie,Die,Viele,Sie,Walter,Wir,Fernab,Bei,Die,Er,In,Ich,Viele,Es,Am,Wir,Sie,Bei,Wir,Die,Manche,100,Beträchtliche,Außer,In,Man,Er,Die,Sie,Jugendliche,Man,Mit,Jetzt,Die,In,Die,Außer,Es,Wir,Es,Sie,Danach,Die,Die,Die,Außer,Die,Dort,Bei,Er,,,,,,,,,,,,,,,,,,,,,,,12,0,12,0,0,0,0,0,,,,,,None,space,2.14860510826,,,,,,2017_Jan_27_1456,61.1385166603,spr_backupper,001,Fr15,
,Schuhe,Teilnehmerinnen,keinen,Eislaufbahnen,wurden,den,der,Gäste,Stücke,Schule,ein,konnten,der,Fernrohr,Blutdruck,Kinder,es,ein,äußeren,wurde,türmen,g,Flug,dem,Fernrohr,müden,Schule,wurde,nehme,den,hat,Uhr,die,Formen,dieser,der,haben,hatten,Tuch,hatte,haben,waren,verbrauchen,Uhr,einer,Betten,sollten,mussten,verbrauchen,Gäste,Tonnen,haben,Scheel,übergaben,des,unserer,Lösung,stellt,meinem,nehme,Tonnen,hat,äußersten,mussten,verlassen,der,übergaben,Linie,Kreditnehmer,g,Stücke,dem,meinem,machte,stellt,Schuhe,verlassen,können,machte,dieser,ist,Autos,diesem,Autos,das,waren,hatten,wurden,hatte,wurde,Kinder,"Uhr,",Stücke,den,Uhr,türmen,unserer,wurde,,,,,,,,,,,,,,,,,,,,,,,12,0,12,0,0,1,1,1,,,,,,,space,0.390697002411,,,,,,2017_Jan_27_1456,61.1385166603,spr_backupper,001,Fr15,
,in,wussten,Umständen,wurden,Eimer,Kakao,Tat,suchen,saftiges,verbraucht,Tropfen,dann,Feier,sahen,kann,fuhren,"regnete,",Tropfen,Rand,damals,sich,brauner,zum,Essen,sahen,Teilnehmer,verbraucht,trotz,eine,Kakao,ein,schlug,Sonne,wurden,Methode,Tat,jede,in,wurde,keine,jede,nur,60,schlug,Studie,wurden,immer,uns,60,suchen,gebrauchter,die,war,dem,Rummels,Ankunft,wird,die,Studium,eine,gebrauchte,uns,Rand,uns,wegen,Feier,das,101,sind,braunen,saftigen,Bürgermeister,Studium,mal,die,in,wegen,Kleidung,mal,Methode,genau,beider,Zirkus,beider,Essen,nur,in,Eimer,keine,die,fuhren,die,wurden,Bürgermeister,war,sich,Ankunft,trotz,,,,,,,,,,,,,,,,,,,,,,,12,0,12,0,0,2,2,2,,,,,,,space,0.428050041199,,,,,,2017_Jan_27_1456,61.1385166603,spr_backupper,001,Fr15,
,Größe,überwiegend,können,mit,roter,gehören,wissen,die,Fleisch,260.000,königlichen,mit,gedachte,wir,schon,mit,hat,königliches,der,schnell,Berge,Zucker,Mond,kann,wir,wurden,260.000,dem,große,gehören,Hemd,"sporadisch,","unterging,",unter,kann,wissen,Menge,Dänemark,dann,Lust,Menge,kleinere,Liter,"sporadisch,",wurde,mit,auf,durch,Liter,die,Kleidung,Erlebnisse,der,Mann,wurde,stand,mit,Masse,habe,große,Kleidung,die,der,durch,des,gedachte,Auto,hält,mit,Zuckers,Fleischs,beschuldigten,las,wieder,Masse,Größe,dem,bei,wieder,kann,die,beteiligten,werden,beteiligter,kann,kleinere,Dänemark,rote,Lust,Leinwand,mit,er,aus,beschuldigten,aus,Berge,stand,des,,,,,,,,,,,,,,,,,,,,,,,12,0,12,0,0,3,3,3,,,,,,,space,0.416218996048,,,,,,2017_Jan_27_1456,61.1385166603,spr_backupper,001,Fr15,
,36,"nicht,",Neuwahlen,dauerhaftem,Farbe,immer,wir,Wohnung,wurden,Kilowattstunden,Bluts,"minimalem,",man,den,bei,solch,uns,Blut,Stadt,dank,schmutziger,sind,dauerte,ich,den,mit,Kilowattstunden,bekannten,Packung,immer,aus,obschon,war,"regelmäßigem,",man,wir,alten,einen,mit,auf,alten,"Delikte,",sprudelnden,obwohl,jetzt,"üblichem,",warmem,Büschel,sprudelndes,Wohnung,landen,bei,vierte,das,schon,ein,"reichlichem,",mit,ich,Packung,landen,Stimmung,Stadt,Büschel,schönen,man,dem,nicht,"sämtlichem,",sind,wurden,die,ich,viel,mit,36,schönen,ausreichendem,viel,man,richtige,Fahrer,die,Fahrer,ich,"Delikte,",gelegentlich,Farbe,auf,aus,solchen,"trug,","wertvollem,",die,"Japan,",schmutzige,ein,bekannten,,,,,,,,,,,,,,,,,,,,,,,12,0,12,0,0,4,4,4,,,,,,,space,0.503057003021,,,,,,2017_Jan_27_1456,61.1385166603,spr_backupper,001,Fr15,
,würden,was,vor,feinem,geschleudert.,350,von,des,serviert.,elektrische,hat,sauberen,den,roten,minimalem,unzureichenden,die,hat,liegen,täglichem,Wäsche.,auf,ungefähr,leider,roten,zusätzlichem,elektrischer,Skandal,salzige,350,feinem,sie,die,kaltem,eine,um,Krams,gelegentlichen,"reichem,",noch,Kram,derer,Trinkwassers.,sie,"nachgewiesen,",harten,weichem,frischen,Trinkwasser.,des,im,"frischem,",Bundespräsident.,Auto,immer,Glas,purem,einem,mehr,salziger,im,ziemlich,liegen,frisches,Wetters,der,Mann,am,künftigem,auf,serviert.,Störenfriede,mehr,Lärm,einem,hätten,Wetter,monatlichem,Lärm,eine,"Zeit,",wurden,Tiere,wurden,leider,deren,einen,geschleudert.,noch,seltenem,unzureichenden,war,klassischen,Störenfriede,die,Wäsche.,Glas,Skandals,,,,,,,,,,,,,,,,,,,,,,,12,0,12,0,0,5,5,5,,,,,,,space,0.486462116241,,,,,,2017_Jan_27_1456,61.1385166603,spr_backupper,001,Fr15,
,,,,,,,,,,,,,,,,,,,,,,,,,,,,,,,,,,,,,,,,,,,,,,,,,,,,,,,,,,,,,,,,,,,,,,,,,,,,,,,,,,,,,,,,,,,,,,,,,,,,,,,,,,,,,,,,,,,,,,,,,12,0,12,0,,,,,,,,,,,,,None,n,2.88696694374,,,2017_Jan_27_1456,61.1385166603,spr_backupper,001,Fr15,
,Die,Die,Unter,Die,Es,In,In,Die,Beträchtliche,Die,Nicht,Wir,Bei,Im,Ihr,Die,Dass,Nicht,Am,Ich,Dort,100,Der,Außer,Im,Die,Die,Er,Ich,In,Er,Die,Als,Die,Mit,In,Wir,Wir,Das,Sie,Wir,Es,Sie,Die,In,Alle,Jungtiere,Wir,Sie,Die,Viele,Sie,Walter,Wir,Fernab,Bei,Die,Er,In,Ich,Viele,Es,Am,Wir,Sie,Bei,Wir,Die,Manche,100,Beträchtliche,Außer,In,Man,Er,Die,Sie,Jugendliche,Man,Mit,Jetzt,Die,In,Die,Außer,Es,Wir,Es,Sie,Danach,Die,Die,Die,Außer,Die,Dort,Bei,Er,,,,,,,,,,,,,,,,,,,,,,,13,0,13,0,0,0,0,0,,,,,,None,space,1.47712898254,,,,,,2017_Jan_27_1456,61.1385166603,spr_backupper,001,Fr15,
,Schuhe,Teilnehmerinnen,keinen,Eislaufbahnen,wurden,den,der,Gäste,Stücke,Schule,ein,konnten,der,Fernrohr,Blutdruck,Kinder,es,ein,äußeren,wurde,türmen,g,Flug,dem,Fernrohr,müden,Schule,wurde,nehme,den,hat,Uhr,die,Formen,dieser,der,haben,hatten,Tuch,hatte,haben,waren,verbrauchen,Uhr,einer,Betten,sollten,mussten,verbrauchen,Gäste,Tonnen,haben,Scheel,übergaben,des,unserer,Lösung,stellt,meinem,nehme,Tonnen,hat,äußersten,mussten,verlassen,der,übergaben,Linie,Kreditnehmer,g,Stücke,dem,meinem,machte,stellt,Schuhe,verlassen,können,machte,dieser,ist,Autos,diesem,Autos,das,waren,hatten,wurden,hatte,wurde,Kinder,"Uhr,",Stücke,den,Uhr,türmen,unserer,wurde,,,,,,,,,,,,,,,,,,,,,,,13,0,13,0,0,1,1,1,,,,,,,space,0.392233848572,,,,,,2017_Jan_27_1456,61.1385166603,spr_backupper,001,Fr15,
,in,wussten,Umständen,wurden,Eimer,Kakao,Tat,suchen,saftiges,verbraucht,Tropfen,dann,Feier,sahen,kann,fuhren,"regnete,",Tropfen,Rand,damals,sich,brauner,zum,Essen,sahen,Teilnehmer,verbraucht,trotz,eine,Kakao,ein,schlug,Sonne,wurden,Methode,Tat,jede,in,wurde,keine,jede,nur,60,schlug,Studie,wurden,immer,uns,60,suchen,gebrauchter,die,war,dem,Rummels,Ankunft,wird,die,Studium,eine,gebrauchte,uns,Rand,uns,wegen,Feier,das,101,sind,braunen,saftigen,Bürgermeister,Studium,mal,die,in,wegen,Kleidung,mal,Methode,genau,beider,Zirkus,beider,Essen,nur,in,Eimer,keine,die,fuhren,die,wurden,Bürgermeister,war,sich,Ankunft,trotz,,,,,,,,,,,,,,,,,,,,,,,13,0,13,0,0,2,2,2,,,,,,,space,0.394549846649,,,,,,2017_Jan_27_1456,61.1385166603,spr_backupper,001,Fr15,
,Größe,überwiegend,können,mit,roter,gehören,wissen,die,Fleisch,260.000,königlichen,mit,gedachte,wir,schon,mit,hat,königliches,der,schnell,Berge,Zucker,Mond,kann,wir,wurden,260.000,dem,große,gehören,Hemd,"sporadisch,","unterging,",unter,kann,wissen,Menge,Dänemark,dann,Lust,Menge,kleinere,Liter,"sporadisch,",wurde,mit,auf,durch,Liter,die,Kleidung,Erlebnisse,der,Mann,wurde,stand,mit,Masse,habe,große,Kleidung,die,der,durch,des,gedachte,Auto,hält,mit,Zuckers,Fleischs,beschuldigten,las,wieder,Masse,Größe,dem,bei,wieder,kann,die,beteiligten,werden,beteiligter,kann,kleinere,Dänemark,rote,Lust,Leinwand,mit,er,aus,beschuldigten,aus,Berge,stand,des,,,,,,,,,,,,,,,,,,,,,,,13,0,13,0,0,3,3,3,,,,,,,space,0.37838602066,,,,,,2017_Jan_27_1456,61.1385166603,spr_backupper,001,Fr15,
,36,"nicht,",Neuwahlen,dauerhaftem,Farbe,immer,wir,Wohnung,wurden,Kilowattstunden,Bluts,"minimalem,",man,den,bei,solch,uns,Blut,Stadt,dank,schmutziger,sind,dauerte,ich,den,mit,Kilowattstunden,bekannten,Packung,immer,aus,obschon,war,"regelmäßigem,",man,wir,alten,einen,mit,auf,alten,"Delikte,",sprudelnden,obwohl,jetzt,"üblichem,",warmem,Büschel,sprudelndes,Wohnung,landen,bei,vierte,das,schon,ein,"reichlichem,",mit,ich,Packung,landen,Stimmung,Stadt,Büschel,schönen,man,dem,nicht,"sämtlichem,",sind,wurden,die,ich,viel,mit,36,schönen,ausreichendem,viel,man,richtige,Fahrer,die,Fahrer,ich,"Delikte,",gelegentlich,Farbe,auf,aus,solchen,"trug,","wertvollem,",die,"Japan,",schmutzige,ein,bekannten,,,,,,,,,,,,,,,,,,,,,,,13,0,13,0,0,4,4,4,,,,,,,space,0.39008307457,,,,,,2017_Jan_27_1456,61.1385166603,spr_backupper,001,Fr15,
,würden,was,vor,feinem,geschleudert.,350,von,des,serviert.,elektrische,hat,sauberen,den,roten,minimalem,unzureichenden,die,hat,liegen,täglichem,Wäsche.,auf,ungefähr,leider,roten,zusätzlichem,elektrischer,Skandal,salzige,350,feinem,sie,die,kaltem,eine,um,Krams,gelegentlichen,"reichem,",noch,Kram,derer,Trinkwassers.,sie,"nachgewiesen,",harten,weichem,frischen,Trinkwasser.,des,im,"frischem,",Bundespräsident.,Auto,immer,Glas,purem,einem,mehr,salziger,im,ziemlich,liegen,frisches,Wetters,der,Mann,am,künftigem,auf,serviert.,Störenfriede,mehr,Lärm,einem,hätten,Wetter,monatlichem,Lärm,eine,"Zeit,",wurden,Tiere,wurden,leider,deren,einen,geschleudert.,noch,seltenem,unzureichenden,war,klassischen,Störenfriede,die,Wäsche.,Glas,Skandals,,,,,,,,,,,,,,,,,,,,,,,13,0,13,0,0,5,5,5,,,,,,,space,0.369230031967,,,,,,2017_Jan_27_1456,61.1385166603,spr_backupper,001,Fr15,
,seiner,Tupperware,Dezember,Kunsteis,nan,ml,den,Herrn,nan,Energie.,den,Kraftstoff,Soldaten,Planet,täglichen,Helmen,Stimmung,den,die,grünen,nan,jeden,drei,nichts,Planeten,schwarzem,Energie.,wiedergewählt.,Wurst,ml,dichten,defekt,Flut,Abduschen,große,die,aus,Besucher.,goldenen,eine,aus,sie,nan,defekt,dass,Schaumstoff,Untergrund,Grases,nan,Herrn,Müll.,kaltem,nan,mehr,ruhig,köstlicher,Alkohol,Esslöffel,als,Wurst,Müll.,"vermiest,",die,Gras,die,Soldaten,mehr,Hauptbahnhof.,Einkommen,jeden,nan,jeden.,als,um,Esslöffel,seiner,die,Taschengeld,um,große,um,verschrottet.,artgerecht,verschrottet.,nichts,sie,Besucher.,nan,eine,dichten,Helmen,aus,Schmuck,jeden.,er,nan,köstlichen,wiedergewählt.,,,,,,,,,,,,,,,,,,,,,,,13,0,13,0,0,6,6,6,,,,,,,space,0.403277873993,,,,,,2017_Jan_27_1456,61.1385166603,spr_backupper,001,Fr15,
,Frau,ist.,stattfinden.,eingesprüht.,nan,warme,Problemen,Gantenbeins.,nan,nan,Boden,fahren.,des,ganz,Einsatz,zur,ziemlich,Boden,Slums.,Tee,nan,Fall,Tage.,mitbringen.,ganz,Kaffee,nan,nan,mit,warmer,Stoff,war.,zurückgekehrt.,gehärtet.,Menge,Probleme,dem,nan,Besatz,Sammlung,dem,überführt,nan,war.,das,gefertigt.,liegen.,zwängen.,nan,Gantenbein.,nan,Saft,nan,als,diskutiert.,Wein,verdünnt.,warmen,einmal,mit,nan,dass,Slums.,zwängen.,Wohnung.,des,als,nan,haftbar.,Fall,nan,nan,einmal,jede,warmem,Frau,Wohnung.,selber,jede,Menge,Nadelhölzer,nan,gehalten.,nan,mitbringen.,überführt,nan,nan,Sammlung,Gewebe,zur,Japan.,umgearbeitet.,nan,trug.,nan,Weins,nan,,,,,,,,,,,,,,,,,,,,,,,13,0,13,0,0,7,7,7,,,,,,,space,0.595366001129,,,,,,2017_Jan_27_1456,61.1385166603,spr_backupper,001,Fr15,
,,,,,,,,,,,,,,,,,,,,,,,,,,,,,,,,,,,,,,,,,,,,,,,,,,,,,,,,,,,,,,,,,,,,,,,,,,,,,,,,,,,,,,,,,,,,,,,,,,,,,,,,,,,,,,,,,,,,,,,,,13,0,13,0,,,,,,,,,,,,,None,n,1.5937640667,,,2017_Jan_27_1456,61.1385166603,spr_backupper,001,Fr15,
,Die,Die,Unter,Die,Es,In,In,Die,Beträchtliche,Die,Nicht,Wir,Bei,Im,Ihr,Die,Dass,Nicht,Am,Ich,Dort,100,Der,Außer,Im,Die,Die,Er,Ich,In,Er,Die,Als,Die,Mit,In,Wir,Wir,Das,Sie,Wir,Es,Sie,Die,In,Alle,Jungtiere,Wir,Sie,Die,Viele,Sie,Walter,Wir,Fernab,Bei,Die,Er,In,Ich,Viele,Es,Am,Wir,Sie,Bei,Wir,Die,Manche,100,Beträchtliche,Außer,In,Man,Er,Die,Sie,Jugendliche,Man,Mit,Jetzt,Die,In,Die,Außer,Es,Wir,Es,Sie,Danach,Die,Die,Die,Außer,Die,Dort,Bei,Er,,,,,,,,,,,,,,,,,,,,,,,14,0,14,0,0,0,0,0,,,,,,None,space,0.352847099304,,,,,,2017_Jan_27_1456,61.1385166603,spr_backupper,001,Fr15,
,Schuhe,Teilnehmerinnen,keinen,Eislaufbahnen,wurden,den,der,Gäste,Stücke,Schule,ein,konnten,der,Fernrohr,Blutdruck,Kinder,es,ein,äußeren,wurde,türmen,g,Flug,dem,Fernrohr,müden,Schule,wurde,nehme,den,hat,Uhr,die,Formen,dieser,der,haben,hatten,Tuch,hatte,haben,waren,verbrauchen,Uhr,einer,Betten,sollten,mussten,verbrauchen,Gäste,Tonnen,haben,Scheel,übergaben,des,unserer,Lösung,stellt,meinem,nehme,Tonnen,hat,äußersten,mussten,verlassen,der,übergaben,Linie,Kreditnehmer,g,Stücke,dem,meinem,machte,stellt,Schuhe,verlassen,können,machte,dieser,ist,Autos,diesem,Autos,das,waren,hatten,wurden,hatte,wurde,Kinder,"Uhr,",Stücke,den,Uhr,türmen,unserer,wurde,,,,,,,,,,,,,,,,,,,,,,,14,0,14,0,0,1,1,1,,,,,,,space,0.373988866806,,,,,,2017_Jan_27_1456,61.1385166603,spr_backupper,001,Fr15,
,in,wussten,Umständen,wurden,Eimer,Kakao,Tat,suchen,saftiges,verbraucht,Tropfen,dann,Feier,sahen,kann,fuhren,"regnete,",Tropfen,Rand,damals,sich,brauner,zum,Essen,sahen,Teilnehmer,verbraucht,trotz,eine,Kakao,ein,schlug,Sonne,wurden,Methode,Tat,jede,in,wurde,keine,jede,nur,60,schlug,Studie,wurden,immer,uns,60,suchen,gebrauchter,die,war,dem,Rummels,Ankunft,wird,die,Studium,eine,gebrauchte,uns,Rand,uns,wegen,Feier,das,101,sind,braunen,saftigen,Bürgermeister,Studium,mal,die,in,wegen,Kleidung,mal,Methode,genau,beider,Zirkus,beider,Essen,nur,in,Eimer,keine,die,fuhren,die,wurden,Bürgermeister,war,sich,Ankunft,trotz,,,,,,,,,,,,,,,,,,,,,,,14,0,14,0,0,2,2,2,,,,,,,space,0.487804174423,,,,,,2017_Jan_27_1456,61.1385166603,spr_backupper,001,Fr15,
,Größe,überwiegend,können,mit,roter,gehören,wissen,die,Fleisch,260.000,königlichen,mit,gedachte,wir,schon,mit,hat,königliches,der,schnell,Berge,Zucker,Mond,kann,wir,wurden,260.000,dem,große,gehören,Hemd,"sporadisch,","unterging,",unter,kann,wissen,Menge,Dänemark,dann,Lust,Menge,kleinere,Liter,"sporadisch,",wurde,mit,auf,durch,Liter,die,Kleidung,Erlebnisse,der,Mann,wurde,stand,mit,Masse,habe,große,Kleidung,die,der,durch,des,gedachte,Auto,hält,mit,Zuckers,Fleischs,beschuldigten,las,wieder,Masse,Größe,dem,bei,wieder,kann,die,beteiligten,werden,beteiligter,kann,kleinere,Dänemark,rote,Lust,Leinwand,mit,er,aus,beschuldigten,aus,Berge,stand,des,,,,,,,,,,,,,,,,,,,,,,,14,0,14,0,0,3,3,3,,,,,,,space,0.349642038345,,,,,,2017_Jan_27_1456,61.1385166603,spr_backupper,001,Fr15,
,36,"nicht,",Neuwahlen,dauerhaftem,Farbe,immer,wir,Wohnung,wurden,Kilowattstunden,Bluts,"minimalem,",man,den,bei,solch,uns,Blut,Stadt,dank,schmutziger,sind,dauerte,ich,den,mit,Kilowattstunden,bekannten,Packung,immer,aus,obschon,war,"regelmäßigem,",man,wir,alten,einen,mit,auf,alten,"Delikte,",sprudelnden,obwohl,jetzt,"üblichem,",warmem,Büschel,sprudelndes,Wohnung,landen,bei,vierte,das,schon,ein,"reichlichem,",mit,ich,Packung,landen,Stimmung,Stadt,Büschel,schönen,man,dem,nicht,"sämtlichem,",sind,wurden,die,ich,viel,mit,36,schönen,ausreichendem,viel,man,richtige,Fahrer,die,Fahrer,ich,"Delikte,",gelegentlich,Farbe,auf,aus,solchen,"trug,","wertvollem,",die,"Japan,",schmutzige,ein,bekannten,,,,,,,,,,,,,,,,,,,,,,,14,0,14,0,0,4,4,4,,,,,,,space,0.513695001602,,,,,,2017_Jan_27_1456,61.1385166603,spr_backupper,001,Fr15,
,würden,was,vor,feinem,geschleudert.,350,von,des,serviert.,elektrische,hat,sauberen,den,roten,minimalem,unzureichenden,die,hat,liegen,täglichem,Wäsche.,auf,ungefähr,leider,roten,zusätzlichem,elektrischer,Skandal,salzige,350,feinem,sie,die,kaltem,eine,um,Krams,gelegentlichen,"reichem,",noch,Kram,derer,Trinkwassers.,sie,"nachgewiesen,",harten,weichem,frischen,Trinkwasser.,des,im,"frischem,",Bundespräsident.,Auto,immer,Glas,purem,einem,mehr,salziger,im,ziemlich,liegen,frisches,Wetters,der,Mann,am,künftigem,auf,serviert.,Störenfriede,mehr,Lärm,einem,hätten,Wetter,monatlichem,Lärm,eine,"Zeit,",wurden,Tiere,wurden,leider,deren,einen,geschleudert.,noch,seltenem,unzureichenden,war,klassischen,Störenfriede,die,Wäsche.,Glas,Skandals,,,,,,,,,,,,,,,,,,,,,,,14,0,14,0,0,5,5,5,,,,,,,space,0.453274965286,,,,,,2017_Jan_27_1456,61.1385166603,spr_backupper,001,Fr15,
,seiner,Tupperware,Dezember,Kunsteis,nan,ml,den,Herrn,nan,Energie.,den,Kraftstoff,Soldaten,Planet,täglichen,Helmen,Stimmung,den,die,grünen,nan,jeden,drei,nichts,Planeten,schwarzem,Energie.,wiedergewählt.,Wurst,ml,dichten,defekt,Flut,Abduschen,große,die,aus,Besucher.,goldenen,eine,aus,sie,nan,defekt,dass,Schaumstoff,Untergrund,Grases,nan,Herrn,Müll.,kaltem,nan,mehr,ruhig,köstlicher,Alkohol,Esslöffel,als,Wurst,Müll.,"vermiest,",die,Gras,die,Soldaten,mehr,Hauptbahnhof.,Einkommen,jeden,nan,jeden.,als,um,Esslöffel,seiner,die,Taschengeld,um,große,um,verschrottet.,artgerecht,verschrottet.,nichts,sie,Besucher.,nan,eine,dichten,Helmen,aus,Schmuck,jeden.,er,nan,köstlichen,wiedergewählt.,,,,,,,,,,,,,,,,,,,,,,,14,0,14,0,0,6,6,6,,,,,,,space,0.438266038895,,,,,,2017_Jan_27_1456,61.1385166603,spr_backupper,001,Fr15,
,Frau,ist.,stattfinden.,eingesprüht.,nan,warme,Problemen,Gantenbeins.,nan,nan,Boden,fahren.,des,ganz,Einsatz,zur,ziemlich,Boden,Slums.,Tee,nan,Fall,Tage.,mitbringen.,ganz,Kaffee,nan,nan,mit,warmer,Stoff,war.,zurückgekehrt.,gehärtet.,Menge,Probleme,dem,nan,Besatz,Sammlung,dem,überführt,nan,war.,das,gefertigt.,liegen.,zwängen.,nan,Gantenbein.,nan,Saft,nan,als,diskutiert.,Wein,verdünnt.,warmen,einmal,mit,nan,dass,Slums.,zwängen.,Wohnung.,des,als,nan,haftbar.,Fall,nan,nan,einmal,jede,warmem,Frau,Wohnung.,selber,jede,Menge,Nadelhölzer,nan,gehalten.,nan,mitbringen.,überführt,nan,nan,Sammlung,Gewebe,zur,Japan.,umgearbeitet.,nan,trug.,nan,Weins,nan,,,,,,,,,,,,,,,,,,,,,,,14,0,14,0,0,7,7,7,,,,,,,space,0.43327999115,,,,,,2017_Jan_27_1456,61.1385166603,spr_backupper,001,Fr15,
,,,,,,,,,,,,,,,,,,,,,,,,,,,,,,,,,,,,,,,,,,,,,,,,,,,,,,,,,,,,,,,,,,,,,,,,,,,,,,,,,,,,,,,,,,,,,,,,,,,,,,,,,,,,,,,,,,,,,,,,,14,0,14,0,,,,,,,,,,,,,None,j,3.9438958168,,,2017_Jan_27_1456,61.1385166603,spr_backupper,001,Fr15,
,Die,Die,Unter,Die,Es,In,In,Die,Beträchtliche,Die,Nicht,Wir,Bei,Im,Ihr,Die,Dass,Nicht,Am,Ich,Dort,100,Der,Außer,Im,Die,Die,Er,Ich,In,Er,Die,Als,Die,Mit,In,Wir,Wir,Das,Sie,Wir,Es,Sie,Die,In,Alle,Jungtiere,Wir,Sie,Die,Viele,Sie,Walter,Wir,Fernab,Bei,Die,Er,In,Ich,Viele,Es,Am,Wir,Sie,Bei,Wir,Die,Manche,100,Beträchtliche,Außer,In,Man,Er,Die,Sie,Jugendliche,Man,Mit,Jetzt,Die,In,Die,Außer,Es,Wir,Es,Sie,Danach,Die,Die,Die,Außer,Die,Dort,Bei,Er,,,,,,,,,,,,,,,,,,,,,,,15,0,15,0,0,0,0,0,,,,,,None,space,0.711245059967,,,,,,2017_Jan_27_1456,61.1385166603,spr_backupper,001,Fr15,
