text,sent48,sent9,sent8,sent15,sent3,sent2,sent1,sent14,sent7,sent6,sent5,sent4,sent57,sent56,sent55,sent54,sent53,sent52,sent51,sent50,sent13,sent12,sent11,sent10,sent17,sent16,sent59,sent58,sent93,sent92,sent91,sent90,sent97,sent96,sent95,sent94,sent98,sent22,sent23,sent20,sent21,sent26,sent27,sent24,sent25,sent28,sent29,sent68,sent69,sent66,sent67,sent64,sent65,sent62,sent63,sent60,sent61,sent31,sent30,sent33,sent32,sent35,sent34,sent37,sent36,sent39,sent38,sent79,sent78,sent75,sent74,sent77,sent76,sent71,sent70,sent73,sent72,sent19,sent49,sent18,sent44,sent45,sent84,sent85,sent86,sent87,sent80,sent81,sent82,sent83,sent40,sent41,sent42,sent43,sent88,sent89,sent46,sent47,intros.thisRepN,intros.thisTrialN,intros.thisN,intros.thisIndex,trials.thisRepN,trials.thisTrialN,trials.thisN,trials.thisIndex,testWords.thisRepN,testWords.thisTrialN,testWords.thisN,testWords.thisIndex,test1,test3,test2,test5,test4,test7,test6,test9,test8,test10,realTrials.thisRepN,realTrials.thisTrialN,realTrials.thisN,realTrials.thisIndex,words.thisRepN,words.thisTrialN,words.thisN,words.thisIndex,key_resp_3.keys,key_resp_3.rt,key_resp_8.keys,key_resp_8.rt,key_resp_10.keys,key_resp_10.rt,key_resp_6.keys,wordRead.keys,wordRead.rt,key_resp_5.keys,key_resp_5.rt,questAnswer.keys,questAnswer.rt,key_resp_6.rt,date,frameRate,expName,session,participant,
"Vielen Dank, dass Sie an diesem Experiment teilnehmen. Vor dem eigentlichen Experiment sehen Sie nun zuerst eine kurze Erläuterung, und Sie absolvieren ein kurze Übungsphase.

Das Experiment dauert insgesamt nicht mehr als 45 Minuten.",,,,,,,,,,,,,,,,,,,,,,,,,,,,,,,,,,,,,,,,,,,,,,,,,,,,,,,,,,,,,,,,,,,,,,,,,,,,,,,,,,,,,,,,,,,,,,,,,,,0,0,0,0,,,,,,,,,,,,,,,,,,,,,,,,,,,,,,,,,,,,,,,,,2017_Jan_30_1343,59.6114592379,spr_backupper,001,Fr18,
"In diesem Experiment lesen Sie deutsche Sätze, indem Sie sich von Wort zu Wort mit der Leertaste durch den Satz klicken.",,,,,,,,,,,,,,,,,,,,,,,,,,,,,,,,,,,,,,,,,,,,,,,,,,,,,,,,,,,,,,,,,,,,,,,,,,,,,,,,,,,,,,,,,,,,,,,,,,,0,1,1,1,,,,,,,,,,,,,,,,,,,,,,,,,,,,,,,,,,,,,,,,,2017_Jan_30_1343,59.6114592379,spr_backupper,001,Fr18,
"Sie sehen dabei immer nur das aktuelle Wort. Die Lesegeschwindigkeit bestimmen Sie vollständig selber. Vor jedem Satz sehen Sie in der Bildschirmmitte für zwei Sekunden ein + an der Stelle, an der dann die Wörter erscheinen.",,,,,,,,,,,,,,,,,,,,,,,,,,,,,,,,,,,,,,,,,,,,,,,,,,,,,,,,,,,,,,,,,,,,,,,,,,,,,,,,,,,,,,,,,,,,,,,,,,,0,2,2,2,,,,,,,,,,,,,,,,,,,,,,,,,,,,,,,,,,,,,,,,,2017_Jan_30_1343,59.6114592379,spr_backupper,001,Fr18,
"Nach jedem Satz wird Ihnen eine Ja/Nein-Verständnisfrage zum zuvor gelesenen Satz gestellt, die Sie mit der J-Taste für "Ja" und der N-Taste für "Nein" beantworten. Antworten Sie möglichst spontan und ohne lange Nachzudenken.",,,,,,,,,,,,,,,,,,,,,,,,,,,,,,,,,,,,,,,,,,,,,,,,,,,,,,,,,,,,,,,,,,,,,,,,,,,,,,,,,,,,,,,,,,,,,,,,,,,0,3,3,3,,,,,,,,,,,,,,,,,,,,,,,,,,,,,,,,,,,,,,,,,2017_Jan_30_1343,59.6114592379,spr_backupper,001,Fr18,
"Unterbrechen Sie das Experiment bitte auf keinen Fall, stellen Sie den ExperimentatorInnen nach dem Experimentbeginn keine Fragen, und lassen Sie sich nicht durch Umgebungsgeräusche ablenken.",,,,,,,,,,,,,,,,,,,,,,,,,,,,,,,,,,,,,,,,,,,,,,,,,,,,,,,,,,,,,,,,,,,,,,,,,,,,,,,,,,,,,,,,,,,,,,,,,,,0,4,4,4,,,,,,,,,,,,,,,,,,,,,,,,,,,,,,,,,,,,,,,,,2017_Jan_30_1343,59.6114592379,spr_backupper,001,Fr18,
"Im nächsten Schritt beantworten Sie bitte eine Frage zu Ihren Deutschkenntnissen. Danach beginnt eine Übungseinheit, mit der Sie sich an die Art der Durchführung dieses Experiments gewöhnen können.",,,,,,,,,,,,,,,,,,,,,,,,,,,,,,,,,,,,,,,,,,,,,,,,,,,,,,,,,,,,,,,,,,,,,,,,,,,,,,,,,,,,,,,,,,,,,,,,,,,0,5,5,5,,,,,,,,,,,,,,,,,,,,,,,,,,,,,,,,,,,,,,,,,2017_Jan_30_1343,59.6114592379,spr_backupper,001,Fr18,
,,,,,,,,,,,,,,,,,,,,,,,,,,,,,,,,,,,,,,,,,,,,,,,,,,,,,,,,,,,,,,,,,,,,,,,,,,,,,,,,,,,,,,,,,,,,,,,,,,,,,,,,,,,,,,,,,,,,,,,,,,,,,,,,,j,14.169506073,,,,,,,,,,,,,2017_Jan_30_1343,59.6114592379,spr_backupper,001,Fr18,
,,,,,,,,,,,,,,,,,,,,,,,,,,,,,,,,,,,,,,,,,,,,,,,,,,,,,,,,,,,,,,,,,,,,,,,,,,,,,,,,,,,,,,,,,,,,,,,,,,,,,,,0,0,0,0,,,,,,,,,,,,,,,,,,,,,,,,,None,,,,,,,,,,,,2017_Jan_30_1343,59.6114592379,spr_backupper,001,Fr18,
,,,,,,,,,,,,,,,,,,,,,,,,,,,,,,,,,,,,,,,,,,,,,,,,,,,,,,,,,,,,,,,,,,,,,,,,,,,,,,,,,,,,,,,,,,,,,,,,,,,,,,,1,0,1,0,,,,,,,,,,,,,,,,,,,,,,,,,None,,,,,,,,,,,,2017_Jan_30_1343,59.6114592379,spr_backupper,001,Fr18,
,,,,,,,,,,,,,,,,,,,,,,,,,,,,,,,,,,,,,,,,,,,,,,,,,,,,,,,,,,,,,,,,,,,,,,,,,,,,,,,,,,,,,,,,,,,,,,,,,,,,,,,2,0,2,0,,,,,,,,,,,,,,,,,,,,,,,,,None,,,,,,,,,,,,2017_Jan_30_1343,59.6114592379,spr_backupper,001,Fr18,
,,,,,,,,,,,,,,,,,,,,,,,,,,,,,,,,,,,,,,,,,,,,,,,,,,,,,,,,,,,,,,,,,,,,,,,,,,,,,,,,,,,,,,,,,,,,,,,,,,,,,,,3,0,3,0,,,,,,,,,,,,,,,,,,,,,,,,,space,1.3590400219,,,,,,,,,,,2017_Jan_30_1343,59.6114592379,spr_backupper,001,Fr18,
,,,,,,,,,,,,,,,,,,,,,,,,,,,,,,,,,,,,,,,,,,,,,,,,,,,,,,,,,,,,,,,,,,,,,,,,,,,,,,,,,,,,,,,,,,,,,,,,,,,,,,,4,0,4,0,,,,,,,,,,,,,,,,,,,,,,,,,space,0.888813018799,,,,,,,,,,,2017_Jan_30_1343,59.6114592379,spr_backupper,001,Fr18,
,,,,,,,,,,,,,,,,,,,,,,,,,,,,,,,,,,,,,,,,,,,,,,,,,,,,,,,,,,,,,,,,,,,,,,,,,,,,,,,,,,,,,,,,,,,,,,,,,,,,,,,5,0,5,0,,,,,,,,,,,,,,,,,,,,,,,,,space,1.09006285667,,,,,,,,,,,2017_Jan_30_1343,59.6114592379,spr_backupper,001,Fr18,
,,,,,,,,,,,,,,,,,,,,,,,,,,,,,,,,,,,,,,,,,,,,,,,,,,,,,,,,,,,,,,,,,,,,,,,,,,,,,,,,,,,,,,,,,,,,,,,,,,,,,,,6,0,6,0,,,,,,,,,,,,,,,,,,,,,,,,,space,0.923534154892,,,,,,,,,,,2017_Jan_30_1343,59.6114592379,spr_backupper,001,Fr18,
,,,,,,,,,,,,,,,,,,,,,,,,,,,,,,,,,,,,,,,,,,,,,,,,,,,,,,,,,,,,,,,,,,,,,,,,,,,,,,,,,,,,,,,,,,,,,,,,,,,,,,,7,0,7,0,,,,,,,,,,,,,,,,,,,,,,,,,space,0.940200805664,,,,,,,,,,,2017_Jan_30_1343,59.6114592379,spr_backupper,001,Fr18,
,,,,,,,,,,,,,,,,,,,,,,,,,,,,,,,,,,,,,,,,,,,,,,,,,,,,,,,,,,,,,,,,,,,,,,,,,,,,,,,,,,,,,,,,,,,,,,,,,,,,,,,8,0,8,0,,,,,,,,,,,,,,,,,,,,,,,,,space,0.738271951675,,,,,,,,,,,2017_Jan_30_1343,59.6114592379,spr_backupper,001,Fr18,
,,,,,,,,,,,,,,,,,,,,,,,,,,,,,,,,,,,,,,,,,,,,,,,,,,,,,,,,,,,,,,,,,,,,,,,,,,,,,,,,,,,,,,,,,,,,,,,,,,,,,,,9,0,9,0,,,,,,,,,,,,,,,,,,,,,,,,,space,1.2581808567,,,,,,,,,,,2017_Jan_30_1343,59.6114592379,spr_backupper,001,Fr18,
,,,,,,,,,,,,,,,,,,,,,,,,,,,,,,,,,,,,,,,,,,,,,,,,,,,,,,,,,,,,,,,,,,,,,,,,,,,,,,,,,,,,,,,,,,,,,,,,,,,,,,,,,,,,,,,,,,,,,,,,,,,,,,,,,,,,,space,0.269091129303,,,,,,,,,2017_Jan_30_1343,59.6114592379,spr_backupper,001,Fr18,
,Bei,Sie,Die,Die,Ich,Danach,Ihr,Die,Walter,Im,Nicht,Sie,In,Beträchtliche,Sie,Es,Wir,Die,Der,Es,Die,Die,Sie,Außer,In,Man,Wir,Am,Die,In,Die,Mit,Die,Es,Bei,Jugendliche,Die,Ich,100,Er,Wir,Manche,Wir,Es,Bei,Die,Mit,Im,Die,Alle,Das,Jetzt,Er,Außer,Sie,Er,Unter,Fernab,Viele,Wir,Als,Die,Er,Die,In,Sie,Beträchtliche,Die,In,Jungtiere,Die,Die,100,Die,In,Die,Sie,Wir,Dass,In,In,Außer,Wir,Bei,Außer,Dort,Nicht,Wir,Viele,Wir,Die,Dort,Er,Die,Man,Ich,Am,Es,,,,,,,,,,,,,,,,,,,,,,,0,0,0,0,0,0,0,0,,,,,,,None,space,4.02564287186,,,,,,2017_Jan_30_1343,59.6114592379,spr_backupper,001,Fr18,
,der,verlassen,Schule,Uhr,nehme,wurde,Blutdruck,Schuhe,Scheel,Fernrohr,ein,verbrauchen,einer,Stücke,hatte,waren,mussten,"Uhr,",Flug,wurden,Uhr,Lösung,haben,das,meinem,machte,hatten,äußersten,Gäste,meinem,Kinder,dieser,Stücke,hat,unserer,können,müden,wurde,g,wurde,haben,Kreditnehmer,hatten,waren,unserer,Gäste,dieser,Fernrohr,Autos,Betten,Tuch,ist,wurde,den,verlassen,stellt,keinen,des,Tonnen,übergaben,die,Linie,stellt,Autos,diesem,hatte,Stücke,Teilnehmerinnen,der,sollten,Schuhe,Eislaufbahnen,g,Uhr,den,Schule,verbrauchen,mussten,es,den,der,dem,haben,der,dem,türmen,ein,übergaben,Tonnen,konnten,Kinder,türmen,hat,Formen,machte,nehme,äußeren,wurden,,,,,,,,,,,,,,,,,,,,,,,0,0,0,0,0,1,1,1,,,,,,,,space,2.16748905182,,,,,,2017_Jan_30_1343,59.6114592379,spr_backupper,001,Fr18,
,Feier,wegen,verbraucht,schlug,eine,die,kann,in,war,sahen,Tropfen,60,Studie,saftiges,keine,nur,uns,die,zum,Eimer,war,wird,die,Essen,Studium,mal,in,Rand,suchen,Studium,fuhren,Methode,wurden,uns,Ankunft,Kleidung,Teilnehmer,damals,braunen,trotz,jede,sind,in,nur,Ankunft,suchen,Methode,sahen,beider,wurden,wurde,genau,trotz,Bürgermeister,wegen,die,Umständen,Rummels,gebrauchter,dem,Sonne,101,die,beider,Zirkus,keine,saftigen,wussten,Tat,immer,in,wurden,brauner,schlug,Kakao,verbraucht,60,uns,"regnete,",Kakao,Tat,Bürgermeister,jede,Feier,Essen,sich,Tropfen,das,gebrauchte,dann,fuhren,sich,ein,wurden,mal,eine,Rand,Eimer,,,,,,,,,,,,,,,,,,,,,,,0,0,0,0,0,2,2,2,,,,,,,,space,0.631630897522,,,,,,2017_Jan_30_1343,59.6114592379,spr_backupper,001,Fr18,
,gedachte,dem,260.000,"sporadisch,",große,Leinwand,schon,Größe,der,wir,königliches,Liter,wurde,Fleisch,Lust,kleinere,durch,er,Mond,roter,aus,mit,Erlebnisse,kann,las,wieder,Dänemark,der,die,habe,mit,kann,aus,die,stand,bei,wurden,schnell,Zuckers,dem,Menge,mit,Dänemark,kleinere,stand,die,kann,wir,beteiligten,mit,dann,die,des,beschuldigten,des,Masse,können,wurde,Kleidung,Mann,"unterging,",hält,Masse,beteiligter,werden,Lust,Fleischs,überwiegend,wissen,auf,Größe,mit,Zucker,"sporadisch,",gehören,260.000,Liter,durch,hat,gehören,wissen,beschuldigten,Menge,gedachte,kann,Berge,königlichen,Auto,Kleidung,mit,mit,Berge,Hemd,unter,wieder,große,der,rote,,,,,,,,,,,,,,,,,,,,,,,0,0,0,0,0,3,3,3,,,,,,,,space,0.486392021179,,,,,,2017_Jan_30_1343,59.6114592379,spr_backupper,001,Fr18,
,man,schönen,Kilowattstunden,obschon,Packung,aus,bei,36,vierte,den,Blut,sprudelndes,jetzt,wurden,auf,"Delikte,",Büschel,"trug,",dauerte,Farbe,"Japan,","reichlichem,",bei,ich,ich,viel,einen,Stadt,Wohnung,ich,solchen,man,"wertvollem,",Stimmung,ein,ausreichendem,mit,dank,sind,bekannten,alten,"sämtlichem,",gelegentlich,"Delikte,",ein,Wohnung,man,den,Fahrer,"üblichem,",mit,richtige,bekannten,die,schönen,mit,Neuwahlen,schon,landen,das,war,nicht,mit,Fahrer,die,auf,wurden,"nicht,",wir,warmem,36,dauerhaftem,sind,obwohl,immer,Kilowattstunden,sprudelnden,Büschel,uns,immer,wir,die,alten,man,ich,schmutziger,Bluts,dem,landen,"minimalem,",solch,schmutzige,aus,"regelmäßigem,",viel,Packung,Stadt,Farbe,,,,,,,,,,,,,,,,,,,,,,,0,0,0,0,0,4,4,4,,,,,,,,space,0.402409076691,,,,,,2017_Jan_30_1343,59.6114592379,spr_backupper,001,Fr18,
,den,Wetter,elektrischer,sie,salzige,seltenem,minimalem,hätten,Bundespräsident.,roten,hat,Trinkwasser.,"nachgewiesen,",serviert.,noch,derer,frisches,war,ungefähr,geschleudert.,die,purem,"frischem,",leider,mehr,Lärm,gelegentlichen,liegen,des,mehr,unzureichenden,eine,klassischen,ziemlich,Glas,monatlichem,zusätzlichem,täglichem,auf,Skandal,Krams,künftigem,einen,deren,Glas,des,eine,roten,wurden,harten,"reichem,","Zeit,",Skandals,Störenfriede,Wetters,einem,vor,immer,im,Auto,die,am,einem,wurden,Tiere,noch,serviert.,was,von,weichem,würden,feinem,auf,sie,350,elektrische,Trinkwassers.,frischen,die,350,um,Störenfriede,Kram,der,leider,Wäsche.,hat,Mann,im,sauberen,unzureichenden,Wäsche.,feinem,kaltem,Lärm,salziger,liegen,geschleudert.,,,,,,,,,,,,,,,,,,,,,,,0,0,0,0,0,5,5,5,,,,,,,,space,0.474375963211,,,,,,2017_Jan_30_1343,59.6114592379,spr_backupper,001,Fr18,
,Soldaten,die,Energie.,defekt,Wurst,dichten,täglichen,seiner,nan,Planet,den,nan,dass,nan,eine,sie,Gras,aus,drei,nan,er,Alkohol,kaltem,nichts,als,um,Besucher.,die,Herrn,als,Helmen,große,Schmuck,"vermiest,",köstlichen,Taschengeld,schwarzem,grünen,jeden,wiedergewählt.,aus,Einkommen,Besucher.,sie,köstlicher,Herrn,große,Planeten,verschrottet.,Schaumstoff,goldenen,um,wiedergewählt.,jeden.,die,Esslöffel,Dezember,ruhig,Müll.,mehr,Flut,Hauptbahnhof.,Esslöffel,verschrottet.,artgerecht,eine,nan,Tupperware,den,Untergrund,seiner,Kunsteis,jeden,defekt,ml,Energie.,nan,Grases,Stimmung,ml,die,jeden.,aus,Soldaten,nichts,nan,den,mehr,Müll.,Kraftstoff,Helmen,nan,dichten,Abduschen,um,Wurst,die,nan,,,,,,,,,,,,,,,,,,,,,,,0,0,0,0,0,6,6,6,,,,,,,,space,0.490653038025,,,,,,2017_Jan_30_1343,59.6114592379,spr_backupper,001,Fr18,
,des,Wohnung.,nan,war.,mit,Gewebe,Einsatz,Frau,nan,ganz,Boden,nan,das,nan,Sammlung,überführt,zwängen.,Japan.,Tage.,nan,trug.,verdünnt.,Saft,mitbringen.,einmal,jede,nan,Slums.,Gantenbeins.,einmal,zur,Menge,umgearbeitet.,dass,Weins,selber,Kaffee,Tee,Fall,nan,dem,haftbar.,nan,überführt,Wein,Gantenbein.,Menge,ganz,nan,gefertigt.,Besatz,Nadelhölzer,nan,nan,Wohnung.,warmen,stattfinden.,diskutiert.,nan,als,zurückgekehrt.,nan,warmem,nan,gehalten.,Sammlung,nan,ist.,Problemen,liegen.,Frau,eingesprüht.,Fall,war.,warme,nan,nan,zwängen.,ziemlich,warmer,Probleme,nan,dem,des,mitbringen.,nan,Boden,als,nan,fahren.,zur,nan,Stoff,gehärtet.,jede,mit,Slums.,nan,,,,,,,,,,,,,,,,,,,,,,,0,0,0,0,0,7,7,7,,,,,,,,space,0.459813117981,,,,,,2017_Jan_30_1343,59.6114592379,spr_backupper,001,Fr18,
,zweiten,nan,nan,nan,an,wiederhergestellt.,sinken.,gepasst.,nan,deutlich.,berührt.,nan,Medikament,nan,dumme,wurden.,nan,nan,nan,nan,nan,nan,besprochen.,nan,Rilke.,Menge,nan,nan,nan,Rilke,Schule.,dunkle,nan,es,schon,kaufen.,wiederbelebt.,wieder,genug.,nan,Haus,nan,nan,wurden.,schon,nan,dunkler,deutlich.,nan,nan,rekonstruiert.,umzusetzen.,nan,nan,nan,Honigs,nan,nan,nan,gerne.,nan,nan,Honig,nan,nan,dummer,nan,nan,im,nan,gepasst,nan,genug.,nan,Milch.,nan,nan,nan,vermiest.,Milch.,im,nan,Haus,zweiten,nan,nan,berührt.,gerne.,nan,nan,Schule.,nan,gefertigt.,nan,Menge,an,nan,nan,,,,,,,,,,,,,,,,,,,,,,,0,0,0,0,0,8,8,8,,,,,,,,space,0.83346581459,,,,,,2017_Jan_30_1343,59.6114592379,spr_backupper,001,Fr18,
,,,,,,,,,,,,,,,,,,,,,,,,,,,,,,,,,,,,,,,,,,,,,,,,,,,,,,,,,,,,,,,,,,,,,,,,,,,,,,,,,,,,,,,,,,,,,,,,,,,,,,,,,,,,,,,,,,,,,,,,,0,0,0,0,,,,,,,,,,,,,,space,0.788513898849,j,9.55074715614,,2017_Jan_30_1343,59.6114592379,spr_backupper,001,Fr18,
,Bei,Sie,Die,Die,Ich,Danach,Ihr,Die,Walter,Im,Nicht,Sie,In,Beträchtliche,Sie,Es,Wir,Die,Der,Es,Die,Die,Sie,Außer,In,Man,Wir,Am,Die,In,Die,Mit,Die,Es,Bei,Jugendliche,Die,Ich,100,Er,Wir,Manche,Wir,Es,Bei,Die,Mit,Im,Die,Alle,Das,Jetzt,Er,Außer,Sie,Er,Unter,Fernab,Viele,Wir,Als,Die,Er,Die,In,Sie,Beträchtliche,Die,In,Jungtiere,Die,Die,100,Die,In,Die,Sie,Wir,Dass,In,In,Außer,Wir,Bei,Außer,Dort,Nicht,Wir,Viele,Wir,Die,Dort,Er,Die,Man,Ich,Am,Es,,,,,,,,,,,,,,,,,,,,,,,1,0,1,0,0,0,0,0,,,,,,,space,space,0.453547954559,,,,,1.30849289894,2017_Jan_30_1343,59.6114592379,spr_backupper,001,Fr18,
,der,verlassen,Schule,Uhr,nehme,wurde,Blutdruck,Schuhe,Scheel,Fernrohr,ein,verbrauchen,einer,Stücke,hatte,waren,mussten,"Uhr,",Flug,wurden,Uhr,Lösung,haben,das,meinem,machte,hatten,äußersten,Gäste,meinem,Kinder,dieser,Stücke,hat,unserer,können,müden,wurde,g,wurde,haben,Kreditnehmer,hatten,waren,unserer,Gäste,dieser,Fernrohr,Autos,Betten,Tuch,ist,wurde,den,verlassen,stellt,keinen,des,Tonnen,übergaben,die,Linie,stellt,Autos,diesem,hatte,Stücke,Teilnehmerinnen,der,sollten,Schuhe,Eislaufbahnen,g,Uhr,den,Schule,verbrauchen,mussten,es,den,der,dem,haben,der,dem,türmen,ein,übergaben,Tonnen,konnten,Kinder,türmen,hat,Formen,machte,nehme,äußeren,wurden,,,,,,,,,,,,,,,,,,,,,,,1,0,1,0,0,1,1,1,,,,,,,,space,0.515376091003,,,,,,2017_Jan_30_1343,59.6114592379,spr_backupper,001,Fr18,
,Feier,wegen,verbraucht,schlug,eine,die,kann,in,war,sahen,Tropfen,60,Studie,saftiges,keine,nur,uns,die,zum,Eimer,war,wird,die,Essen,Studium,mal,in,Rand,suchen,Studium,fuhren,Methode,wurden,uns,Ankunft,Kleidung,Teilnehmer,damals,braunen,trotz,jede,sind,in,nur,Ankunft,suchen,Methode,sahen,beider,wurden,wurde,genau,trotz,Bürgermeister,wegen,die,Umständen,Rummels,gebrauchter,dem,Sonne,101,die,beider,Zirkus,keine,saftigen,wussten,Tat,immer,in,wurden,brauner,schlug,Kakao,verbraucht,60,uns,"regnete,",Kakao,Tat,Bürgermeister,jede,Feier,Essen,sich,Tropfen,das,gebrauchte,dann,fuhren,sich,ein,wurden,mal,eine,Rand,Eimer,,,,,,,,,,,,,,,,,,,,,,,1,0,1,0,0,2,2,2,,,,,,,,space,0.326529026031,,,,,,2017_Jan_30_1343,59.6114592379,spr_backupper,001,Fr18,
,gedachte,dem,260.000,"sporadisch,",große,Leinwand,schon,Größe,der,wir,königliches,Liter,wurde,Fleisch,Lust,kleinere,durch,er,Mond,roter,aus,mit,Erlebnisse,kann,las,wieder,Dänemark,der,die,habe,mit,kann,aus,die,stand,bei,wurden,schnell,Zuckers,dem,Menge,mit,Dänemark,kleinere,stand,die,kann,wir,beteiligten,mit,dann,die,des,beschuldigten,des,Masse,können,wurde,Kleidung,Mann,"unterging,",hält,Masse,beteiligter,werden,Lust,Fleischs,überwiegend,wissen,auf,Größe,mit,Zucker,"sporadisch,",gehören,260.000,Liter,durch,hat,gehören,wissen,beschuldigten,Menge,gedachte,kann,Berge,königlichen,Auto,Kleidung,mit,mit,Berge,Hemd,unter,wieder,große,der,rote,,,,,,,,,,,,,,,,,,,,,,,1,0,1,0,0,3,3,3,,,,,,,,space,0.453752040863,,,,,,2017_Jan_30_1343,59.6114592379,spr_backupper,001,Fr18,
,man,schönen,Kilowattstunden,obschon,Packung,aus,bei,36,vierte,den,Blut,sprudelndes,jetzt,wurden,auf,"Delikte,",Büschel,"trug,",dauerte,Farbe,"Japan,","reichlichem,",bei,ich,ich,viel,einen,Stadt,Wohnung,ich,solchen,man,"wertvollem,",Stimmung,ein,ausreichendem,mit,dank,sind,bekannten,alten,"sämtlichem,",gelegentlich,"Delikte,",ein,Wohnung,man,den,Fahrer,"üblichem,",mit,richtige,bekannten,die,schönen,mit,Neuwahlen,schon,landen,das,war,nicht,mit,Fahrer,die,auf,wurden,"nicht,",wir,warmem,36,dauerhaftem,sind,obwohl,immer,Kilowattstunden,sprudelnden,Büschel,uns,immer,wir,die,alten,man,ich,schmutziger,Bluts,dem,landen,"minimalem,",solch,schmutzige,aus,"regelmäßigem,",viel,Packung,Stadt,Farbe,,,,,,,,,,,,,,,,,,,,,,,1,0,1,0,0,4,4,4,,,,,,,,space,0.393554925919,,,,,,2017_Jan_30_1343,59.6114592379,spr_backupper,001,Fr18,
,den,Wetter,elektrischer,sie,salzige,seltenem,minimalem,hätten,Bundespräsident.,roten,hat,Trinkwasser.,"nachgewiesen,",serviert.,noch,derer,frisches,war,ungefähr,geschleudert.,die,purem,"frischem,",leider,mehr,Lärm,gelegentlichen,liegen,des,mehr,unzureichenden,eine,klassischen,ziemlich,Glas,monatlichem,zusätzlichem,täglichem,auf,Skandal,Krams,künftigem,einen,deren,Glas,des,eine,roten,wurden,harten,"reichem,","Zeit,",Skandals,Störenfriede,Wetters,einem,vor,immer,im,Auto,die,am,einem,wurden,Tiere,noch,serviert.,was,von,weichem,würden,feinem,auf,sie,350,elektrische,Trinkwassers.,frischen,die,350,um,Störenfriede,Kram,der,leider,Wäsche.,hat,Mann,im,sauberen,unzureichenden,Wäsche.,feinem,kaltem,Lärm,salziger,liegen,geschleudert.,,,,,,,,,,,,,,,,,,,,,,,1,0,1,0,0,5,5,5,,,,,,,,space,0.587611913681,,,,,,2017_Jan_30_1343,59.6114592379,spr_backupper,001,Fr18,
,Soldaten,die,Energie.,defekt,Wurst,dichten,täglichen,seiner,nan,Planet,den,nan,dass,nan,eine,sie,Gras,aus,drei,nan,er,Alkohol,kaltem,nichts,als,um,Besucher.,die,Herrn,als,Helmen,große,Schmuck,"vermiest,",köstlichen,Taschengeld,schwarzem,grünen,jeden,wiedergewählt.,aus,Einkommen,Besucher.,sie,köstlicher,Herrn,große,Planeten,verschrottet.,Schaumstoff,goldenen,um,wiedergewählt.,jeden.,die,Esslöffel,Dezember,ruhig,Müll.,mehr,Flut,Hauptbahnhof.,Esslöffel,verschrottet.,artgerecht,eine,nan,Tupperware,den,Untergrund,seiner,Kunsteis,jeden,defekt,ml,Energie.,nan,Grases,Stimmung,ml,die,jeden.,aus,Soldaten,nichts,nan,den,mehr,Müll.,Kraftstoff,Helmen,nan,dichten,Abduschen,um,Wurst,die,nan,,,,,,,,,,,,,,,,,,,,,,,1,0,1,0,0,6,6,6,,,,,,,,space,0.645364999771,,,,,,2017_Jan_30_1343,59.6114592379,spr_backupper,001,Fr18,
,des,Wohnung.,nan,war.,mit,Gewebe,Einsatz,Frau,nan,ganz,Boden,nan,das,nan,Sammlung,überführt,zwängen.,Japan.,Tage.,nan,trug.,verdünnt.,Saft,mitbringen.,einmal,jede,nan,Slums.,Gantenbeins.,einmal,zur,Menge,umgearbeitet.,dass,Weins,selber,Kaffee,Tee,Fall,nan,dem,haftbar.,nan,überführt,Wein,Gantenbein.,Menge,ganz,nan,gefertigt.,Besatz,Nadelhölzer,nan,nan,Wohnung.,warmen,stattfinden.,diskutiert.,nan,als,zurückgekehrt.,nan,warmem,nan,gehalten.,Sammlung,nan,ist.,Problemen,liegen.,Frau,eingesprüht.,Fall,war.,warme,nan,nan,zwängen.,ziemlich,warmer,Probleme,nan,dem,des,mitbringen.,nan,Boden,als,nan,fahren.,zur,nan,Stoff,gehärtet.,jede,mit,Slums.,nan,,,,,,,,,,,,,,,,,,,,,,,1,0,1,0,0,7,7,7,,,,,,,,space,0.60408616066,,,,,,2017_Jan_30_1343,59.6114592379,spr_backupper,001,Fr18,
,zweiten,nan,nan,nan,an,wiederhergestellt.,sinken.,gepasst.,nan,deutlich.,berührt.,nan,Medikament,nan,dumme,wurden.,nan,nan,nan,nan,nan,nan,besprochen.,nan,Rilke.,Menge,nan,nan,nan,Rilke,Schule.,dunkle,nan,es,schon,kaufen.,wiederbelebt.,wieder,genug.,nan,Haus,nan,nan,wurden.,schon,nan,dunkler,deutlich.,nan,nan,rekonstruiert.,umzusetzen.,nan,nan,nan,Honigs,nan,nan,nan,gerne.,nan,nan,Honig,nan,nan,dummer,nan,nan,im,nan,gepasst,nan,genug.,nan,Milch.,nan,nan,nan,vermiest.,Milch.,im,nan,Haus,zweiten,nan,nan,berührt.,gerne.,nan,nan,Schule.,nan,gefertigt.,nan,Menge,an,nan,nan,,,,,,,,,,,,,,,,,,,,,,,1,0,1,0,0,8,8,8,,,,,,,,space,0.489578962326,,,,,,2017_Jan_30_1343,59.6114592379,spr_backupper,001,Fr18,
,,,,,,,,,,,,,,,,,,,,,,,,,,,,,,,,,,,,,,,,,,,,,,,,,,,,,,,,,,,,,,,,,,,,,,,,,,,,,,,,,,,,,,,,,,,,,,,,,,,,,,,,,,,,,,,,,,,,,,,,,1,0,1,0,,,,,,,,,,,,,,space,0.704874992371,n,2.78154706955,,2017_Jan_30_1343,59.6114592379,spr_backupper,001,Fr18,
,Bei,Sie,Die,Die,Ich,Danach,Ihr,Die,Walter,Im,Nicht,Sie,In,Beträchtliche,Sie,Es,Wir,Die,Der,Es,Die,Die,Sie,Außer,In,Man,Wir,Am,Die,In,Die,Mit,Die,Es,Bei,Jugendliche,Die,Ich,100,Er,Wir,Manche,Wir,Es,Bei,Die,Mit,Im,Die,Alle,Das,Jetzt,Er,Außer,Sie,Er,Unter,Fernab,Viele,Wir,Als,Die,Er,Die,In,Sie,Beträchtliche,Die,In,Jungtiere,Die,Die,100,Die,In,Die,Sie,Wir,Dass,In,In,Außer,Wir,Bei,Außer,Dort,Nicht,Wir,Viele,Wir,Die,Dort,Er,Die,Man,Ich,Am,Es,,,,,,,,,,,,,,,,,,,,,,,2,0,2,0,0,0,0,0,,,,,,,space,space,0.642034053802,,,,,0.621382951736,2017_Jan_30_1343,59.6114592379,spr_backupper,001,Fr18,
,der,verlassen,Schule,Uhr,nehme,wurde,Blutdruck,Schuhe,Scheel,Fernrohr,ein,verbrauchen,einer,Stücke,hatte,waren,mussten,"Uhr,",Flug,wurden,Uhr,Lösung,haben,das,meinem,machte,hatten,äußersten,Gäste,meinem,Kinder,dieser,Stücke,hat,unserer,können,müden,wurde,g,wurde,haben,Kreditnehmer,hatten,waren,unserer,Gäste,dieser,Fernrohr,Autos,Betten,Tuch,ist,wurde,den,verlassen,stellt,keinen,des,Tonnen,übergaben,die,Linie,stellt,Autos,diesem,hatte,Stücke,Teilnehmerinnen,der,sollten,Schuhe,Eislaufbahnen,g,Uhr,den,Schule,verbrauchen,mussten,es,den,der,dem,haben,der,dem,türmen,ein,übergaben,Tonnen,konnten,Kinder,türmen,hat,Formen,machte,nehme,äußeren,wurden,,,,,,,,,,,,,,,,,,,,,,,2,0,2,0,0,1,1,1,,,,,,,,space,0.423955917358,,,,,,2017_Jan_30_1343,59.6114592379,spr_backupper,001,Fr18,
,Feier,wegen,verbraucht,schlug,eine,die,kann,in,war,sahen,Tropfen,60,Studie,saftiges,keine,nur,uns,die,zum,Eimer,war,wird,die,Essen,Studium,mal,in,Rand,suchen,Studium,fuhren,Methode,wurden,uns,Ankunft,Kleidung,Teilnehmer,damals,braunen,trotz,jede,sind,in,nur,Ankunft,suchen,Methode,sahen,beider,wurden,wurde,genau,trotz,Bürgermeister,wegen,die,Umständen,Rummels,gebrauchter,dem,Sonne,101,die,beider,Zirkus,keine,saftigen,wussten,Tat,immer,in,wurden,brauner,schlug,Kakao,verbraucht,60,uns,"regnete,",Kakao,Tat,Bürgermeister,jede,Feier,Essen,sich,Tropfen,das,gebrauchte,dann,fuhren,sich,ein,wurden,mal,eine,Rand,Eimer,,,,,,,,,,,,,,,,,,,,,,,2,0,2,0,0,2,2,2,,,,,,,,space,0.528225898743,,,,,,2017_Jan_30_1343,59.6114592379,spr_backupper,001,Fr18,
,gedachte,dem,260.000,"sporadisch,",große,Leinwand,schon,Größe,der,wir,königliches,Liter,wurde,Fleisch,Lust,kleinere,durch,er,Mond,roter,aus,mit,Erlebnisse,kann,las,wieder,Dänemark,der,die,habe,mit,kann,aus,die,stand,bei,wurden,schnell,Zuckers,dem,Menge,mit,Dänemark,kleinere,stand,die,kann,wir,beteiligten,mit,dann,die,des,beschuldigten,des,Masse,können,wurde,Kleidung,Mann,"unterging,",hält,Masse,beteiligter,werden,Lust,Fleischs,überwiegend,wissen,auf,Größe,mit,Zucker,"sporadisch,",gehören,260.000,Liter,durch,hat,gehören,wissen,beschuldigten,Menge,gedachte,kann,Berge,königlichen,Auto,Kleidung,mit,mit,Berge,Hemd,unter,wieder,große,der,rote,,,,,,,,,,,,,,,,,,,,,,,2,0,2,0,0,3,3,3,,,,,,,,space,0.47061085701,,,,,,2017_Jan_30_1343,59.6114592379,spr_backupper,001,Fr18,
,man,schönen,Kilowattstunden,obschon,Packung,aus,bei,36,vierte,den,Blut,sprudelndes,jetzt,wurden,auf,"Delikte,",Büschel,"trug,",dauerte,Farbe,"Japan,","reichlichem,",bei,ich,ich,viel,einen,Stadt,Wohnung,ich,solchen,man,"wertvollem,",Stimmung,ein,ausreichendem,mit,dank,sind,bekannten,alten,"sämtlichem,",gelegentlich,"Delikte,",ein,Wohnung,man,den,Fahrer,"üblichem,",mit,richtige,bekannten,die,schönen,mit,Neuwahlen,schon,landen,das,war,nicht,mit,Fahrer,die,auf,wurden,"nicht,",wir,warmem,36,dauerhaftem,sind,obwohl,immer,Kilowattstunden,sprudelnden,Büschel,uns,immer,wir,die,alten,man,ich,schmutziger,Bluts,dem,landen,"minimalem,",solch,schmutzige,aus,"regelmäßigem,",viel,Packung,Stadt,Farbe,,,,,,,,,,,,,,,,,,,,,,,2,0,2,0,0,4,4,4,,,,,,,,space,0.376976966858,,,,,,2017_Jan_30_1343,59.6114592379,spr_backupper,001,Fr18,
,den,Wetter,elektrischer,sie,salzige,seltenem,minimalem,hätten,Bundespräsident.,roten,hat,Trinkwasser.,"nachgewiesen,",serviert.,noch,derer,frisches,war,ungefähr,geschleudert.,die,purem,"frischem,",leider,mehr,Lärm,gelegentlichen,liegen,des,mehr,unzureichenden,eine,klassischen,ziemlich,Glas,monatlichem,zusätzlichem,täglichem,auf,Skandal,Krams,künftigem,einen,deren,Glas,des,eine,roten,wurden,harten,"reichem,","Zeit,",Skandals,Störenfriede,Wetters,einem,vor,immer,im,Auto,die,am,einem,wurden,Tiere,noch,serviert.,was,von,weichem,würden,feinem,auf,sie,350,elektrische,Trinkwassers.,frischen,die,350,um,Störenfriede,Kram,der,leider,Wäsche.,hat,Mann,im,sauberen,unzureichenden,Wäsche.,feinem,kaltem,Lärm,salziger,liegen,geschleudert.,,,,,,,,,,,,,,,,,,,,,,,2,0,2,0,0,5,5,5,,,,,,,,space,0.565277099609,,,,,,2017_Jan_30_1343,59.6114592379,spr_backupper,001,Fr18,
,Soldaten,die,Energie.,defekt,Wurst,dichten,täglichen,seiner,nan,Planet,den,nan,dass,nan,eine,sie,Gras,aus,drei,nan,er,Alkohol,kaltem,nichts,als,um,Besucher.,die,Herrn,als,Helmen,große,Schmuck,"vermiest,",köstlichen,Taschengeld,schwarzem,grünen,jeden,wiedergewählt.,aus,Einkommen,Besucher.,sie,köstlicher,Herrn,große,Planeten,verschrottet.,Schaumstoff,goldenen,um,wiedergewählt.,jeden.,die,Esslöffel,Dezember,ruhig,Müll.,mehr,Flut,Hauptbahnhof.,Esslöffel,verschrottet.,artgerecht,eine,nan,Tupperware,den,Untergrund,seiner,Kunsteis,jeden,defekt,ml,Energie.,nan,Grases,Stimmung,ml,die,jeden.,aus,Soldaten,nichts,nan,den,mehr,Müll.,Kraftstoff,Helmen,nan,dichten,Abduschen,um,Wurst,die,nan,,,,,,,,,,,,,,,,,,,,,,,2,0,2,0,0,6,6,6,,,,,,,,space,0.626116991043,,,,,,2017_Jan_30_1343,59.6114592379,spr_backupper,001,Fr18,
,des,Wohnung.,nan,war.,mit,Gewebe,Einsatz,Frau,nan,ganz,Boden,nan,das,nan,Sammlung,überführt,zwängen.,Japan.,Tage.,nan,trug.,verdünnt.,Saft,mitbringen.,einmal,jede,nan,Slums.,Gantenbeins.,einmal,zur,Menge,umgearbeitet.,dass,Weins,selber,Kaffee,Tee,Fall,nan,dem,haftbar.,nan,überführt,Wein,Gantenbein.,Menge,ganz,nan,gefertigt.,Besatz,Nadelhölzer,nan,nan,Wohnung.,warmen,stattfinden.,diskutiert.,nan,als,zurückgekehrt.,nan,warmem,nan,gehalten.,Sammlung,nan,ist.,Problemen,liegen.,Frau,eingesprüht.,Fall,war.,warme,nan,nan,zwängen.,ziemlich,warmer,Probleme,nan,dem,des,mitbringen.,nan,Boden,als,nan,fahren.,zur,nan,Stoff,gehärtet.,jede,mit,Slums.,nan,,,,,,,,,,,,,,,,,,,,,,,2,0,2,0,0,7,7,7,,,,,,,,space,0.453301906586,,,,,,2017_Jan_30_1343,59.6114592379,spr_backupper,001,Fr18,
,zweiten,nan,nan,nan,an,wiederhergestellt.,sinken.,gepasst.,nan,deutlich.,berührt.,nan,Medikament,nan,dumme,wurden.,nan,nan,nan,nan,nan,nan,besprochen.,nan,Rilke.,Menge,nan,nan,nan,Rilke,Schule.,dunkle,nan,es,schon,kaufen.,wiederbelebt.,wieder,genug.,nan,Haus,nan,nan,wurden.,schon,nan,dunkler,deutlich.,nan,nan,rekonstruiert.,umzusetzen.,nan,nan,nan,Honigs,nan,nan,nan,gerne.,nan,nan,Honig,nan,nan,dummer,nan,nan,im,nan,gepasst,nan,genug.,nan,Milch.,nan,nan,nan,vermiest.,Milch.,im,nan,Haus,zweiten,nan,nan,berührt.,gerne.,nan,nan,Schule.,nan,gefertigt.,nan,Menge,an,nan,nan,,,,,,,,,,,,,,,,,,,,,,,2,0,2,0,0,8,8,8,,,,,,,,space,0.344368219376,,,,,,2017_Jan_30_1343,59.6114592379,spr_backupper,001,Fr18,
,Weltkriegs.,nan,nan,nan,den,nan,nan,nan,nan,nan,nan,nan,nicht,nan,Sprüche.,nan,nan,nan,nan,nan,nan,nan,nan,nan,nan,heiße,nan,nan,nan,gelesen.,nan,Materie,nan,regnete.,auf,nan,nan,fit.,nan,nan,geschafft.,nan,nan,nan,auf,nan,Materie,nan,nan,nan,nan,nan,nan,nan,nan,her.,nan,nan,nan,nan,nan,nan,her.,nan,nan,Sprüche.,nan,nan,Landkreis.,nan,haben.,nan,nan,nan,nan,nan,nan,nan,nan,nan,Landkreis.,nan,geschafft.,Weltkriegs.,nan,nan,nan,nan,nan,nan,nan,nan,nan,nan,heißer,den,nan,nan,,,,,,,,,,,,,,,,,,,,,,,2,0,2,0,0,9,9,9,,,,,,,,space,0.352869987488,,,,,,2017_Jan_30_1343,59.6114592379,spr_backupper,001,Fr18,
,nan,nan,nan,nan,See.,nan,nan,nan,nan,nan,nan,nan,wirkt.,nan,nan,nan,nan,nan,nan,nan,nan,nan,nan,nan,nan,Luft.,nan,nan,nan,nan,nan,erzeugen.,nan,nan,dem,nan,nan,nan,nan,nan,nan,nan,nan,nan,dem,nan,erzeugen.,nan,nan,nan,nan,nan,nan,nan,nan,nan,nan,nan,nan,nan,nan,nan,nan,nan,nan,nan,nan,nan,nan,nan,nan,nan,nan,nan,nan,nan,nan,nan,nan,nan,nan,nan,nan,nan,nan,nan,nan,nan,nan,nan,nan,nan,nan,nan,Luft.,See.,nan,nan,,,,,,,,,,,,,,,,,,,,,,,2,0,2,0,0,10,10,10,,,,,,,,space,0.635446071625,,,,,,2017_Jan_30_1343,59.6114592379,spr_backupper,001,Fr18,
,,,,,,,,,,,,,,,,,,,,,,,,,,,,,,,,,,,,,,,,,,,,,,,,,,,,,,,,,,,,,,,,,,,,,,,,,,,,,,,,,,,,,,,,,,,,,,,,,,,,,,,,,,,,,,,,,,,,,,,,,2,0,2,0,,,,,,,,,,,,,,space,0.957039117813,j,6.98538398743,,2017_Jan_30_1343,59.6114592379,spr_backupper,001,Fr18,
,Bei,Sie,Die,Die,Ich,Danach,Ihr,Die,Walter,Im,Nicht,Sie,In,Beträchtliche,Sie,Es,Wir,Die,Der,Es,Die,Die,Sie,Außer,In,Man,Wir,Am,Die,In,Die,Mit,Die,Es,Bei,Jugendliche,Die,Ich,100,Er,Wir,Manche,Wir,Es,Bei,Die,Mit,Im,Die,Alle,Das,Jetzt,Er,Außer,Sie,Er,Unter,Fernab,Viele,Wir,Als,Die,Er,Die,In,Sie,Beträchtliche,Die,In,Jungtiere,Die,Die,100,Die,In,Die,Sie,Wir,Dass,In,In,Außer,Wir,Bei,Außer,Dort,Nicht,Wir,Viele,Wir,Die,Dort,Er,Die,Man,Ich,Am,Es,,,,,,,,,,,,,,,,,,,,,,,3,0,3,0,0,0,0,0,,,,,,,space,space,0.486232995987,,,,,1.44295692444,2017_Jan_30_1343,59.6114592379,spr_backupper,001,Fr18,
,der,verlassen,Schule,Uhr,nehme,wurde,Blutdruck,Schuhe,Scheel,Fernrohr,ein,verbrauchen,einer,Stücke,hatte,waren,mussten,"Uhr,",Flug,wurden,Uhr,Lösung,haben,das,meinem,machte,hatten,äußersten,Gäste,meinem,Kinder,dieser,Stücke,hat,unserer,können,müden,wurde,g,wurde,haben,Kreditnehmer,hatten,waren,unserer,Gäste,dieser,Fernrohr,Autos,Betten,Tuch,ist,wurde,den,verlassen,stellt,keinen,des,Tonnen,übergaben,die,Linie,stellt,Autos,diesem,hatte,Stücke,Teilnehmerinnen,der,sollten,Schuhe,Eislaufbahnen,g,Uhr,den,Schule,verbrauchen,mussten,es,den,der,dem,haben,der,dem,türmen,ein,übergaben,Tonnen,konnten,Kinder,türmen,hat,Formen,machte,nehme,äußeren,wurden,,,,,,,,,,,,,,,,,,,,,,,3,0,3,0,0,1,1,1,,,,,,,,space,0.439443826675,,,,,,2017_Jan_30_1343,59.6114592379,spr_backupper,001,Fr18,
,Feier,wegen,verbraucht,schlug,eine,die,kann,in,war,sahen,Tropfen,60,Studie,saftiges,keine,nur,uns,die,zum,Eimer,war,wird,die,Essen,Studium,mal,in,Rand,suchen,Studium,fuhren,Methode,wurden,uns,Ankunft,Kleidung,Teilnehmer,damals,braunen,trotz,jede,sind,in,nur,Ankunft,suchen,Methode,sahen,beider,wurden,wurde,genau,trotz,Bürgermeister,wegen,die,Umständen,Rummels,gebrauchter,dem,Sonne,101,die,beider,Zirkus,keine,saftigen,wussten,Tat,immer,in,wurden,brauner,schlug,Kakao,verbraucht,60,uns,"regnete,",Kakao,Tat,Bürgermeister,jede,Feier,Essen,sich,Tropfen,das,gebrauchte,dann,fuhren,sich,ein,wurden,mal,eine,Rand,Eimer,,,,,,,,,,,,,,,,,,,,,,,3,0,3,0,0,2,2,2,,,,,,,,space,0.402190923691,,,,,,2017_Jan_30_1343,59.6114592379,spr_backupper,001,Fr18,
,gedachte,dem,260.000,"sporadisch,",große,Leinwand,schon,Größe,der,wir,königliches,Liter,wurde,Fleisch,Lust,kleinere,durch,er,Mond,roter,aus,mit,Erlebnisse,kann,las,wieder,Dänemark,der,die,habe,mit,kann,aus,die,stand,bei,wurden,schnell,Zuckers,dem,Menge,mit,Dänemark,kleinere,stand,die,kann,wir,beteiligten,mit,dann,die,des,beschuldigten,des,Masse,können,wurde,Kleidung,Mann,"unterging,",hält,Masse,beteiligter,werden,Lust,Fleischs,überwiegend,wissen,auf,Größe,mit,Zucker,"sporadisch,",gehören,260.000,Liter,durch,hat,gehören,wissen,beschuldigten,Menge,gedachte,kann,Berge,königlichen,Auto,Kleidung,mit,mit,Berge,Hemd,unter,wieder,große,der,rote,,,,,,,,,,,,,,,,,,,,,,,3,0,3,0,0,3,3,3,,,,,,,,space,0.436220169067,,,,,,2017_Jan_30_1343,59.6114592379,spr_backupper,001,Fr18,
,man,schönen,Kilowattstunden,obschon,Packung,aus,bei,36,vierte,den,Blut,sprudelndes,jetzt,wurden,auf,"Delikte,",Büschel,"trug,",dauerte,Farbe,"Japan,","reichlichem,",bei,ich,ich,viel,einen,Stadt,Wohnung,ich,solchen,man,"wertvollem,",Stimmung,ein,ausreichendem,mit,dank,sind,bekannten,alten,"sämtlichem,",gelegentlich,"Delikte,",ein,Wohnung,man,den,Fahrer,"üblichem,",mit,richtige,bekannten,die,schönen,mit,Neuwahlen,schon,landen,das,war,nicht,mit,Fahrer,die,auf,wurden,"nicht,",wir,warmem,36,dauerhaftem,sind,obwohl,immer,Kilowattstunden,sprudelnden,Büschel,uns,immer,wir,die,alten,man,ich,schmutziger,Bluts,dem,landen,"minimalem,",solch,schmutzige,aus,"regelmäßigem,",viel,Packung,Stadt,Farbe,,,,,,,,,,,,,,,,,,,,,,,3,0,3,0,0,4,4,4,,,,,,,,space,0.588170051575,,,,,,2017_Jan_30_1343,59.6114592379,spr_backupper,001,Fr18,
,den,Wetter,elektrischer,sie,salzige,seltenem,minimalem,hätten,Bundespräsident.,roten,hat,Trinkwasser.,"nachgewiesen,",serviert.,noch,derer,frisches,war,ungefähr,geschleudert.,die,purem,"frischem,",leider,mehr,Lärm,gelegentlichen,liegen,des,mehr,unzureichenden,eine,klassischen,ziemlich,Glas,monatlichem,zusätzlichem,täglichem,auf,Skandal,Krams,künftigem,einen,deren,Glas,des,eine,roten,wurden,harten,"reichem,","Zeit,",Skandals,Störenfriede,Wetters,einem,vor,immer,im,Auto,die,am,einem,wurden,Tiere,noch,serviert.,was,von,weichem,würden,feinem,auf,sie,350,elektrische,Trinkwassers.,frischen,die,350,um,Störenfriede,Kram,der,leider,Wäsche.,hat,Mann,im,sauberen,unzureichenden,Wäsche.,feinem,kaltem,Lärm,salziger,liegen,geschleudert.,,,,,,,,,,,,,,,,,,,,,,,3,0,3,0,0,5,5,5,,,,,,,,space,0.453273057938,,,,,,2017_Jan_30_1343,59.6114592379,spr_backupper,001,Fr18,
,,,,,,,,,,,,,,,,,,,,,,,,,,,,,,,,,,,,,,,,,,,,,,,,,,,,,,,,,,,,,,,,,,,,,,,,,,,,,,,,,,,,,,,,,,,,,,,,,,,,,,,,,,,,,,,,,,,,,,,,,3,0,3,0,,,,,,,,,,,,,,space,0.688057899475,j,4.78986501694,,2017_Jan_30_1343,59.6114592379,spr_backupper,001,Fr18,
,Bei,Sie,Die,Die,Ich,Danach,Ihr,Die,Walter,Im,Nicht,Sie,In,Beträchtliche,Sie,Es,Wir,Die,Der,Es,Die,Die,Sie,Außer,In,Man,Wir,Am,Die,In,Die,Mit,Die,Es,Bei,Jugendliche,Die,Ich,100,Er,Wir,Manche,Wir,Es,Bei,Die,Mit,Im,Die,Alle,Das,Jetzt,Er,Außer,Sie,Er,Unter,Fernab,Viele,Wir,Als,Die,Er,Die,In,Sie,Beträchtliche,Die,In,Jungtiere,Die,Die,100,Die,In,Die,Sie,Wir,Dass,In,In,Außer,Wir,Bei,Außer,Dort,Nicht,Wir,Viele,Wir,Die,Dort,Er,Die,Man,Ich,Am,Es,,,,,,,,,,,,,,,,,,,,,,,4,0,4,0,0,0,0,0,,,,,,,space,space,0.0760917663574,,,,,0.435750007629,2017_Jan_30_1343,59.6114592379,spr_backupper,001,Fr18,
,der,verlassen,Schule,Uhr,nehme,wurde,Blutdruck,Schuhe,Scheel,Fernrohr,ein,verbrauchen,einer,Stücke,hatte,waren,mussten,"Uhr,",Flug,wurden,Uhr,Lösung,haben,das,meinem,machte,hatten,äußersten,Gäste,meinem,Kinder,dieser,Stücke,hat,unserer,können,müden,wurde,g,wurde,haben,Kreditnehmer,hatten,waren,unserer,Gäste,dieser,Fernrohr,Autos,Betten,Tuch,ist,wurde,den,verlassen,stellt,keinen,des,Tonnen,übergaben,die,Linie,stellt,Autos,diesem,hatte,Stücke,Teilnehmerinnen,der,sollten,Schuhe,Eislaufbahnen,g,Uhr,den,Schule,verbrauchen,mussten,es,den,der,dem,haben,der,dem,türmen,ein,übergaben,Tonnen,konnten,Kinder,türmen,hat,Formen,machte,nehme,äußeren,wurden,,,,,,,,,,,,,,,,,,,,,,,4,0,4,0,0,1,1,1,,,,,,,,space,1.60052800179,,,,,,2017_Jan_30_1343,59.6114592379,spr_backupper,001,Fr18,
,Feier,wegen,verbraucht,schlug,eine,die,kann,in,war,sahen,Tropfen,60,Studie,saftiges,keine,nur,uns,die,zum,Eimer,war,wird,die,Essen,Studium,mal,in,Rand,suchen,Studium,fuhren,Methode,wurden,uns,Ankunft,Kleidung,Teilnehmer,damals,braunen,trotz,jede,sind,in,nur,Ankunft,suchen,Methode,sahen,beider,wurden,wurde,genau,trotz,Bürgermeister,wegen,die,Umständen,Rummels,gebrauchter,dem,Sonne,101,die,beider,Zirkus,keine,saftigen,wussten,Tat,immer,in,wurden,brauner,schlug,Kakao,verbraucht,60,uns,"regnete,",Kakao,Tat,Bürgermeister,jede,Feier,Essen,sich,Tropfen,das,gebrauchte,dann,fuhren,sich,ein,wurden,mal,eine,Rand,Eimer,,,,,,,,,,,,,,,,,,,,,,,4,0,4,0,0,2,2,2,,,,,,,,space,0.742830991745,,,,,,2017_Jan_30_1343,59.6114592379,spr_backupper,001,Fr18,
,gedachte,dem,260.000,"sporadisch,",große,Leinwand,schon,Größe,der,wir,königliches,Liter,wurde,Fleisch,Lust,kleinere,durch,er,Mond,roter,aus,mit,Erlebnisse,kann,las,wieder,Dänemark,der,die,habe,mit,kann,aus,die,stand,bei,wurden,schnell,Zuckers,dem,Menge,mit,Dänemark,kleinere,stand,die,kann,wir,beteiligten,mit,dann,die,des,beschuldigten,des,Masse,können,wurde,Kleidung,Mann,"unterging,",hält,Masse,beteiligter,werden,Lust,Fleischs,überwiegend,wissen,auf,Größe,mit,Zucker,"sporadisch,",gehören,260.000,Liter,durch,hat,gehören,wissen,beschuldigten,Menge,gedachte,kann,Berge,königlichen,Auto,Kleidung,mit,mit,Berge,Hemd,unter,wieder,große,der,rote,,,,,,,,,,,,,,,,,,,,,,,4,0,4,0,0,3,3,3,,,,,,,,space,0.547262907028,,,,,,2017_Jan_30_1343,59.6114592379,spr_backupper,001,Fr18,
,man,schönen,Kilowattstunden,obschon,Packung,aus,bei,36,vierte,den,Blut,sprudelndes,jetzt,wurden,auf,"Delikte,",Büschel,"trug,",dauerte,Farbe,"Japan,","reichlichem,",bei,ich,ich,viel,einen,Stadt,Wohnung,ich,solchen,man,"wertvollem,",Stimmung,ein,ausreichendem,mit,dank,sind,bekannten,alten,"sämtlichem,",gelegentlich,"Delikte,",ein,Wohnung,man,den,Fahrer,"üblichem,",mit,richtige,bekannten,die,schönen,mit,Neuwahlen,schon,landen,das,war,nicht,mit,Fahrer,die,auf,wurden,"nicht,",wir,warmem,36,dauerhaftem,sind,obwohl,immer,Kilowattstunden,sprudelnden,Büschel,uns,immer,wir,die,alten,man,ich,schmutziger,Bluts,dem,landen,"minimalem,",solch,schmutzige,aus,"regelmäßigem,",viel,Packung,Stadt,Farbe,,,,,,,,,,,,,,,,,,,,,,,4,0,4,0,0,4,4,4,,,,,,,,space,1.01656293869,,,,,,2017_Jan_30_1343,59.6114592379,spr_backupper,001,Fr18,
,den,Wetter,elektrischer,sie,salzige,seltenem,minimalem,hätten,Bundespräsident.,roten,hat,Trinkwasser.,"nachgewiesen,",serviert.,noch,derer,frisches,war,ungefähr,geschleudert.,die,purem,"frischem,",leider,mehr,Lärm,gelegentlichen,liegen,des,mehr,unzureichenden,eine,klassischen,ziemlich,Glas,monatlichem,zusätzlichem,täglichem,auf,Skandal,Krams,künftigem,einen,deren,Glas,des,eine,roten,wurden,harten,"reichem,","Zeit,",Skandals,Störenfriede,Wetters,einem,vor,immer,im,Auto,die,am,einem,wurden,Tiere,noch,serviert.,was,von,weichem,würden,feinem,auf,sie,350,elektrische,Trinkwassers.,frischen,die,350,um,Störenfriede,Kram,der,leider,Wäsche.,hat,Mann,im,sauberen,unzureichenden,Wäsche.,feinem,kaltem,Lärm,salziger,liegen,geschleudert.,,,,,,,,,,,,,,,,,,,,,,,4,0,4,0,0,5,5,5,,,,,,,,space,0.528453111649,,,,,,2017_Jan_30_1343,59.6114592379,spr_backupper,001,Fr18,
,Soldaten,die,Energie.,defekt,Wurst,dichten,täglichen,seiner,nan,Planet,den,nan,dass,nan,eine,sie,Gras,aus,drei,nan,er,Alkohol,kaltem,nichts,als,um,Besucher.,die,Herrn,als,Helmen,große,Schmuck,"vermiest,",köstlichen,Taschengeld,schwarzem,grünen,jeden,wiedergewählt.,aus,Einkommen,Besucher.,sie,köstlicher,Herrn,große,Planeten,verschrottet.,Schaumstoff,goldenen,um,wiedergewählt.,jeden.,die,Esslöffel,Dezember,ruhig,Müll.,mehr,Flut,Hauptbahnhof.,Esslöffel,verschrottet.,artgerecht,eine,nan,Tupperware,den,Untergrund,seiner,Kunsteis,jeden,defekt,ml,Energie.,nan,Grases,Stimmung,ml,die,jeden.,aus,Soldaten,nichts,nan,den,mehr,Müll.,Kraftstoff,Helmen,nan,dichten,Abduschen,um,Wurst,die,nan,,,,,,,,,,,,,,,,,,,,,,,4,0,4,0,0,6,6,6,,,,,,,,space,0.410385131836,,,,,,2017_Jan_30_1343,59.6114592379,spr_backupper,001,Fr18,
,des,Wohnung.,nan,war.,mit,Gewebe,Einsatz,Frau,nan,ganz,Boden,nan,das,nan,Sammlung,überführt,zwängen.,Japan.,Tage.,nan,trug.,verdünnt.,Saft,mitbringen.,einmal,jede,nan,Slums.,Gantenbeins.,einmal,zur,Menge,umgearbeitet.,dass,Weins,selber,Kaffee,Tee,Fall,nan,dem,haftbar.,nan,überführt,Wein,Gantenbein.,Menge,ganz,nan,gefertigt.,Besatz,Nadelhölzer,nan,nan,Wohnung.,warmen,stattfinden.,diskutiert.,nan,als,zurückgekehrt.,nan,warmem,nan,gehalten.,Sammlung,nan,ist.,Problemen,liegen.,Frau,eingesprüht.,Fall,war.,warme,nan,nan,zwängen.,ziemlich,warmer,Probleme,nan,dem,des,mitbringen.,nan,Boden,als,nan,fahren.,zur,nan,Stoff,gehärtet.,jede,mit,Slums.,nan,,,,,,,,,,,,,,,,,,,,,,,4,0,4,0,0,7,7,7,,,,,,,,space,0.37572312355,,,,,,2017_Jan_30_1343,59.6114592379,spr_backupper,001,Fr18,
,zweiten,nan,nan,nan,an,wiederhergestellt.,sinken.,gepasst.,nan,deutlich.,berührt.,nan,Medikament,nan,dumme,wurden.,nan,nan,nan,nan,nan,nan,besprochen.,nan,Rilke.,Menge,nan,nan,nan,Rilke,Schule.,dunkle,nan,es,schon,kaufen.,wiederbelebt.,wieder,genug.,nan,Haus,nan,nan,wurden.,schon,nan,dunkler,deutlich.,nan,nan,rekonstruiert.,umzusetzen.,nan,nan,nan,Honigs,nan,nan,nan,gerne.,nan,nan,Honig,nan,nan,dummer,nan,nan,im,nan,gepasst,nan,genug.,nan,Milch.,nan,nan,nan,vermiest.,Milch.,im,nan,Haus,zweiten,nan,nan,berührt.,gerne.,nan,nan,Schule.,nan,gefertigt.,nan,Menge,an,nan,nan,,,,,,,,,,,,,,,,,,,,,,,4,0,4,0,0,8,8,8,,,,,,,,space,0.644422054291,,,,,,2017_Jan_30_1343,59.6114592379,spr_backupper,001,Fr18,
,,,,,,,,,,,,,,,,,,,,,,,,,,,,,,,,,,,,,,,,,,,,,,,,,,,,,,,,,,,,,,,,,,,,,,,,,,,,,,,,,,,,,,,,,,,,,,,,,,,,,,,,,,,,,,,,,,,,,,,,,4,0,4,0,,,,,,,,,,,,,,None,,n,5.21260499954,,2017_Jan_30_1343,59.6114592379,spr_backupper,001,Fr18,
,Bei,Sie,Die,Die,Ich,Danach,Ihr,Die,Walter,Im,Nicht,Sie,In,Beträchtliche,Sie,Es,Wir,Die,Der,Es,Die,Die,Sie,Außer,In,Man,Wir,Am,Die,In,Die,Mit,Die,Es,Bei,Jugendliche,Die,Ich,100,Er,Wir,Manche,Wir,Es,Bei,Die,Mit,Im,Die,Alle,Das,Jetzt,Er,Außer,Sie,Er,Unter,Fernab,Viele,Wir,Als,Die,Er,Die,In,Sie,Beträchtliche,Die,In,Jungtiere,Die,Die,100,Die,In,Die,Sie,Wir,Dass,In,In,Außer,Wir,Bei,Außer,Dort,Nicht,Wir,Viele,Wir,Die,Dort,Er,Die,Man,Ich,Am,Es,,,,,,,,,,,,,,,,,,,,,,,5,0,5,0,0,0,0,0,,,,,,,space,space,0.557396173477,,,,,0.402840852737,2017_Jan_30_1343,59.6114592379,spr_backupper,001,Fr18,
,der,verlassen,Schule,Uhr,nehme,wurde,Blutdruck,Schuhe,Scheel,Fernrohr,ein,verbrauchen,einer,Stücke,hatte,waren,mussten,"Uhr,",Flug,wurden,Uhr,Lösung,haben,das,meinem,machte,hatten,äußersten,Gäste,meinem,Kinder,dieser,Stücke,hat,unserer,können,müden,wurde,g,wurde,haben,Kreditnehmer,hatten,waren,unserer,Gäste,dieser,Fernrohr,Autos,Betten,Tuch,ist,wurde,den,verlassen,stellt,keinen,des,Tonnen,übergaben,die,Linie,stellt,Autos,diesem,hatte,Stücke,Teilnehmerinnen,der,sollten,Schuhe,Eislaufbahnen,g,Uhr,den,Schule,verbrauchen,mussten,es,den,der,dem,haben,der,dem,türmen,ein,übergaben,Tonnen,konnten,Kinder,türmen,hat,Formen,machte,nehme,äußeren,wurden,,,,,,,,,,,,,,,,,,,,,,,5,0,5,0,0,1,1,1,,,,,,,,space,0.771646976471,,,,,,2017_Jan_30_1343,59.6114592379,spr_backupper,001,Fr18,
,Feier,wegen,verbraucht,schlug,eine,die,kann,in,war,sahen,Tropfen,60,Studie,saftiges,keine,nur,uns,die,zum,Eimer,war,wird,die,Essen,Studium,mal,in,Rand,suchen,Studium,fuhren,Methode,wurden,uns,Ankunft,Kleidung,Teilnehmer,damals,braunen,trotz,jede,sind,in,nur,Ankunft,suchen,Methode,sahen,beider,wurden,wurde,genau,trotz,Bürgermeister,wegen,die,Umständen,Rummels,gebrauchter,dem,Sonne,101,die,beider,Zirkus,keine,saftigen,wussten,Tat,immer,in,wurden,brauner,schlug,Kakao,verbraucht,60,uns,"regnete,",Kakao,Tat,Bürgermeister,jede,Feier,Essen,sich,Tropfen,das,gebrauchte,dann,fuhren,sich,ein,wurden,mal,eine,Rand,Eimer,,,,,,,,,,,,,,,,,,,,,,,5,0,5,0,0,2,2,2,,,,,,,,space,0.48507809639,,,,,,2017_Jan_30_1343,59.6114592379,spr_backupper,001,Fr18,
,gedachte,dem,260.000,"sporadisch,",große,Leinwand,schon,Größe,der,wir,königliches,Liter,wurde,Fleisch,Lust,kleinere,durch,er,Mond,roter,aus,mit,Erlebnisse,kann,las,wieder,Dänemark,der,die,habe,mit,kann,aus,die,stand,bei,wurden,schnell,Zuckers,dem,Menge,mit,Dänemark,kleinere,stand,die,kann,wir,beteiligten,mit,dann,die,des,beschuldigten,des,Masse,können,wurde,Kleidung,Mann,"unterging,",hält,Masse,beteiligter,werden,Lust,Fleischs,überwiegend,wissen,auf,Größe,mit,Zucker,"sporadisch,",gehören,260.000,Liter,durch,hat,gehören,wissen,beschuldigten,Menge,gedachte,kann,Berge,königlichen,Auto,Kleidung,mit,mit,Berge,Hemd,unter,wieder,große,der,rote,,,,,,,,,,,,,,,,,,,,,,,5,0,5,0,0,3,3,3,,,,,,,,space,0.477178812027,,,,,,2017_Jan_30_1343,59.6114592379,spr_backupper,001,Fr18,
,man,schönen,Kilowattstunden,obschon,Packung,aus,bei,36,vierte,den,Blut,sprudelndes,jetzt,wurden,auf,"Delikte,",Büschel,"trug,",dauerte,Farbe,"Japan,","reichlichem,",bei,ich,ich,viel,einen,Stadt,Wohnung,ich,solchen,man,"wertvollem,",Stimmung,ein,ausreichendem,mit,dank,sind,bekannten,alten,"sämtlichem,",gelegentlich,"Delikte,",ein,Wohnung,man,den,Fahrer,"üblichem,",mit,richtige,bekannten,die,schönen,mit,Neuwahlen,schon,landen,das,war,nicht,mit,Fahrer,die,auf,wurden,"nicht,",wir,warmem,36,dauerhaftem,sind,obwohl,immer,Kilowattstunden,sprudelnden,Büschel,uns,immer,wir,die,alten,man,ich,schmutziger,Bluts,dem,landen,"minimalem,",solch,schmutzige,aus,"regelmäßigem,",viel,Packung,Stadt,Farbe,,,,,,,,,,,,,,,,,,,,,,,5,0,5,0,0,4,4,4,,,,,,,,space,0.445510864258,,,,,,2017_Jan_30_1343,59.6114592379,spr_backupper,001,Fr18,
,den,Wetter,elektrischer,sie,salzige,seltenem,minimalem,hätten,Bundespräsident.,roten,hat,Trinkwasser.,"nachgewiesen,",serviert.,noch,derer,frisches,war,ungefähr,geschleudert.,die,purem,"frischem,",leider,mehr,Lärm,gelegentlichen,liegen,des,mehr,unzureichenden,eine,klassischen,ziemlich,Glas,monatlichem,zusätzlichem,täglichem,auf,Skandal,Krams,künftigem,einen,deren,Glas,des,eine,roten,wurden,harten,"reichem,","Zeit,",Skandals,Störenfriede,Wetters,einem,vor,immer,im,Auto,die,am,einem,wurden,Tiere,noch,serviert.,was,von,weichem,würden,feinem,auf,sie,350,elektrische,Trinkwassers.,frischen,die,350,um,Störenfriede,Kram,der,leider,Wäsche.,hat,Mann,im,sauberen,unzureichenden,Wäsche.,feinem,kaltem,Lärm,salziger,liegen,geschleudert.,,,,,,,,,,,,,,,,,,,,,,,5,0,5,0,0,5,5,5,,,,,,,,space,0.518227100372,,,,,,2017_Jan_30_1343,59.6114592379,spr_backupper,001,Fr18,
,Soldaten,die,Energie.,defekt,Wurst,dichten,täglichen,seiner,nan,Planet,den,nan,dass,nan,eine,sie,Gras,aus,drei,nan,er,Alkohol,kaltem,nichts,als,um,Besucher.,die,Herrn,als,Helmen,große,Schmuck,"vermiest,",köstlichen,Taschengeld,schwarzem,grünen,jeden,wiedergewählt.,aus,Einkommen,Besucher.,sie,köstlicher,Herrn,große,Planeten,verschrottet.,Schaumstoff,goldenen,um,wiedergewählt.,jeden.,die,Esslöffel,Dezember,ruhig,Müll.,mehr,Flut,Hauptbahnhof.,Esslöffel,verschrottet.,artgerecht,eine,nan,Tupperware,den,Untergrund,seiner,Kunsteis,jeden,defekt,ml,Energie.,nan,Grases,Stimmung,ml,die,jeden.,aus,Soldaten,nichts,nan,den,mehr,Müll.,Kraftstoff,Helmen,nan,dichten,Abduschen,um,Wurst,die,nan,,,,,,,,,,,,,,,,,,,,,,,5,0,5,0,0,6,6,6,,,,,,,,space,0.527403831482,,,,,,2017_Jan_30_1343,59.6114592379,spr_backupper,001,Fr18,
,des,Wohnung.,nan,war.,mit,Gewebe,Einsatz,Frau,nan,ganz,Boden,nan,das,nan,Sammlung,überführt,zwängen.,Japan.,Tage.,nan,trug.,verdünnt.,Saft,mitbringen.,einmal,jede,nan,Slums.,Gantenbeins.,einmal,zur,Menge,umgearbeitet.,dass,Weins,selber,Kaffee,Tee,Fall,nan,dem,haftbar.,nan,überführt,Wein,Gantenbein.,Menge,ganz,nan,gefertigt.,Besatz,Nadelhölzer,nan,nan,Wohnung.,warmen,stattfinden.,diskutiert.,nan,als,zurückgekehrt.,nan,warmem,nan,gehalten.,Sammlung,nan,ist.,Problemen,liegen.,Frau,eingesprüht.,Fall,war.,warme,nan,nan,zwängen.,ziemlich,warmer,Probleme,nan,dem,des,mitbringen.,nan,Boden,als,nan,fahren.,zur,nan,Stoff,gehärtet.,jede,mit,Slums.,nan,,,,,,,,,,,,,,,,,,,,,,,5,0,5,0,0,7,7,7,,,,,,,,space,0.963251113892,,,,,,2017_Jan_30_1343,59.6114592379,spr_backupper,001,Fr18,
,zweiten,nan,nan,nan,an,wiederhergestellt.,sinken.,gepasst.,nan,deutlich.,berührt.,nan,Medikament,nan,dumme,wurden.,nan,nan,nan,nan,nan,nan,besprochen.,nan,Rilke.,Menge,nan,nan,nan,Rilke,Schule.,dunkle,nan,es,schon,kaufen.,wiederbelebt.,wieder,genug.,nan,Haus,nan,nan,wurden.,schon,nan,dunkler,deutlich.,nan,nan,rekonstruiert.,umzusetzen.,nan,nan,nan,Honigs,nan,nan,nan,gerne.,nan,nan,Honig,nan,nan,dummer,nan,nan,im,nan,gepasst,nan,genug.,nan,Milch.,nan,nan,nan,vermiest.,Milch.,im,nan,Haus,zweiten,nan,nan,berührt.,gerne.,nan,nan,Schule.,nan,gefertigt.,nan,Menge,an,nan,nan,,,,,,,,,,,,,,,,,,,,,,,5,0,5,0,0,8,8,8,,,,,,,,space,0.89361000061,,,,,,2017_Jan_30_1343,59.6114592379,spr_backupper,001,Fr18,
,,,,,,,,,,,,,,,,,,,,,,,,,,,,,,,,,,,,,,,,,,,,,,,,,,,,,,,,,,,,,,,,,,,,,,,,,,,,,,,,,,,,,,,,,,,,,,,,,,,,,,,,,,,,,,,,,,,,,,,,,5,0,5,0,,,,,,,,,,,,,,space,1.18972706795,n,2.60047698021,,2017_Jan_30_1343,59.6114592379,spr_backupper,001,Fr18,
,Bei,Sie,Die,Die,Ich,Danach,Ihr,Die,Walter,Im,Nicht,Sie,In,Beträchtliche,Sie,Es,Wir,Die,Der,Es,Die,Die,Sie,Außer,In,Man,Wir,Am,Die,In,Die,Mit,Die,Es,Bei,Jugendliche,Die,Ich,100,Er,Wir,Manche,Wir,Es,Bei,Die,Mit,Im,Die,Alle,Das,Jetzt,Er,Außer,Sie,Er,Unter,Fernab,Viele,Wir,Als,Die,Er,Die,In,Sie,Beträchtliche,Die,In,Jungtiere,Die,Die,100,Die,In,Die,Sie,Wir,Dass,In,In,Außer,Wir,Bei,Außer,Dort,Nicht,Wir,Viele,Wir,Die,Dort,Er,Die,Man,Ich,Am,Es,,,,,,,,,,,,,,,,,,,,,,,6,0,6,0,0,0,0,0,,,,,,,space,space,0.588944911957,,,,,0.385683059692,2017_Jan_30_1343,59.6114592379,spr_backupper,001,Fr18,
,der,verlassen,Schule,Uhr,nehme,wurde,Blutdruck,Schuhe,Scheel,Fernrohr,ein,verbrauchen,einer,Stücke,hatte,waren,mussten,"Uhr,",Flug,wurden,Uhr,Lösung,haben,das,meinem,machte,hatten,äußersten,Gäste,meinem,Kinder,dieser,Stücke,hat,unserer,können,müden,wurde,g,wurde,haben,Kreditnehmer,hatten,waren,unserer,Gäste,dieser,Fernrohr,Autos,Betten,Tuch,ist,wurde,den,verlassen,stellt,keinen,des,Tonnen,übergaben,die,Linie,stellt,Autos,diesem,hatte,Stücke,Teilnehmerinnen,der,sollten,Schuhe,Eislaufbahnen,g,Uhr,den,Schule,verbrauchen,mussten,es,den,der,dem,haben,der,dem,türmen,ein,übergaben,Tonnen,konnten,Kinder,türmen,hat,Formen,machte,nehme,äußeren,wurden,,,,,,,,,,,,,,,,,,,,,,,6,0,6,0,0,1,1,1,,,,,,,,space,0.502299785614,,,,,,2017_Jan_30_1343,59.6114592379,spr_backupper,001,Fr18,
,Feier,wegen,verbraucht,schlug,eine,die,kann,in,war,sahen,Tropfen,60,Studie,saftiges,keine,nur,uns,die,zum,Eimer,war,wird,die,Essen,Studium,mal,in,Rand,suchen,Studium,fuhren,Methode,wurden,uns,Ankunft,Kleidung,Teilnehmer,damals,braunen,trotz,jede,sind,in,nur,Ankunft,suchen,Methode,sahen,beider,wurden,wurde,genau,trotz,Bürgermeister,wegen,die,Umständen,Rummels,gebrauchter,dem,Sonne,101,die,beider,Zirkus,keine,saftigen,wussten,Tat,immer,in,wurden,brauner,schlug,Kakao,verbraucht,60,uns,"regnete,",Kakao,Tat,Bürgermeister,jede,Feier,Essen,sich,Tropfen,das,gebrauchte,dann,fuhren,sich,ein,wurden,mal,eine,Rand,Eimer,,,,,,,,,,,,,,,,,,,,,,,6,0,6,0,0,2,2,2,,,,,,,,space,0.452297925949,,,,,,2017_Jan_30_1343,59.6114592379,spr_backupper,001,Fr18,
,gedachte,dem,260.000,"sporadisch,",große,Leinwand,schon,Größe,der,wir,königliches,Liter,wurde,Fleisch,Lust,kleinere,durch,er,Mond,roter,aus,mit,Erlebnisse,kann,las,wieder,Dänemark,der,die,habe,mit,kann,aus,die,stand,bei,wurden,schnell,Zuckers,dem,Menge,mit,Dänemark,kleinere,stand,die,kann,wir,beteiligten,mit,dann,die,des,beschuldigten,des,Masse,können,wurde,Kleidung,Mann,"unterging,",hält,Masse,beteiligter,werden,Lust,Fleischs,überwiegend,wissen,auf,Größe,mit,Zucker,"sporadisch,",gehören,260.000,Liter,durch,hat,gehören,wissen,beschuldigten,Menge,gedachte,kann,Berge,königlichen,Auto,Kleidung,mit,mit,Berge,Hemd,unter,wieder,große,der,rote,,,,,,,,,,,,,,,,,,,,,,,6,0,6,0,0,3,3,3,,,,,,,,space,0.375771999359,,,,,,2017_Jan_30_1343,59.6114592379,spr_backupper,001,Fr18,
,man,schönen,Kilowattstunden,obschon,Packung,aus,bei,36,vierte,den,Blut,sprudelndes,jetzt,wurden,auf,"Delikte,",Büschel,"trug,",dauerte,Farbe,"Japan,","reichlichem,",bei,ich,ich,viel,einen,Stadt,Wohnung,ich,solchen,man,"wertvollem,",Stimmung,ein,ausreichendem,mit,dank,sind,bekannten,alten,"sämtlichem,",gelegentlich,"Delikte,",ein,Wohnung,man,den,Fahrer,"üblichem,",mit,richtige,bekannten,die,schönen,mit,Neuwahlen,schon,landen,das,war,nicht,mit,Fahrer,die,auf,wurden,"nicht,",wir,warmem,36,dauerhaftem,sind,obwohl,immer,Kilowattstunden,sprudelnden,Büschel,uns,immer,wir,die,alten,man,ich,schmutziger,Bluts,dem,landen,"minimalem,",solch,schmutzige,aus,"regelmäßigem,",viel,Packung,Stadt,Farbe,,,,,,,,,,,,,,,,,,,,,,,6,0,6,0,0,4,4,4,,,,,,,,space,0.500962018967,,,,,,2017_Jan_30_1343,59.6114592379,spr_backupper,001,Fr18,
,den,Wetter,elektrischer,sie,salzige,seltenem,minimalem,hätten,Bundespräsident.,roten,hat,Trinkwasser.,"nachgewiesen,",serviert.,noch,derer,frisches,war,ungefähr,geschleudert.,die,purem,"frischem,",leider,mehr,Lärm,gelegentlichen,liegen,des,mehr,unzureichenden,eine,klassischen,ziemlich,Glas,monatlichem,zusätzlichem,täglichem,auf,Skandal,Krams,künftigem,einen,deren,Glas,des,eine,roten,wurden,harten,"reichem,","Zeit,",Skandals,Störenfriede,Wetters,einem,vor,immer,im,Auto,die,am,einem,wurden,Tiere,noch,serviert.,was,von,weichem,würden,feinem,auf,sie,350,elektrische,Trinkwassers.,frischen,die,350,um,Störenfriede,Kram,der,leider,Wäsche.,hat,Mann,im,sauberen,unzureichenden,Wäsche.,feinem,kaltem,Lärm,salziger,liegen,geschleudert.,,,,,,,,,,,,,,,,,,,,,,,6,0,6,0,0,5,5,5,,,,,,,,space,0.743601083755,,,,,,2017_Jan_30_1343,59.6114592379,spr_backupper,001,Fr18,
,,,,,,,,,,,,,,,,,,,,,,,,,,,,,,,,,,,,,,,,,,,,,,,,,,,,,,,,,,,,,,,,,,,,,,,,,,,,,,,,,,,,,,,,,,,,,,,,,,,,,,,,,,,,,,,,,,,,,,,,,6,0,6,0,,,,,,,,,,,,,,space,0.822435855865,n,3.32153296471,,2017_Jan_30_1343,59.6114592379,spr_backupper,001,Fr18,
,Bei,Sie,Die,Die,Ich,Danach,Ihr,Die,Walter,Im,Nicht,Sie,In,Beträchtliche,Sie,Es,Wir,Die,Der,Es,Die,Die,Sie,Außer,In,Man,Wir,Am,Die,In,Die,Mit,Die,Es,Bei,Jugendliche,Die,Ich,100,Er,Wir,Manche,Wir,Es,Bei,Die,Mit,Im,Die,Alle,Das,Jetzt,Er,Außer,Sie,Er,Unter,Fernab,Viele,Wir,Als,Die,Er,Die,In,Sie,Beträchtliche,Die,In,Jungtiere,Die,Die,100,Die,In,Die,Sie,Wir,Dass,In,In,Außer,Wir,Bei,Außer,Dort,Nicht,Wir,Viele,Wir,Die,Dort,Er,Die,Man,Ich,Am,Es,,,,,,,,,,,,,,,,,,,,,,,7,0,7,0,0,0,0,0,,,,,,,space,space,0.523411989212,,,,,0.368479013443,2017_Jan_30_1343,59.6114592379,spr_backupper,001,Fr18,
,der,verlassen,Schule,Uhr,nehme,wurde,Blutdruck,Schuhe,Scheel,Fernrohr,ein,verbrauchen,einer,Stücke,hatte,waren,mussten,"Uhr,",Flug,wurden,Uhr,Lösung,haben,das,meinem,machte,hatten,äußersten,Gäste,meinem,Kinder,dieser,Stücke,hat,unserer,können,müden,wurde,g,wurde,haben,Kreditnehmer,hatten,waren,unserer,Gäste,dieser,Fernrohr,Autos,Betten,Tuch,ist,wurde,den,verlassen,stellt,keinen,des,Tonnen,übergaben,die,Linie,stellt,Autos,diesem,hatte,Stücke,Teilnehmerinnen,der,sollten,Schuhe,Eislaufbahnen,g,Uhr,den,Schule,verbrauchen,mussten,es,den,der,dem,haben,der,dem,türmen,ein,übergaben,Tonnen,konnten,Kinder,türmen,hat,Formen,machte,nehme,äußeren,wurden,,,,,,,,,,,,,,,,,,,,,,,7,0,7,0,0,1,1,1,,,,,,,,space,0.45129108429,,,,,,2017_Jan_30_1343,59.6114592379,spr_backupper,001,Fr18,
,Feier,wegen,verbraucht,schlug,eine,die,kann,in,war,sahen,Tropfen,60,Studie,saftiges,keine,nur,uns,die,zum,Eimer,war,wird,die,Essen,Studium,mal,in,Rand,suchen,Studium,fuhren,Methode,wurden,uns,Ankunft,Kleidung,Teilnehmer,damals,braunen,trotz,jede,sind,in,nur,Ankunft,suchen,Methode,sahen,beider,wurden,wurde,genau,trotz,Bürgermeister,wegen,die,Umständen,Rummels,gebrauchter,dem,Sonne,101,die,beider,Zirkus,keine,saftigen,wussten,Tat,immer,in,wurden,brauner,schlug,Kakao,verbraucht,60,uns,"regnete,",Kakao,Tat,Bürgermeister,jede,Feier,Essen,sich,Tropfen,das,gebrauchte,dann,fuhren,sich,ein,wurden,mal,eine,Rand,Eimer,,,,,,,,,,,,,,,,,,,,,,,7,0,7,0,0,2,2,2,,,,,,,,space,0.601870059967,,,,,,2017_Jan_30_1343,59.6114592379,spr_backupper,001,Fr18,
,gedachte,dem,260.000,"sporadisch,",große,Leinwand,schon,Größe,der,wir,königliches,Liter,wurde,Fleisch,Lust,kleinere,durch,er,Mond,roter,aus,mit,Erlebnisse,kann,las,wieder,Dänemark,der,die,habe,mit,kann,aus,die,stand,bei,wurden,schnell,Zuckers,dem,Menge,mit,Dänemark,kleinere,stand,die,kann,wir,beteiligten,mit,dann,die,des,beschuldigten,des,Masse,können,wurde,Kleidung,Mann,"unterging,",hält,Masse,beteiligter,werden,Lust,Fleischs,überwiegend,wissen,auf,Größe,mit,Zucker,"sporadisch,",gehören,260.000,Liter,durch,hat,gehören,wissen,beschuldigten,Menge,gedachte,kann,Berge,königlichen,Auto,Kleidung,mit,mit,Berge,Hemd,unter,wieder,große,der,rote,,,,,,,,,,,,,,,,,,,,,,,7,0,7,0,0,3,3,3,,,,,,,,space,1.42555212975,,,,,,2017_Jan_30_1343,59.6114592379,spr_backupper,001,Fr18,
,man,schönen,Kilowattstunden,obschon,Packung,aus,bei,36,vierte,den,Blut,sprudelndes,jetzt,wurden,auf,"Delikte,",Büschel,"trug,",dauerte,Farbe,"Japan,","reichlichem,",bei,ich,ich,viel,einen,Stadt,Wohnung,ich,solchen,man,"wertvollem,",Stimmung,ein,ausreichendem,mit,dank,sind,bekannten,alten,"sämtlichem,",gelegentlich,"Delikte,",ein,Wohnung,man,den,Fahrer,"üblichem,",mit,richtige,bekannten,die,schönen,mit,Neuwahlen,schon,landen,das,war,nicht,mit,Fahrer,die,auf,wurden,"nicht,",wir,warmem,36,dauerhaftem,sind,obwohl,immer,Kilowattstunden,sprudelnden,Büschel,uns,immer,wir,die,alten,man,ich,schmutziger,Bluts,dem,landen,"minimalem,",solch,schmutzige,aus,"regelmäßigem,",viel,Packung,Stadt,Farbe,,,,,,,,,,,,,,,,,,,,,,,7,0,7,0,0,4,4,4,,,,,,,,space,2.01433801651,,,,,,2017_Jan_30_1343,59.6114592379,spr_backupper,001,Fr18,
,den,Wetter,elektrischer,sie,salzige,seltenem,minimalem,hätten,Bundespräsident.,roten,hat,Trinkwasser.,"nachgewiesen,",serviert.,noch,derer,frisches,war,ungefähr,geschleudert.,die,purem,"frischem,",leider,mehr,Lärm,gelegentlichen,liegen,des,mehr,unzureichenden,eine,klassischen,ziemlich,Glas,monatlichem,zusätzlichem,täglichem,auf,Skandal,Krams,künftigem,einen,deren,Glas,des,eine,roten,wurden,harten,"reichem,","Zeit,",Skandals,Störenfriede,Wetters,einem,vor,immer,im,Auto,die,am,einem,wurden,Tiere,noch,serviert.,was,von,weichem,würden,feinem,auf,sie,350,elektrische,Trinkwassers.,frischen,die,350,um,Störenfriede,Kram,der,leider,Wäsche.,hat,Mann,im,sauberen,unzureichenden,Wäsche.,feinem,kaltem,Lärm,salziger,liegen,geschleudert.,,,,,,,,,,,,,,,,,,,,,,,7,0,7,0,0,5,5,5,,,,,,,,space,0.517211914062,,,,,,2017_Jan_30_1343,59.6114592379,spr_backupper,001,Fr18,
,Soldaten,die,Energie.,defekt,Wurst,dichten,täglichen,seiner,nan,Planet,den,nan,dass,nan,eine,sie,Gras,aus,drei,nan,er,Alkohol,kaltem,nichts,als,um,Besucher.,die,Herrn,als,Helmen,große,Schmuck,"vermiest,",köstlichen,Taschengeld,schwarzem,grünen,jeden,wiedergewählt.,aus,Einkommen,Besucher.,sie,köstlicher,Herrn,große,Planeten,verschrottet.,Schaumstoff,goldenen,um,wiedergewählt.,jeden.,die,Esslöffel,Dezember,ruhig,Müll.,mehr,Flut,Hauptbahnhof.,Esslöffel,verschrottet.,artgerecht,eine,nan,Tupperware,den,Untergrund,seiner,Kunsteis,jeden,defekt,ml,Energie.,nan,Grases,Stimmung,ml,die,jeden.,aus,Soldaten,nichts,nan,den,mehr,Müll.,Kraftstoff,Helmen,nan,dichten,Abduschen,um,Wurst,die,nan,,,,,,,,,,,,,,,,,,,,,,,7,0,7,0,0,6,6,6,,,,,,,,space,0.499986171722,,,,,,2017_Jan_30_1343,59.6114592379,spr_backupper,001,Fr18,
,,,,,,,,,,,,,,,,,,,,,,,,,,,,,,,,,,,,,,,,,,,,,,,,,,,,,,,,,,,,,,,,,,,,,,,,,,,,,,,,,,,,,,,,,,,,,,,,,,,,,,,,,,,,,,,,,,,,,,,,,7,0,7,0,,,,,,,,,,,,,,None,,j,7.49854803085,,2017_Jan_30_1343,59.6114592379,spr_backupper,001,Fr18,
,Bei,Sie,Die,Die,Ich,Danach,Ihr,Die,Walter,Im,Nicht,Sie,In,Beträchtliche,Sie,Es,Wir,Die,Der,Es,Die,Die,Sie,Außer,In,Man,Wir,Am,Die,In,Die,Mit,Die,Es,Bei,Jugendliche,Die,Ich,100,Er,Wir,Manche,Wir,Es,Bei,Die,Mit,Im,Die,Alle,Das,Jetzt,Er,Außer,Sie,Er,Unter,Fernab,Viele,Wir,Als,Die,Er,Die,In,Sie,Beträchtliche,Die,In,Jungtiere,Die,Die,100,Die,In,Die,Sie,Wir,Dass,In,In,Außer,Wir,Bei,Außer,Dort,Nicht,Wir,Viele,Wir,Die,Dort,Er,Die,Man,Ich,Am,Es,,,,,,,,,,,,,,,,,,,,,,,8,0,8,0,0,0,0,0,,,,,,,space,space,0.602653026581,,,,,0.487752199173,2017_Jan_30_1343,59.6114592379,spr_backupper,001,Fr18,
,der,verlassen,Schule,Uhr,nehme,wurde,Blutdruck,Schuhe,Scheel,Fernrohr,ein,verbrauchen,einer,Stücke,hatte,waren,mussten,"Uhr,",Flug,wurden,Uhr,Lösung,haben,das,meinem,machte,hatten,äußersten,Gäste,meinem,Kinder,dieser,Stücke,hat,unserer,können,müden,wurde,g,wurde,haben,Kreditnehmer,hatten,waren,unserer,Gäste,dieser,Fernrohr,Autos,Betten,Tuch,ist,wurde,den,verlassen,stellt,keinen,des,Tonnen,übergaben,die,Linie,stellt,Autos,diesem,hatte,Stücke,Teilnehmerinnen,der,sollten,Schuhe,Eislaufbahnen,g,Uhr,den,Schule,verbrauchen,mussten,es,den,der,dem,haben,der,dem,türmen,ein,übergaben,Tonnen,konnten,Kinder,türmen,hat,Formen,machte,nehme,äußeren,wurden,,,,,,,,,,,,,,,,,,,,,,,8,0,8,0,0,1,1,1,,,,,,,,space,0.501281023026,,,,,,2017_Jan_30_1343,59.6114592379,spr_backupper,001,Fr18,
,Feier,wegen,verbraucht,schlug,eine,die,kann,in,war,sahen,Tropfen,60,Studie,saftiges,keine,nur,uns,die,zum,Eimer,war,wird,die,Essen,Studium,mal,in,Rand,suchen,Studium,fuhren,Methode,wurden,uns,Ankunft,Kleidung,Teilnehmer,damals,braunen,trotz,jede,sind,in,nur,Ankunft,suchen,Methode,sahen,beider,wurden,wurde,genau,trotz,Bürgermeister,wegen,die,Umständen,Rummels,gebrauchter,dem,Sonne,101,die,beider,Zirkus,keine,saftigen,wussten,Tat,immer,in,wurden,brauner,schlug,Kakao,verbraucht,60,uns,"regnete,",Kakao,Tat,Bürgermeister,jede,Feier,Essen,sich,Tropfen,das,gebrauchte,dann,fuhren,sich,ein,wurden,mal,eine,Rand,Eimer,,,,,,,,,,,,,,,,,,,,,,,8,0,8,0,0,2,2,2,,,,,,,,space,0.386508226395,,,,,,2017_Jan_30_1343,59.6114592379,spr_backupper,001,Fr18,
,gedachte,dem,260.000,"sporadisch,",große,Leinwand,schon,Größe,der,wir,königliches,Liter,wurde,Fleisch,Lust,kleinere,durch,er,Mond,roter,aus,mit,Erlebnisse,kann,las,wieder,Dänemark,der,die,habe,mit,kann,aus,die,stand,bei,wurden,schnell,Zuckers,dem,Menge,mit,Dänemark,kleinere,stand,die,kann,wir,beteiligten,mit,dann,die,des,beschuldigten,des,Masse,können,wurde,Kleidung,Mann,"unterging,",hält,Masse,beteiligter,werden,Lust,Fleischs,überwiegend,wissen,auf,Größe,mit,Zucker,"sporadisch,",gehören,260.000,Liter,durch,hat,gehören,wissen,beschuldigten,Menge,gedachte,kann,Berge,königlichen,Auto,Kleidung,mit,mit,Berge,Hemd,unter,wieder,große,der,rote,,,,,,,,,,,,,,,,,,,,,,,8,0,8,0,0,3,3,3,,,,,,,,space,0.434571027756,,,,,,2017_Jan_30_1343,59.6114592379,spr_backupper,001,Fr18,
,man,schönen,Kilowattstunden,obschon,Packung,aus,bei,36,vierte,den,Blut,sprudelndes,jetzt,wurden,auf,"Delikte,",Büschel,"trug,",dauerte,Farbe,"Japan,","reichlichem,",bei,ich,ich,viel,einen,Stadt,Wohnung,ich,solchen,man,"wertvollem,",Stimmung,ein,ausreichendem,mit,dank,sind,bekannten,alten,"sämtlichem,",gelegentlich,"Delikte,",ein,Wohnung,man,den,Fahrer,"üblichem,",mit,richtige,bekannten,die,schönen,mit,Neuwahlen,schon,landen,das,war,nicht,mit,Fahrer,die,auf,wurden,"nicht,",wir,warmem,36,dauerhaftem,sind,obwohl,immer,Kilowattstunden,sprudelnden,Büschel,uns,immer,wir,die,alten,man,ich,schmutziger,Bluts,dem,landen,"minimalem,",solch,schmutzige,aus,"regelmäßigem,",viel,Packung,Stadt,Farbe,,,,,,,,,,,,,,,,,,,,,,,8,0,8,0,0,4,4,4,,,,,,,,space,0.452922105789,,,,,,2017_Jan_30_1343,59.6114592379,spr_backupper,001,Fr18,
,den,Wetter,elektrischer,sie,salzige,seltenem,minimalem,hätten,Bundespräsident.,roten,hat,Trinkwasser.,"nachgewiesen,",serviert.,noch,derer,frisches,war,ungefähr,geschleudert.,die,purem,"frischem,",leider,mehr,Lärm,gelegentlichen,liegen,des,mehr,unzureichenden,eine,klassischen,ziemlich,Glas,monatlichem,zusätzlichem,täglichem,auf,Skandal,Krams,künftigem,einen,deren,Glas,des,eine,roten,wurden,harten,"reichem,","Zeit,",Skandals,Störenfriede,Wetters,einem,vor,immer,im,Auto,die,am,einem,wurden,Tiere,noch,serviert.,was,von,weichem,würden,feinem,auf,sie,350,elektrische,Trinkwassers.,frischen,die,350,um,Störenfriede,Kram,der,leider,Wäsche.,hat,Mann,im,sauberen,unzureichenden,Wäsche.,feinem,kaltem,Lärm,salziger,liegen,geschleudert.,,,,,,,,,,,,,,,,,,,,,,,8,0,8,0,0,5,5,5,,,,,,,,space,1.61003184319,,,,,,2017_Jan_30_1343,59.6114592379,spr_backupper,001,Fr18,
,Soldaten,die,Energie.,defekt,Wurst,dichten,täglichen,seiner,nan,Planet,den,nan,dass,nan,eine,sie,Gras,aus,drei,nan,er,Alkohol,kaltem,nichts,als,um,Besucher.,die,Herrn,als,Helmen,große,Schmuck,"vermiest,",köstlichen,Taschengeld,schwarzem,grünen,jeden,wiedergewählt.,aus,Einkommen,Besucher.,sie,köstlicher,Herrn,große,Planeten,verschrottet.,Schaumstoff,goldenen,um,wiedergewählt.,jeden.,die,Esslöffel,Dezember,ruhig,Müll.,mehr,Flut,Hauptbahnhof.,Esslöffel,verschrottet.,artgerecht,eine,nan,Tupperware,den,Untergrund,seiner,Kunsteis,jeden,defekt,ml,Energie.,nan,Grases,Stimmung,ml,die,jeden.,aus,Soldaten,nichts,nan,den,mehr,Müll.,Kraftstoff,Helmen,nan,dichten,Abduschen,um,Wurst,die,nan,,,,,,,,,,,,,,,,,,,,,,,8,0,8,0,0,6,6,6,,,,,,,,space,0.537540912628,,,,,,2017_Jan_30_1343,59.6114592379,spr_backupper,001,Fr18,
,des,Wohnung.,nan,war.,mit,Gewebe,Einsatz,Frau,nan,ganz,Boden,nan,das,nan,Sammlung,überführt,zwängen.,Japan.,Tage.,nan,trug.,verdünnt.,Saft,mitbringen.,einmal,jede,nan,Slums.,Gantenbeins.,einmal,zur,Menge,umgearbeitet.,dass,Weins,selber,Kaffee,Tee,Fall,nan,dem,haftbar.,nan,überführt,Wein,Gantenbein.,Menge,ganz,nan,gefertigt.,Besatz,Nadelhölzer,nan,nan,Wohnung.,warmen,stattfinden.,diskutiert.,nan,als,zurückgekehrt.,nan,warmem,nan,gehalten.,Sammlung,nan,ist.,Problemen,liegen.,Frau,eingesprüht.,Fall,war.,warme,nan,nan,zwängen.,ziemlich,warmer,Probleme,nan,dem,des,mitbringen.,nan,Boden,als,nan,fahren.,zur,nan,Stoff,gehärtet.,jede,mit,Slums.,nan,,,,,,,,,,,,,,,,,,,,,,,8,0,8,0,0,7,7,7,,,,,,,,space,1.33906388283,,,,,,2017_Jan_30_1343,59.6114592379,spr_backupper,001,Fr18,
,,,,,,,,,,,,,,,,,,,,,,,,,,,,,,,,,,,,,,,,,,,,,,,,,,,,,,,,,,,,,,,,,,,,,,,,,,,,,,,,,,,,,,,,,,,,,,,,,,,,,,,,,,,,,,,,,,,,,,,,,8,0,8,0,,,,,,,,,,,,,,None,,n,4.22689914703,,2017_Jan_30_1343,59.6114592379,spr_backupper,001,Fr18,
,Bei,Sie,Die,Die,Ich,Danach,Ihr,Die,Walter,Im,Nicht,Sie,In,Beträchtliche,Sie,Es,Wir,Die,Der,Es,Die,Die,Sie,Außer,In,Man,Wir,Am,Die,In,Die,Mit,Die,Es,Bei,Jugendliche,Die,Ich,100,Er,Wir,Manche,Wir,Es,Bei,Die,Mit,Im,Die,Alle,Das,Jetzt,Er,Außer,Sie,Er,Unter,Fernab,Viele,Wir,Als,Die,Er,Die,In,Sie,Beträchtliche,Die,In,Jungtiere,Die,Die,100,Die,In,Die,Sie,Wir,Dass,In,In,Außer,Wir,Bei,Außer,Dort,Nicht,Wir,Viele,Wir,Die,Dort,Er,Die,Man,Ich,Am,Es,,,,,,,,,,,,,,,,,,,,,,,9,0,9,0,0,0,0,0,,,,,,,space,space,0.35422205925,,,,,0.604466199875,2017_Jan_30_1343,59.6114592379,spr_backupper,001,Fr18,
,der,verlassen,Schule,Uhr,nehme,wurde,Blutdruck,Schuhe,Scheel,Fernrohr,ein,verbrauchen,einer,Stücke,hatte,waren,mussten,"Uhr,",Flug,wurden,Uhr,Lösung,haben,das,meinem,machte,hatten,äußersten,Gäste,meinem,Kinder,dieser,Stücke,hat,unserer,können,müden,wurde,g,wurde,haben,Kreditnehmer,hatten,waren,unserer,Gäste,dieser,Fernrohr,Autos,Betten,Tuch,ist,wurde,den,verlassen,stellt,keinen,des,Tonnen,übergaben,die,Linie,stellt,Autos,diesem,hatte,Stücke,Teilnehmerinnen,der,sollten,Schuhe,Eislaufbahnen,g,Uhr,den,Schule,verbrauchen,mussten,es,den,der,dem,haben,der,dem,türmen,ein,übergaben,Tonnen,konnten,Kinder,türmen,hat,Formen,machte,nehme,äußeren,wurden,,,,,,,,,,,,,,,,,,,,,,,9,0,9,0,0,1,1,1,,,,,,,,space,0.467620134354,,,,,,2017_Jan_30_1343,59.6114592379,spr_backupper,001,Fr18,
,Feier,wegen,verbraucht,schlug,eine,die,kann,in,war,sahen,Tropfen,60,Studie,saftiges,keine,nur,uns,die,zum,Eimer,war,wird,die,Essen,Studium,mal,in,Rand,suchen,Studium,fuhren,Methode,wurden,uns,Ankunft,Kleidung,Teilnehmer,damals,braunen,trotz,jede,sind,in,nur,Ankunft,suchen,Methode,sahen,beider,wurden,wurde,genau,trotz,Bürgermeister,wegen,die,Umständen,Rummels,gebrauchter,dem,Sonne,101,die,beider,Zirkus,keine,saftigen,wussten,Tat,immer,in,wurden,brauner,schlug,Kakao,verbraucht,60,uns,"regnete,",Kakao,Tat,Bürgermeister,jede,Feier,Essen,sich,Tropfen,das,gebrauchte,dann,fuhren,sich,ein,wurden,mal,eine,Rand,Eimer,,,,,,,,,,,,,,,,,,,,,,,9,0,9,0,0,2,2,2,,,,,,,,space,0.441831111908,,,,,,2017_Jan_30_1343,59.6114592379,spr_backupper,001,Fr18,
,gedachte,dem,260.000,"sporadisch,",große,Leinwand,schon,Größe,der,wir,königliches,Liter,wurde,Fleisch,Lust,kleinere,durch,er,Mond,roter,aus,mit,Erlebnisse,kann,las,wieder,Dänemark,der,die,habe,mit,kann,aus,die,stand,bei,wurden,schnell,Zuckers,dem,Menge,mit,Dänemark,kleinere,stand,die,kann,wir,beteiligten,mit,dann,die,des,beschuldigten,des,Masse,können,wurde,Kleidung,Mann,"unterging,",hält,Masse,beteiligter,werden,Lust,Fleischs,überwiegend,wissen,auf,Größe,mit,Zucker,"sporadisch,",gehören,260.000,Liter,durch,hat,gehören,wissen,beschuldigten,Menge,gedachte,kann,Berge,königlichen,Auto,Kleidung,mit,mit,Berge,Hemd,unter,wieder,große,der,rote,,,,,,,,,,,,,,,,,,,,,,,9,0,9,0,0,3,3,3,,,,,,,,space,0.454297065735,,,,,,2017_Jan_30_1343,59.6114592379,spr_backupper,001,Fr18,
,man,schönen,Kilowattstunden,obschon,Packung,aus,bei,36,vierte,den,Blut,sprudelndes,jetzt,wurden,auf,"Delikte,",Büschel,"trug,",dauerte,Farbe,"Japan,","reichlichem,",bei,ich,ich,viel,einen,Stadt,Wohnung,ich,solchen,man,"wertvollem,",Stimmung,ein,ausreichendem,mit,dank,sind,bekannten,alten,"sämtlichem,",gelegentlich,"Delikte,",ein,Wohnung,man,den,Fahrer,"üblichem,",mit,richtige,bekannten,die,schönen,mit,Neuwahlen,schon,landen,das,war,nicht,mit,Fahrer,die,auf,wurden,"nicht,",wir,warmem,36,dauerhaftem,sind,obwohl,immer,Kilowattstunden,sprudelnden,Büschel,uns,immer,wir,die,alten,man,ich,schmutziger,Bluts,dem,landen,"minimalem,",solch,schmutzige,aus,"regelmäßigem,",viel,Packung,Stadt,Farbe,,,,,,,,,,,,,,,,,,,,,,,9,0,9,0,0,4,4,4,,,,,,,,space,0.393394947052,,,,,,2017_Jan_30_1343,59.6114592379,spr_backupper,001,Fr18,
,den,Wetter,elektrischer,sie,salzige,seltenem,minimalem,hätten,Bundespräsident.,roten,hat,Trinkwasser.,"nachgewiesen,",serviert.,noch,derer,frisches,war,ungefähr,geschleudert.,die,purem,"frischem,",leider,mehr,Lärm,gelegentlichen,liegen,des,mehr,unzureichenden,eine,klassischen,ziemlich,Glas,monatlichem,zusätzlichem,täglichem,auf,Skandal,Krams,künftigem,einen,deren,Glas,des,eine,roten,wurden,harten,"reichem,","Zeit,",Skandals,Störenfriede,Wetters,einem,vor,immer,im,Auto,die,am,einem,wurden,Tiere,noch,serviert.,was,von,weichem,würden,feinem,auf,sie,350,elektrische,Trinkwassers.,frischen,die,350,um,Störenfriede,Kram,der,leider,Wäsche.,hat,Mann,im,sauberen,unzureichenden,Wäsche.,feinem,kaltem,Lärm,salziger,liegen,geschleudert.,,,,,,,,,,,,,,,,,,,,,,,9,0,9,0,0,5,5,5,,,,,,,,space,0.417391061783,,,,,,2017_Jan_30_1343,59.6114592379,spr_backupper,001,Fr18,
,Soldaten,die,Energie.,defekt,Wurst,dichten,täglichen,seiner,nan,Planet,den,nan,dass,nan,eine,sie,Gras,aus,drei,nan,er,Alkohol,kaltem,nichts,als,um,Besucher.,die,Herrn,als,Helmen,große,Schmuck,"vermiest,",köstlichen,Taschengeld,schwarzem,grünen,jeden,wiedergewählt.,aus,Einkommen,Besucher.,sie,köstlicher,Herrn,große,Planeten,verschrottet.,Schaumstoff,goldenen,um,wiedergewählt.,jeden.,die,Esslöffel,Dezember,ruhig,Müll.,mehr,Flut,Hauptbahnhof.,Esslöffel,verschrottet.,artgerecht,eine,nan,Tupperware,den,Untergrund,seiner,Kunsteis,jeden,defekt,ml,Energie.,nan,Grases,Stimmung,ml,die,jeden.,aus,Soldaten,nichts,nan,den,mehr,Müll.,Kraftstoff,Helmen,nan,dichten,Abduschen,um,Wurst,die,nan,,,,,,,,,,,,,,,,,,,,,,,9,0,9,0,0,6,6,6,,,,,,,,space,0.487323999405,,,,,,2017_Jan_30_1343,59.6114592379,spr_backupper,001,Fr18,
,des,Wohnung.,nan,war.,mit,Gewebe,Einsatz,Frau,nan,ganz,Boden,nan,das,nan,Sammlung,überführt,zwängen.,Japan.,Tage.,nan,trug.,verdünnt.,Saft,mitbringen.,einmal,jede,nan,Slums.,Gantenbeins.,einmal,zur,Menge,umgearbeitet.,dass,Weins,selber,Kaffee,Tee,Fall,nan,dem,haftbar.,nan,überführt,Wein,Gantenbein.,Menge,ganz,nan,gefertigt.,Besatz,Nadelhölzer,nan,nan,Wohnung.,warmen,stattfinden.,diskutiert.,nan,als,zurückgekehrt.,nan,warmem,nan,gehalten.,Sammlung,nan,ist.,Problemen,liegen.,Frau,eingesprüht.,Fall,war.,warme,nan,nan,zwängen.,ziemlich,warmer,Probleme,nan,dem,des,mitbringen.,nan,Boden,als,nan,fahren.,zur,nan,Stoff,gehärtet.,jede,mit,Slums.,nan,,,,,,,,,,,,,,,,,,,,,,,9,0,9,0,0,7,7,7,,,,,,,,space,0.903034925461,,,,,,2017_Jan_30_1343,59.6114592379,spr_backupper,001,Fr18,
,,,,,,,,,,,,,,,,,,,,,,,,,,,,,,,,,,,,,,,,,,,,,,,,,,,,,,,,,,,,,,,,,,,,,,,,,,,,,,,,,,,,,,,,,,,,,,,,,,,,,,,,,,,,,,,,,,,,,,,,,9,0,9,0,,,,,,,,,,,,,,space,0.906785964966,j,4.31637406349,,2017_Jan_30_1343,59.6114592379,spr_backupper,001,Fr18,
,Bei,Sie,Die,Die,Ich,Danach,Ihr,Die,Walter,Im,Nicht,Sie,In,Beträchtliche,Sie,Es,Wir,Die,Der,Es,Die,Die,Sie,Außer,In,Man,Wir,Am,Die,In,Die,Mit,Die,Es,Bei,Jugendliche,Die,Ich,100,Er,Wir,Manche,Wir,Es,Bei,Die,Mit,Im,Die,Alle,Das,Jetzt,Er,Außer,Sie,Er,Unter,Fernab,Viele,Wir,Als,Die,Er,Die,In,Sie,Beträchtliche,Die,In,Jungtiere,Die,Die,100,Die,In,Die,Sie,Wir,Dass,In,In,Außer,Wir,Bei,Außer,Dort,Nicht,Wir,Viele,Wir,Die,Dort,Er,Die,Man,Ich,Am,Es,,,,,,,,,,,,,,,,,,,,,,,10,0,10,0,0,0,0,0,,,,,,,None,space,1.31019687653,,,,,,2017_Jan_30_1343,59.6114592379,spr_backupper,001,Fr18,
,der,verlassen,Schule,Uhr,nehme,wurde,Blutdruck,Schuhe,Scheel,Fernrohr,ein,verbrauchen,einer,Stücke,hatte,waren,mussten,"Uhr,",Flug,wurden,Uhr,Lösung,haben,das,meinem,machte,hatten,äußersten,Gäste,meinem,Kinder,dieser,Stücke,hat,unserer,können,müden,wurde,g,wurde,haben,Kreditnehmer,hatten,waren,unserer,Gäste,dieser,Fernrohr,Autos,Betten,Tuch,ist,wurde,den,verlassen,stellt,keinen,des,Tonnen,übergaben,die,Linie,stellt,Autos,diesem,hatte,Stücke,Teilnehmerinnen,der,sollten,Schuhe,Eislaufbahnen,g,Uhr,den,Schule,verbrauchen,mussten,es,den,der,dem,haben,der,dem,türmen,ein,übergaben,Tonnen,konnten,Kinder,türmen,hat,Formen,machte,nehme,äußeren,wurden,,,,,,,,,,,,,,,,,,,,,,,10,0,10,0,0,1,1,1,,,,,,,,space,0.507337093353,,,,,,2017_Jan_30_1343,59.6114592379,spr_backupper,001,Fr18,
,Feier,wegen,verbraucht,schlug,eine,die,kann,in,war,sahen,Tropfen,60,Studie,saftiges,keine,nur,uns,die,zum,Eimer,war,wird,die,Essen,Studium,mal,in,Rand,suchen,Studium,fuhren,Methode,wurden,uns,Ankunft,Kleidung,Teilnehmer,damals,braunen,trotz,jede,sind,in,nur,Ankunft,suchen,Methode,sahen,beider,wurden,wurde,genau,trotz,Bürgermeister,wegen,die,Umständen,Rummels,gebrauchter,dem,Sonne,101,die,beider,Zirkus,keine,saftigen,wussten,Tat,immer,in,wurden,brauner,schlug,Kakao,verbraucht,60,uns,"regnete,",Kakao,Tat,Bürgermeister,jede,Feier,Essen,sich,Tropfen,das,gebrauchte,dann,fuhren,sich,ein,wurden,mal,eine,Rand,Eimer,,,,,,,,,,,,,,,,,,,,,,,10,0,10,0,0,2,2,2,,,,,,,,space,0.55163192749,,,,,,2017_Jan_30_1343,59.6114592379,spr_backupper,001,Fr18,
,gedachte,dem,260.000,"sporadisch,",große,Leinwand,schon,Größe,der,wir,königliches,Liter,wurde,Fleisch,Lust,kleinere,durch,er,Mond,roter,aus,mit,Erlebnisse,kann,las,wieder,Dänemark,der,die,habe,mit,kann,aus,die,stand,bei,wurden,schnell,Zuckers,dem,Menge,mit,Dänemark,kleinere,stand,die,kann,wir,beteiligten,mit,dann,die,des,beschuldigten,des,Masse,können,wurde,Kleidung,Mann,"unterging,",hält,Masse,beteiligter,werden,Lust,Fleischs,überwiegend,wissen,auf,Größe,mit,Zucker,"sporadisch,",gehören,260.000,Liter,durch,hat,gehören,wissen,beschuldigten,Menge,gedachte,kann,Berge,königlichen,Auto,Kleidung,mit,mit,Berge,Hemd,unter,wieder,große,der,rote,,,,,,,,,,,,,,,,,,,,,,,10,0,10,0,0,3,3,3,,,,,,,,space,1.32340097427,,,,,,2017_Jan_30_1343,59.6114592379,spr_backupper,001,Fr18,
,man,schönen,Kilowattstunden,obschon,Packung,aus,bei,36,vierte,den,Blut,sprudelndes,jetzt,wurden,auf,"Delikte,",Büschel,"trug,",dauerte,Farbe,"Japan,","reichlichem,",bei,ich,ich,viel,einen,Stadt,Wohnung,ich,solchen,man,"wertvollem,",Stimmung,ein,ausreichendem,mit,dank,sind,bekannten,alten,"sämtlichem,",gelegentlich,"Delikte,",ein,Wohnung,man,den,Fahrer,"üblichem,",mit,richtige,bekannten,die,schönen,mit,Neuwahlen,schon,landen,das,war,nicht,mit,Fahrer,die,auf,wurden,"nicht,",wir,warmem,36,dauerhaftem,sind,obwohl,immer,Kilowattstunden,sprudelnden,Büschel,uns,immer,wir,die,alten,man,ich,schmutziger,Bluts,dem,landen,"minimalem,",solch,schmutzige,aus,"regelmäßigem,",viel,Packung,Stadt,Farbe,,,,,,,,,,,,,,,,,,,,,,,10,0,10,0,0,4,4,4,,,,,,,,space,0.428078889847,,,,,,2017_Jan_30_1343,59.6114592379,spr_backupper,001,Fr18,
,den,Wetter,elektrischer,sie,salzige,seltenem,minimalem,hätten,Bundespräsident.,roten,hat,Trinkwasser.,"nachgewiesen,",serviert.,noch,derer,frisches,war,ungefähr,geschleudert.,die,purem,"frischem,",leider,mehr,Lärm,gelegentlichen,liegen,des,mehr,unzureichenden,eine,klassischen,ziemlich,Glas,monatlichem,zusätzlichem,täglichem,auf,Skandal,Krams,künftigem,einen,deren,Glas,des,eine,roten,wurden,harten,"reichem,","Zeit,",Skandals,Störenfriede,Wetters,einem,vor,immer,im,Auto,die,am,einem,wurden,Tiere,noch,serviert.,was,von,weichem,würden,feinem,auf,sie,350,elektrische,Trinkwassers.,frischen,die,350,um,Störenfriede,Kram,der,leider,Wäsche.,hat,Mann,im,sauberen,unzureichenden,Wäsche.,feinem,kaltem,Lärm,salziger,liegen,geschleudert.,,,,,,,,,,,,,,,,,,,,,,,10,0,10,0,0,5,5,5,,,,,,,,space,0.642951965332,,,,,,2017_Jan_30_1343,59.6114592379,spr_backupper,001,Fr18,
,Soldaten,die,Energie.,defekt,Wurst,dichten,täglichen,seiner,nan,Planet,den,nan,dass,nan,eine,sie,Gras,aus,drei,nan,er,Alkohol,kaltem,nichts,als,um,Besucher.,die,Herrn,als,Helmen,große,Schmuck,"vermiest,",köstlichen,Taschengeld,schwarzem,grünen,jeden,wiedergewählt.,aus,Einkommen,Besucher.,sie,köstlicher,Herrn,große,Planeten,verschrottet.,Schaumstoff,goldenen,um,wiedergewählt.,jeden.,die,Esslöffel,Dezember,ruhig,Müll.,mehr,Flut,Hauptbahnhof.,Esslöffel,verschrottet.,artgerecht,eine,nan,Tupperware,den,Untergrund,seiner,Kunsteis,jeden,defekt,ml,Energie.,nan,Grases,Stimmung,ml,die,jeden.,aus,Soldaten,nichts,nan,den,mehr,Müll.,Kraftstoff,Helmen,nan,dichten,Abduschen,um,Wurst,die,nan,,,,,,,,,,,,,,,,,,,,,,,10,0,10,0,0,6,6,6,,,,,,,,space,0.50196814537,,,,,,2017_Jan_30_1343,59.6114592379,spr_backupper,001,Fr18,
,des,Wohnung.,nan,war.,mit,Gewebe,Einsatz,Frau,nan,ganz,Boden,nan,das,nan,Sammlung,überführt,zwängen.,Japan.,Tage.,nan,trug.,verdünnt.,Saft,mitbringen.,einmal,jede,nan,Slums.,Gantenbeins.,einmal,zur,Menge,umgearbeitet.,dass,Weins,selber,Kaffee,Tee,Fall,nan,dem,haftbar.,nan,überführt,Wein,Gantenbein.,Menge,ganz,nan,gefertigt.,Besatz,Nadelhölzer,nan,nan,Wohnung.,warmen,stattfinden.,diskutiert.,nan,als,zurückgekehrt.,nan,warmem,nan,gehalten.,Sammlung,nan,ist.,Problemen,liegen.,Frau,eingesprüht.,Fall,war.,warme,nan,nan,zwängen.,ziemlich,warmer,Probleme,nan,dem,des,mitbringen.,nan,Boden,als,nan,fahren.,zur,nan,Stoff,gehärtet.,jede,mit,Slums.,nan,,,,,,,,,,,,,,,,,,,,,,,10,0,10,0,0,7,7,7,,,,,,,,space,0.530923128128,,,,,,2017_Jan_30_1343,59.6114592379,spr_backupper,001,Fr18,
,zweiten,nan,nan,nan,an,wiederhergestellt.,sinken.,gepasst.,nan,deutlich.,berührt.,nan,Medikament,nan,dumme,wurden.,nan,nan,nan,nan,nan,nan,besprochen.,nan,Rilke.,Menge,nan,nan,nan,Rilke,Schule.,dunkle,nan,es,schon,kaufen.,wiederbelebt.,wieder,genug.,nan,Haus,nan,nan,wurden.,schon,nan,dunkler,deutlich.,nan,nan,rekonstruiert.,umzusetzen.,nan,nan,nan,Honigs,nan,nan,nan,gerne.,nan,nan,Honig,nan,nan,dummer,nan,nan,im,nan,gepasst,nan,genug.,nan,Milch.,nan,nan,nan,vermiest.,Milch.,im,nan,Haus,zweiten,nan,nan,berührt.,gerne.,nan,nan,Schule.,nan,gefertigt.,nan,Menge,an,nan,nan,,,,,,,,,,,,,,,,,,,,,,,10,0,10,0,0,8,8,8,,,,,,,,space,1.00481009483,,,,,,2017_Jan_30_1343,59.6114592379,spr_backupper,001,Fr18,
,,,,,,,,,,,,,,,,,,,,,,,,,,,,,,,,,,,,,,,,,,,,,,,,,,,,,,,,,,,,,,,,,,,,,,,,,,,,,,,,,,,,,,,,,,,,,,,,,,,,,,,,,,,,,,,,,,,,,,,,,10,0,10,0,,,,,,,,,,,,,,space,1.15759706497,n,3.69038009644,,2017_Jan_30_1343,59.6114592379,spr_backupper,001,Fr18,
,Bei,Sie,Die,Die,Ich,Danach,Ihr,Die,Walter,Im,Nicht,Sie,In,Beträchtliche,Sie,Es,Wir,Die,Der,Es,Die,Die,Sie,Außer,In,Man,Wir,Am,Die,In,Die,Mit,Die,Es,Bei,Jugendliche,Die,Ich,100,Er,Wir,Manche,Wir,Es,Bei,Die,Mit,Im,Die,Alle,Das,Jetzt,Er,Außer,Sie,Er,Unter,Fernab,Viele,Wir,Als,Die,Er,Die,In,Sie,Beträchtliche,Die,In,Jungtiere,Die,Die,100,Die,In,Die,Sie,Wir,Dass,In,In,Außer,Wir,Bei,Außer,Dort,Nicht,Wir,Viele,Wir,Die,Dort,Er,Die,Man,Ich,Am,Es,,,,,,,,,,,,,,,,,,,,,,,11,0,11,0,0,0,0,0,,,,,,,space,space,0.495105028152,,,,,0.553065061569,2017_Jan_30_1343,59.6114592379,spr_backupper,001,Fr18,
,der,verlassen,Schule,Uhr,nehme,wurde,Blutdruck,Schuhe,Scheel,Fernrohr,ein,verbrauchen,einer,Stücke,hatte,waren,mussten,"Uhr,",Flug,wurden,Uhr,Lösung,haben,das,meinem,machte,hatten,äußersten,Gäste,meinem,Kinder,dieser,Stücke,hat,unserer,können,müden,wurde,g,wurde,haben,Kreditnehmer,hatten,waren,unserer,Gäste,dieser,Fernrohr,Autos,Betten,Tuch,ist,wurde,den,verlassen,stellt,keinen,des,Tonnen,übergaben,die,Linie,stellt,Autos,diesem,hatte,Stücke,Teilnehmerinnen,der,sollten,Schuhe,Eislaufbahnen,g,Uhr,den,Schule,verbrauchen,mussten,es,den,der,dem,haben,der,dem,türmen,ein,übergaben,Tonnen,konnten,Kinder,türmen,hat,Formen,machte,nehme,äußeren,wurden,,,,,,,,,,,,,,,,,,,,,,,11,0,11,0,0,1,1,1,,,,,,,,space,0.418026924133,,,,,,2017_Jan_30_1343,59.6114592379,spr_backupper,001,Fr18,
,Feier,wegen,verbraucht,schlug,eine,die,kann,in,war,sahen,Tropfen,60,Studie,saftiges,keine,nur,uns,die,zum,Eimer,war,wird,die,Essen,Studium,mal,in,Rand,suchen,Studium,fuhren,Methode,wurden,uns,Ankunft,Kleidung,Teilnehmer,damals,braunen,trotz,jede,sind,in,nur,Ankunft,suchen,Methode,sahen,beider,wurden,wurde,genau,trotz,Bürgermeister,wegen,die,Umständen,Rummels,gebrauchter,dem,Sonne,101,die,beider,Zirkus,keine,saftigen,wussten,Tat,immer,in,wurden,brauner,schlug,Kakao,verbraucht,60,uns,"regnete,",Kakao,Tat,Bürgermeister,jede,Feier,Essen,sich,Tropfen,das,gebrauchte,dann,fuhren,sich,ein,wurden,mal,eine,Rand,Eimer,,,,,,,,,,,,,,,,,,,,,,,11,0,11,0,0,2,2,2,,,,,,,,space,0.38698387146,,,,,,2017_Jan_30_1343,59.6114592379,spr_backupper,001,Fr18,
,gedachte,dem,260.000,"sporadisch,",große,Leinwand,schon,Größe,der,wir,königliches,Liter,wurde,Fleisch,Lust,kleinere,durch,er,Mond,roter,aus,mit,Erlebnisse,kann,las,wieder,Dänemark,der,die,habe,mit,kann,aus,die,stand,bei,wurden,schnell,Zuckers,dem,Menge,mit,Dänemark,kleinere,stand,die,kann,wir,beteiligten,mit,dann,die,des,beschuldigten,des,Masse,können,wurde,Kleidung,Mann,"unterging,",hält,Masse,beteiligter,werden,Lust,Fleischs,überwiegend,wissen,auf,Größe,mit,Zucker,"sporadisch,",gehören,260.000,Liter,durch,hat,gehören,wissen,beschuldigten,Menge,gedachte,kann,Berge,königlichen,Auto,Kleidung,mit,mit,Berge,Hemd,unter,wieder,große,der,rote,,,,,,,,,,,,,,,,,,,,,,,11,0,11,0,0,3,3,3,,,,,,,,space,0.409770965576,,,,,,2017_Jan_30_1343,59.6114592379,spr_backupper,001,Fr18,
,man,schönen,Kilowattstunden,obschon,Packung,aus,bei,36,vierte,den,Blut,sprudelndes,jetzt,wurden,auf,"Delikte,",Büschel,"trug,",dauerte,Farbe,"Japan,","reichlichem,",bei,ich,ich,viel,einen,Stadt,Wohnung,ich,solchen,man,"wertvollem,",Stimmung,ein,ausreichendem,mit,dank,sind,bekannten,alten,"sämtlichem,",gelegentlich,"Delikte,",ein,Wohnung,man,den,Fahrer,"üblichem,",mit,richtige,bekannten,die,schönen,mit,Neuwahlen,schon,landen,das,war,nicht,mit,Fahrer,die,auf,wurden,"nicht,",wir,warmem,36,dauerhaftem,sind,obwohl,immer,Kilowattstunden,sprudelnden,Büschel,uns,immer,wir,die,alten,man,ich,schmutziger,Bluts,dem,landen,"minimalem,",solch,schmutzige,aus,"regelmäßigem,",viel,Packung,Stadt,Farbe,,,,,,,,,,,,,,,,,,,,,,,11,0,11,0,0,4,4,4,,,,,,,,space,0.722414016724,,,,,,2017_Jan_30_1343,59.6114592379,spr_backupper,001,Fr18,
,den,Wetter,elektrischer,sie,salzige,seltenem,minimalem,hätten,Bundespräsident.,roten,hat,Trinkwasser.,"nachgewiesen,",serviert.,noch,derer,frisches,war,ungefähr,geschleudert.,die,purem,"frischem,",leider,mehr,Lärm,gelegentlichen,liegen,des,mehr,unzureichenden,eine,klassischen,ziemlich,Glas,monatlichem,zusätzlichem,täglichem,auf,Skandal,Krams,künftigem,einen,deren,Glas,des,eine,roten,wurden,harten,"reichem,","Zeit,",Skandals,Störenfriede,Wetters,einem,vor,immer,im,Auto,die,am,einem,wurden,Tiere,noch,serviert.,was,von,weichem,würden,feinem,auf,sie,350,elektrische,Trinkwassers.,frischen,die,350,um,Störenfriede,Kram,der,leider,Wäsche.,hat,Mann,im,sauberen,unzureichenden,Wäsche.,feinem,kaltem,Lärm,salziger,liegen,geschleudert.,,,,,,,,,,,,,,,,,,,,,,,11,0,11,0,0,5,5,5,,,,,,,,space,0.61599612236,,,,,,2017_Jan_30_1343,59.6114592379,spr_backupper,001,Fr18,
,Soldaten,die,Energie.,defekt,Wurst,dichten,täglichen,seiner,nan,Planet,den,nan,dass,nan,eine,sie,Gras,aus,drei,nan,er,Alkohol,kaltem,nichts,als,um,Besucher.,die,Herrn,als,Helmen,große,Schmuck,"vermiest,",köstlichen,Taschengeld,schwarzem,grünen,jeden,wiedergewählt.,aus,Einkommen,Besucher.,sie,köstlicher,Herrn,große,Planeten,verschrottet.,Schaumstoff,goldenen,um,wiedergewählt.,jeden.,die,Esslöffel,Dezember,ruhig,Müll.,mehr,Flut,Hauptbahnhof.,Esslöffel,verschrottet.,artgerecht,eine,nan,Tupperware,den,Untergrund,seiner,Kunsteis,jeden,defekt,ml,Energie.,nan,Grases,Stimmung,ml,die,jeden.,aus,Soldaten,nichts,nan,den,mehr,Müll.,Kraftstoff,Helmen,nan,dichten,Abduschen,um,Wurst,die,nan,,,,,,,,,,,,,,,,,,,,,,,11,0,11,0,0,6,6,6,,,,,,,,space,0.537546873093,,,,,,2017_Jan_30_1343,59.6114592379,spr_backupper,001,Fr18,
,des,Wohnung.,nan,war.,mit,Gewebe,Einsatz,Frau,nan,ganz,Boden,nan,das,nan,Sammlung,überführt,zwängen.,Japan.,Tage.,nan,trug.,verdünnt.,Saft,mitbringen.,einmal,jede,nan,Slums.,Gantenbeins.,einmal,zur,Menge,umgearbeitet.,dass,Weins,selber,Kaffee,Tee,Fall,nan,dem,haftbar.,nan,überführt,Wein,Gantenbein.,Menge,ganz,nan,gefertigt.,Besatz,Nadelhölzer,nan,nan,Wohnung.,warmen,stattfinden.,diskutiert.,nan,als,zurückgekehrt.,nan,warmem,nan,gehalten.,Sammlung,nan,ist.,Problemen,liegen.,Frau,eingesprüht.,Fall,war.,warme,nan,nan,zwängen.,ziemlich,warmer,Probleme,nan,dem,des,mitbringen.,nan,Boden,als,nan,fahren.,zur,nan,Stoff,gehärtet.,jede,mit,Slums.,nan,,,,,,,,,,,,,,,,,,,,,,,11,0,11,0,0,7,7,7,,,,,,,,space,0.560364961624,,,,,,2017_Jan_30_1343,59.6114592379,spr_backupper,001,Fr18,
,,,,,,,,,,,,,,,,,,,,,,,,,,,,,,,,,,,,,,,,,,,,,,,,,,,,,,,,,,,,,,,,,,,,,,,,,,,,,,,,,,,,,,,,,,,,,,,,,,,,,,,,,,,,,,,,,,,,,,,,,11,0,11,0,,,,,,,,,,,,,,space,1.07314300537,j,2.78467988968,,2017_Jan_30_1343,59.6114592379,spr_backupper,001,Fr18,
,Bei,Sie,Die,Die,Ich,Danach,Ihr,Die,Walter,Im,Nicht,Sie,In,Beträchtliche,Sie,Es,Wir,Die,Der,Es,Die,Die,Sie,Außer,In,Man,Wir,Am,Die,In,Die,Mit,Die,Es,Bei,Jugendliche,Die,Ich,100,Er,Wir,Manche,Wir,Es,Bei,Die,Mit,Im,Die,Alle,Das,Jetzt,Er,Außer,Sie,Er,Unter,Fernab,Viele,Wir,Als,Die,Er,Die,In,Sie,Beträchtliche,Die,In,Jungtiere,Die,Die,100,Die,In,Die,Sie,Wir,Dass,In,In,Außer,Wir,Bei,Außer,Dort,Nicht,Wir,Viele,Wir,Die,Dort,Er,Die,Man,Ich,Am,Es,,,,,,,,,,,,,,,,,,,,,,,12,0,12,0,0,0,0,0,,,,,,,space,space,0.341401100159,,,,,0.435612916946,2017_Jan_30_1343,59.6114592379,spr_backupper,001,Fr18,
,der,verlassen,Schule,Uhr,nehme,wurde,Blutdruck,Schuhe,Scheel,Fernrohr,ein,verbrauchen,einer,Stücke,hatte,waren,mussten,"Uhr,",Flug,wurden,Uhr,Lösung,haben,das,meinem,machte,hatten,äußersten,Gäste,meinem,Kinder,dieser,Stücke,hat,unserer,können,müden,wurde,g,wurde,haben,Kreditnehmer,hatten,waren,unserer,Gäste,dieser,Fernrohr,Autos,Betten,Tuch,ist,wurde,den,verlassen,stellt,keinen,des,Tonnen,übergaben,die,Linie,stellt,Autos,diesem,hatte,Stücke,Teilnehmerinnen,der,sollten,Schuhe,Eislaufbahnen,g,Uhr,den,Schule,verbrauchen,mussten,es,den,der,dem,haben,der,dem,türmen,ein,übergaben,Tonnen,konnten,Kinder,türmen,hat,Formen,machte,nehme,äußeren,wurden,,,,,,,,,,,,,,,,,,,,,,,12,0,12,0,0,1,1,1,,,,,,,,space,0.626686096191,,,,,,2017_Jan_30_1343,59.6114592379,spr_backupper,001,Fr18,
,Feier,wegen,verbraucht,schlug,eine,die,kann,in,war,sahen,Tropfen,60,Studie,saftiges,keine,nur,uns,die,zum,Eimer,war,wird,die,Essen,Studium,mal,in,Rand,suchen,Studium,fuhren,Methode,wurden,uns,Ankunft,Kleidung,Teilnehmer,damals,braunen,trotz,jede,sind,in,nur,Ankunft,suchen,Methode,sahen,beider,wurden,wurde,genau,trotz,Bürgermeister,wegen,die,Umständen,Rummels,gebrauchter,dem,Sonne,101,die,beider,Zirkus,keine,saftigen,wussten,Tat,immer,in,wurden,brauner,schlug,Kakao,verbraucht,60,uns,"regnete,",Kakao,Tat,Bürgermeister,jede,Feier,Essen,sich,Tropfen,das,gebrauchte,dann,fuhren,sich,ein,wurden,mal,eine,Rand,Eimer,,,,,,,,,,,,,,,,,,,,,,,12,0,12,0,0,2,2,2,,,,,,,,space,0.399455785751,,,,,,2017_Jan_30_1343,59.6114592379,spr_backupper,001,Fr18,
,gedachte,dem,260.000,"sporadisch,",große,Leinwand,schon,Größe,der,wir,königliches,Liter,wurde,Fleisch,Lust,kleinere,durch,er,Mond,roter,aus,mit,Erlebnisse,kann,las,wieder,Dänemark,der,die,habe,mit,kann,aus,die,stand,bei,wurden,schnell,Zuckers,dem,Menge,mit,Dänemark,kleinere,stand,die,kann,wir,beteiligten,mit,dann,die,des,beschuldigten,des,Masse,können,wurde,Kleidung,Mann,"unterging,",hält,Masse,beteiligter,werden,Lust,Fleischs,überwiegend,wissen,auf,Größe,mit,Zucker,"sporadisch,",gehören,260.000,Liter,durch,hat,gehören,wissen,beschuldigten,Menge,gedachte,kann,Berge,königlichen,Auto,Kleidung,mit,mit,Berge,Hemd,unter,wieder,große,der,rote,,,,,,,,,,,,,,,,,,,,,,,12,0,12,0,0,3,3,3,,,,,,,,space,0.503215074539,,,,,,2017_Jan_30_1343,59.6114592379,spr_backupper,001,Fr18,
,man,schönen,Kilowattstunden,obschon,Packung,aus,bei,36,vierte,den,Blut,sprudelndes,jetzt,wurden,auf,"Delikte,",Büschel,"trug,",dauerte,Farbe,"Japan,","reichlichem,",bei,ich,ich,viel,einen,Stadt,Wohnung,ich,solchen,man,"wertvollem,",Stimmung,ein,ausreichendem,mit,dank,sind,bekannten,alten,"sämtlichem,",gelegentlich,"Delikte,",ein,Wohnung,man,den,Fahrer,"üblichem,",mit,richtige,bekannten,die,schönen,mit,Neuwahlen,schon,landen,das,war,nicht,mit,Fahrer,die,auf,wurden,"nicht,",wir,warmem,36,dauerhaftem,sind,obwohl,immer,Kilowattstunden,sprudelnden,Büschel,uns,immer,wir,die,alten,man,ich,schmutziger,Bluts,dem,landen,"minimalem,",solch,schmutzige,aus,"regelmäßigem,",viel,Packung,Stadt,Farbe,,,,,,,,,,,,,,,,,,,,,,,12,0,12,0,0,4,4,4,,,,,,,,space,0.509733915329,,,,,,2017_Jan_30_1343,59.6114592379,spr_backupper,001,Fr18,
,den,Wetter,elektrischer,sie,salzige,seltenem,minimalem,hätten,Bundespräsident.,roten,hat,Trinkwasser.,"nachgewiesen,",serviert.,noch,derer,frisches,war,ungefähr,geschleudert.,die,purem,"frischem,",leider,mehr,Lärm,gelegentlichen,liegen,des,mehr,unzureichenden,eine,klassischen,ziemlich,Glas,monatlichem,zusätzlichem,täglichem,auf,Skandal,Krams,künftigem,einen,deren,Glas,des,eine,roten,wurden,harten,"reichem,","Zeit,",Skandals,Störenfriede,Wetters,einem,vor,immer,im,Auto,die,am,einem,wurden,Tiere,noch,serviert.,was,von,weichem,würden,feinem,auf,sie,350,elektrische,Trinkwassers.,frischen,die,350,um,Störenfriede,Kram,der,leider,Wäsche.,hat,Mann,im,sauberen,unzureichenden,Wäsche.,feinem,kaltem,Lärm,salziger,liegen,geschleudert.,,,,,,,,,,,,,,,,,,,,,,,12,0,12,0,0,5,5,5,,,,,,,,space,0.503634929657,,,,,,2017_Jan_30_1343,59.6114592379,spr_backupper,001,Fr18,
,Soldaten,die,Energie.,defekt,Wurst,dichten,täglichen,seiner,nan,Planet,den,nan,dass,nan,eine,sie,Gras,aus,drei,nan,er,Alkohol,kaltem,nichts,als,um,Besucher.,die,Herrn,als,Helmen,große,Schmuck,"vermiest,",köstlichen,Taschengeld,schwarzem,grünen,jeden,wiedergewählt.,aus,Einkommen,Besucher.,sie,köstlicher,Herrn,große,Planeten,verschrottet.,Schaumstoff,goldenen,um,wiedergewählt.,jeden.,die,Esslöffel,Dezember,ruhig,Müll.,mehr,Flut,Hauptbahnhof.,Esslöffel,verschrottet.,artgerecht,eine,nan,Tupperware,den,Untergrund,seiner,Kunsteis,jeden,defekt,ml,Energie.,nan,Grases,Stimmung,ml,die,jeden.,aus,Soldaten,nichts,nan,den,mehr,Müll.,Kraftstoff,Helmen,nan,dichten,Abduschen,um,Wurst,die,nan,,,,,,,,,,,,,,,,,,,,,,,12,0,12,0,0,6,6,6,,,,,,,,space,0.768597841263,,,,,,2017_Jan_30_1343,59.6114592379,spr_backupper,001,Fr18,
,des,Wohnung.,nan,war.,mit,Gewebe,Einsatz,Frau,nan,ganz,Boden,nan,das,nan,Sammlung,überführt,zwängen.,Japan.,Tage.,nan,trug.,verdünnt.,Saft,mitbringen.,einmal,jede,nan,Slums.,Gantenbeins.,einmal,zur,Menge,umgearbeitet.,dass,Weins,selber,Kaffee,Tee,Fall,nan,dem,haftbar.,nan,überführt,Wein,Gantenbein.,Menge,ganz,nan,gefertigt.,Besatz,Nadelhölzer,nan,nan,Wohnung.,warmen,stattfinden.,diskutiert.,nan,als,zurückgekehrt.,nan,warmem,nan,gehalten.,Sammlung,nan,ist.,Problemen,liegen.,Frau,eingesprüht.,Fall,war.,warme,nan,nan,zwängen.,ziemlich,warmer,Probleme,nan,dem,des,mitbringen.,nan,Boden,als,nan,fahren.,zur,nan,Stoff,gehärtet.,jede,mit,Slums.,nan,,,,,,,,,,,,,,,,,,,,,,,12,0,12,0,0,7,7,7,,,,,,,,space,0.839601039886,,,,,,2017_Jan_30_1343,59.6114592379,spr_backupper,001,Fr18,
,,,,,,,,,,,,,,,,,,,,,,,,,,,,,,,,,,,,,,,,,,,,,,,,,,,,,,,,,,,,,,,,,,,,,,,,,,,,,,,,,,,,,,,,,,,,,,,,,,,,,,,,,,,,,,,,,,,,,,,,,12,0,12,0,,,,,,,,,,,,,,space,0.972347021103,n,2.29747915268,,2017_Jan_30_1343,59.6114592379,spr_backupper,001,Fr18,
,Bei,Sie,Die,Die,Ich,Danach,Ihr,Die,Walter,Im,Nicht,Sie,In,Beträchtliche,Sie,Es,Wir,Die,Der,Es,Die,Die,Sie,Außer,In,Man,Wir,Am,Die,In,Die,Mit,Die,Es,Bei,Jugendliche,Die,Ich,100,Er,Wir,Manche,Wir,Es,Bei,Die,Mit,Im,Die,Alle,Das,Jetzt,Er,Außer,Sie,Er,Unter,Fernab,Viele,Wir,Als,Die,Er,Die,In,Sie,Beträchtliche,Die,In,Jungtiere,Die,Die,100,Die,In,Die,Sie,Wir,Dass,In,In,Außer,Wir,Bei,Außer,Dort,Nicht,Wir,Viele,Wir,Die,Dort,Er,Die,Man,Ich,Am,Es,,,,,,,,,,,,,,,,,,,,,,,13,0,13,0,0,0,0,0,,,,,,,space,space,0.337453842163,,,,,0.436403036118,2017_Jan_30_1343,59.6114592379,spr_backupper,001,Fr18,
,der,verlassen,Schule,Uhr,nehme,wurde,Blutdruck,Schuhe,Scheel,Fernrohr,ein,verbrauchen,einer,Stücke,hatte,waren,mussten,"Uhr,",Flug,wurden,Uhr,Lösung,haben,das,meinem,machte,hatten,äußersten,Gäste,meinem,Kinder,dieser,Stücke,hat,unserer,können,müden,wurde,g,wurde,haben,Kreditnehmer,hatten,waren,unserer,Gäste,dieser,Fernrohr,Autos,Betten,Tuch,ist,wurde,den,verlassen,stellt,keinen,des,Tonnen,übergaben,die,Linie,stellt,Autos,diesem,hatte,Stücke,Teilnehmerinnen,der,sollten,Schuhe,Eislaufbahnen,g,Uhr,den,Schule,verbrauchen,mussten,es,den,der,dem,haben,der,dem,türmen,ein,übergaben,Tonnen,konnten,Kinder,türmen,hat,Formen,machte,nehme,äußeren,wurden,,,,,,,,,,,,,,,,,,,,,,,13,0,13,0,0,1,1,1,,,,,,,,space,0.440002918243,,,,,,2017_Jan_30_1343,59.6114592379,spr_backupper,001,Fr18,
,Feier,wegen,verbraucht,schlug,eine,die,kann,in,war,sahen,Tropfen,60,Studie,saftiges,keine,nur,uns,die,zum,Eimer,war,wird,die,Essen,Studium,mal,in,Rand,suchen,Studium,fuhren,Methode,wurden,uns,Ankunft,Kleidung,Teilnehmer,damals,braunen,trotz,jede,sind,in,nur,Ankunft,suchen,Methode,sahen,beider,wurden,wurde,genau,trotz,Bürgermeister,wegen,die,Umständen,Rummels,gebrauchter,dem,Sonne,101,die,beider,Zirkus,keine,saftigen,wussten,Tat,immer,in,wurden,brauner,schlug,Kakao,verbraucht,60,uns,"regnete,",Kakao,Tat,Bürgermeister,jede,Feier,Essen,sich,Tropfen,das,gebrauchte,dann,fuhren,sich,ein,wurden,mal,eine,Rand,Eimer,,,,,,,,,,,,,,,,,,,,,,,13,0,13,0,0,2,2,2,,,,,,,,space,0.469722986221,,,,,,2017_Jan_30_1343,59.6114592379,spr_backupper,001,Fr18,
,gedachte,dem,260.000,"sporadisch,",große,Leinwand,schon,Größe,der,wir,königliches,Liter,wurde,Fleisch,Lust,kleinere,durch,er,Mond,roter,aus,mit,Erlebnisse,kann,las,wieder,Dänemark,der,die,habe,mit,kann,aus,die,stand,bei,wurden,schnell,Zuckers,dem,Menge,mit,Dänemark,kleinere,stand,die,kann,wir,beteiligten,mit,dann,die,des,beschuldigten,des,Masse,können,wurde,Kleidung,Mann,"unterging,",hält,Masse,beteiligter,werden,Lust,Fleischs,überwiegend,wissen,auf,Größe,mit,Zucker,"sporadisch,",gehören,260.000,Liter,durch,hat,gehören,wissen,beschuldigten,Menge,gedachte,kann,Berge,königlichen,Auto,Kleidung,mit,mit,Berge,Hemd,unter,wieder,große,der,rote,,,,,,,,,,,,,,,,,,,,,,,13,0,13,0,0,3,3,3,,,,,,,,space,0.521134853363,,,,,,2017_Jan_30_1343,59.6114592379,spr_backupper,001,Fr18,
,man,schönen,Kilowattstunden,obschon,Packung,aus,bei,36,vierte,den,Blut,sprudelndes,jetzt,wurden,auf,"Delikte,",Büschel,"trug,",dauerte,Farbe,"Japan,","reichlichem,",bei,ich,ich,viel,einen,Stadt,Wohnung,ich,solchen,man,"wertvollem,",Stimmung,ein,ausreichendem,mit,dank,sind,bekannten,alten,"sämtlichem,",gelegentlich,"Delikte,",ein,Wohnung,man,den,Fahrer,"üblichem,",mit,richtige,bekannten,die,schönen,mit,Neuwahlen,schon,landen,das,war,nicht,mit,Fahrer,die,auf,wurden,"nicht,",wir,warmem,36,dauerhaftem,sind,obwohl,immer,Kilowattstunden,sprudelnden,Büschel,uns,immer,wir,die,alten,man,ich,schmutziger,Bluts,dem,landen,"minimalem,",solch,schmutzige,aus,"regelmäßigem,",viel,Packung,Stadt,Farbe,,,,,,,,,,,,,,,,,,,,,,,13,0,13,0,0,4,4,4,,,,,,,,space,0.677218914032,,,,,,2017_Jan_30_1343,59.6114592379,spr_backupper,001,Fr18,
,den,Wetter,elektrischer,sie,salzige,seltenem,minimalem,hätten,Bundespräsident.,roten,hat,Trinkwasser.,"nachgewiesen,",serviert.,noch,derer,frisches,war,ungefähr,geschleudert.,die,purem,"frischem,",leider,mehr,Lärm,gelegentlichen,liegen,des,mehr,unzureichenden,eine,klassischen,ziemlich,Glas,monatlichem,zusätzlichem,täglichem,auf,Skandal,Krams,künftigem,einen,deren,Glas,des,eine,roten,wurden,harten,"reichem,","Zeit,",Skandals,Störenfriede,Wetters,einem,vor,immer,im,Auto,die,am,einem,wurden,Tiere,noch,serviert.,was,von,weichem,würden,feinem,auf,sie,350,elektrische,Trinkwassers.,frischen,die,350,um,Störenfriede,Kram,der,leider,Wäsche.,hat,Mann,im,sauberen,unzureichenden,Wäsche.,feinem,kaltem,Lärm,salziger,liegen,geschleudert.,,,,,,,,,,,,,,,,,,,,,,,13,0,13,0,0,5,5,5,,,,,,,,space,0.705493927002,,,,,,2017_Jan_30_1343,59.6114592379,spr_backupper,001,Fr18,
,Soldaten,die,Energie.,defekt,Wurst,dichten,täglichen,seiner,nan,Planet,den,nan,dass,nan,eine,sie,Gras,aus,drei,nan,er,Alkohol,kaltem,nichts,als,um,Besucher.,die,Herrn,als,Helmen,große,Schmuck,"vermiest,",köstlichen,Taschengeld,schwarzem,grünen,jeden,wiedergewählt.,aus,Einkommen,Besucher.,sie,köstlicher,Herrn,große,Planeten,verschrottet.,Schaumstoff,goldenen,um,wiedergewählt.,jeden.,die,Esslöffel,Dezember,ruhig,Müll.,mehr,Flut,Hauptbahnhof.,Esslöffel,verschrottet.,artgerecht,eine,nan,Tupperware,den,Untergrund,seiner,Kunsteis,jeden,defekt,ml,Energie.,nan,Grases,Stimmung,ml,die,jeden.,aus,Soldaten,nichts,nan,den,mehr,Müll.,Kraftstoff,Helmen,nan,dichten,Abduschen,um,Wurst,die,nan,,,,,,,,,,,,,,,,,,,,,,,13,0,13,0,0,6,6,6,,,,,,,,space,0.532951116562,,,,,,2017_Jan_30_1343,59.6114592379,spr_backupper,001,Fr18,
,des,Wohnung.,nan,war.,mit,Gewebe,Einsatz,Frau,nan,ganz,Boden,nan,das,nan,Sammlung,überführt,zwängen.,Japan.,Tage.,nan,trug.,verdünnt.,Saft,mitbringen.,einmal,jede,nan,Slums.,Gantenbeins.,einmal,zur,Menge,umgearbeitet.,dass,Weins,selber,Kaffee,Tee,Fall,nan,dem,haftbar.,nan,überführt,Wein,Gantenbein.,Menge,ganz,nan,gefertigt.,Besatz,Nadelhölzer,nan,nan,Wohnung.,warmen,stattfinden.,diskutiert.,nan,als,zurückgekehrt.,nan,warmem,nan,gehalten.,Sammlung,nan,ist.,Problemen,liegen.,Frau,eingesprüht.,Fall,war.,warme,nan,nan,zwängen.,ziemlich,warmer,Probleme,nan,dem,des,mitbringen.,nan,Boden,als,nan,fahren.,zur,nan,Stoff,gehärtet.,jede,mit,Slums.,nan,,,,,,,,,,,,,,,,,,,,,,,13,0,13,0,0,7,7,7,,,,,,,,space,0.536556005478,,,,,,2017_Jan_30_1343,59.6114592379,spr_backupper,001,Fr18,
,zweiten,nan,nan,nan,an,wiederhergestellt.,sinken.,gepasst.,nan,deutlich.,berührt.,nan,Medikament,nan,dumme,wurden.,nan,nan,nan,nan,nan,nan,besprochen.,nan,Rilke.,Menge,nan,nan,nan,Rilke,Schule.,dunkle,nan,es,schon,kaufen.,wiederbelebt.,wieder,genug.,nan,Haus,nan,nan,wurden.,schon,nan,dunkler,deutlich.,nan,nan,rekonstruiert.,umzusetzen.,nan,nan,nan,Honigs,nan,nan,nan,gerne.,nan,nan,Honig,nan,nan,dummer,nan,nan,im,nan,gepasst,nan,genug.,nan,Milch.,nan,nan,nan,vermiest.,Milch.,im,nan,Haus,zweiten,nan,nan,berührt.,gerne.,nan,nan,Schule.,nan,gefertigt.,nan,Menge,an,nan,nan,,,,,,,,,,,,,,,,,,,,,,,13,0,13,0,0,8,8,8,,,,,,,,space,0.485424041748,,,,,,2017_Jan_30_1343,59.6114592379,spr_backupper,001,Fr18,
,,,,,,,,,,,,,,,,,,,,,,,,,,,,,,,,,,,,,,,,,,,,,,,,,,,,,,,,,,,,,,,,,,,,,,,,,,,,,,,,,,,,,,,,,,,,,,,,,,,,,,,,,,,,,,,,,,,,,,,,,13,0,13,0,,,,,,,,,,,,,,space,1.0406370163,j,11.1194319725,,2017_Jan_30_1343,59.6114592379,spr_backupper,001,Fr18,
,Bei,Sie,Die,Die,Ich,Danach,Ihr,Die,Walter,Im,Nicht,Sie,In,Beträchtliche,Sie,Es,Wir,Die,Der,Es,Die,Die,Sie,Außer,In,Man,Wir,Am,Die,In,Die,Mit,Die,Es,Bei,Jugendliche,Die,Ich,100,Er,Wir,Manche,Wir,Es,Bei,Die,Mit,Im,Die,Alle,Das,Jetzt,Er,Außer,Sie,Er,Unter,Fernab,Viele,Wir,Als,Die,Er,Die,In,Sie,Beträchtliche,Die,In,Jungtiere,Die,Die,100,Die,In,Die,Sie,Wir,Dass,In,In,Außer,Wir,Bei,Außer,Dort,Nicht,Wir,Viele,Wir,Die,Dort,Er,Die,Man,Ich,Am,Es,,,,,,,,,,,,,,,,,,,,,,,14,0,14,0,0,0,0,0,,,,,,,space,space,0.816827058792,,,,,0.502711057663,2017_Jan_30_1343,59.6114592379,spr_backupper,001,Fr18,
,der,verlassen,Schule,Uhr,nehme,wurde,Blutdruck,Schuhe,Scheel,Fernrohr,ein,verbrauchen,einer,Stücke,hatte,waren,mussten,"Uhr,",Flug,wurden,Uhr,Lösung,haben,das,meinem,machte,hatten,äußersten,Gäste,meinem,Kinder,dieser,Stücke,hat,unserer,können,müden,wurde,g,wurde,haben,Kreditnehmer,hatten,waren,unserer,Gäste,dieser,Fernrohr,Autos,Betten,Tuch,ist,wurde,den,verlassen,stellt,keinen,des,Tonnen,übergaben,die,Linie,stellt,Autos,diesem,hatte,Stücke,Teilnehmerinnen,der,sollten,Schuhe,Eislaufbahnen,g,Uhr,den,Schule,verbrauchen,mussten,es,den,der,dem,haben,der,dem,türmen,ein,übergaben,Tonnen,konnten,Kinder,türmen,hat,Formen,machte,nehme,äußeren,wurden,,,,,,,,,,,,,,,,,,,,,,,14,0,14,0,0,1,1,1,,,,,,,,space,0.702160835266,,,,,,2017_Jan_30_1343,59.6114592379,spr_backupper,001,Fr18,
,Feier,wegen,verbraucht,schlug,eine,die,kann,in,war,sahen,Tropfen,60,Studie,saftiges,keine,nur,uns,die,zum,Eimer,war,wird,die,Essen,Studium,mal,in,Rand,suchen,Studium,fuhren,Methode,wurden,uns,Ankunft,Kleidung,Teilnehmer,damals,braunen,trotz,jede,sind,in,nur,Ankunft,suchen,Methode,sahen,beider,wurden,wurde,genau,trotz,Bürgermeister,wegen,die,Umständen,Rummels,gebrauchter,dem,Sonne,101,die,beider,Zirkus,keine,saftigen,wussten,Tat,immer,in,wurden,brauner,schlug,Kakao,verbraucht,60,uns,"regnete,",Kakao,Tat,Bürgermeister,jede,Feier,Essen,sich,Tropfen,das,gebrauchte,dann,fuhren,sich,ein,wurden,mal,eine,Rand,Eimer,,,,,,,,,,,,,,,,,,,,,,,14,0,14,0,0,2,2,2,,,,,,,,space,0.449174165726,,,,,,2017_Jan_30_1343,59.6114592379,spr_backupper,001,Fr18,
