text,sent48,sent9,sent8,sent15,sent3,sent2,sent1,sent14,sent7,sent6,sent5,sent4,sent57,sent56,sent55,sent54,sent53,sent52,sent51,sent50,sent13,sent12,sent11,sent10,sent17,sent16,sent59,sent58,sent93,sent92,sent91,sent90,sent97,sent96,sent95,sent94,sent98,sent22,sent23,sent20,sent21,sent26,sent27,sent24,sent25,sent28,sent29,sent68,sent69,sent66,sent67,sent64,sent65,sent62,sent63,sent60,sent61,sent31,sent30,sent33,sent32,sent35,sent34,sent37,sent36,sent39,sent38,sent79,sent78,sent75,sent74,sent77,sent76,sent71,sent70,sent73,sent72,sent19,sent49,sent18,sent44,sent45,sent84,sent85,sent86,sent87,sent80,sent81,sent82,sent83,sent40,sent41,sent42,sent43,sent88,sent89,sent46,sent47,intros.thisRepN,intros.thisTrialN,intros.thisN,intros.thisIndex,trials.thisRepN,trials.thisTrialN,trials.thisN,trials.thisIndex,testWords.thisRepN,testWords.thisTrialN,testWords.thisN,testWords.thisIndex,test1,test3,test2,test5,test4,test7,test6,test9,test8,test10,realTrials.thisRepN,realTrials.thisTrialN,realTrials.thisN,realTrials.thisIndex,words.thisRepN,words.thisTrialN,words.thisN,words.thisIndex,key_resp_3.keys,key_resp_3.rt,key_resp_8.keys,key_resp_10.keys,key_resp_10.rt,key_resp_6.keys,wordRead.keys,wordRead.rt,key_resp_5.keys,questAnswer.keys,questAnswer.rt,key_resp_6.rt,date,frameRate,expName,session,participant,
"Vielen Dank, dass Sie an diesem Experiment teilnehmen. Vor dem eigentlichen Experiment sehen Sie nun zuerst eine kurze Erläuterung, und Sie absolvieren ein kurze Übungsphase.

Das Experiment dauert insgesamt nicht mehr als 45 Minuten.",,,,,,,,,,,,,,,,,,,,,,,,,,,,,,,,,,,,,,,,,,,,,,,,,,,,,,,,,,,,,,,,,,,,,,,,,,,,,,,,,,,,,,,,,,,,,,,,,,,0,0,0,0,,,,,,,,,,,,,,,,,,,,,,,,,,,,,,,,,,,,,,,2017_Feb_01_1504,59.3584543579,spr_backupper,001,Mi10,
"In diesem Experiment lesen Sie deutsche Sätze, indem Sie sich von Wort zu Wort mit der Leertaste durch den Satz klicken.",,,,,,,,,,,,,,,,,,,,,,,,,,,,,,,,,,,,,,,,,,,,,,,,,,,,,,,,,,,,,,,,,,,,,,,,,,,,,,,,,,,,,,,,,,,,,,,,,,,0,1,1,1,,,,,,,,,,,,,,,,,,,,,,,,,,,,,,,,,,,,,,,2017_Feb_01_1504,59.3584543579,spr_backupper,001,Mi10,
"Sie sehen dabei immer nur das aktuelle Wort. Die Lesegeschwindigkeit bestimmen Sie vollständig selber. Vor jedem Satz sehen Sie in der Bildschirmmitte für zwei Sekunden ein + an der Stelle, an der dann die Wörter erscheinen.",,,,,,,,,,,,,,,,,,,,,,,,,,,,,,,,,,,,,,,,,,,,,,,,,,,,,,,,,,,,,,,,,,,,,,,,,,,,,,,,,,,,,,,,,,,,,,,,,,,0,2,2,2,,,,,,,,,,,,,,,,,,,,,,,,,,,,,,,,,,,,,,,2017_Feb_01_1504,59.3584543579,spr_backupper,001,Mi10,
"Nach jedem Satz wird Ihnen eine Ja/Nein-Verständnisfrage zum zuvor gelesenen Satz gestellt, die Sie mit der J-Taste für "Ja" und der N-Taste für "Nein" beantworten. Antworten Sie möglichst spontan und ohne lange Nachzudenken.",,,,,,,,,,,,,,,,,,,,,,,,,,,,,,,,,,,,,,,,,,,,,,,,,,,,,,,,,,,,,,,,,,,,,,,,,,,,,,,,,,,,,,,,,,,,,,,,,,,0,3,3,3,,,,,,,,,,,,,,,,,,,,,,,,,,,,,,,,,,,,,,,2017_Feb_01_1504,59.3584543579,spr_backupper,001,Mi10,
"Unterbrechen Sie das Experiment bitte auf keinen Fall, stellen Sie den ExperimentatorInnen nach dem Experimentbeginn keine Fragen, und lassen Sie sich nicht durch Umgebungsgeräusche ablenken.",,,,,,,,,,,,,,,,,,,,,,,,,,,,,,,,,,,,,,,,,,,,,,,,,,,,,,,,,,,,,,,,,,,,,,,,,,,,,,,,,,,,,,,,,,,,,,,,,,,0,4,4,4,,,,,,,,,,,,,,,,,,,,,,,,,,,,,,,,,,,,,,,2017_Feb_01_1504,59.3584543579,spr_backupper,001,Mi10,
"Im nächsten Schritt beantworten Sie bitte eine Frage zu Ihren Deutschkenntnissen. Danach beginnt eine Übungseinheit, mit der Sie sich an die Art der Durchführung dieses Experiments gewöhnen können.",,,,,,,,,,,,,,,,,,,,,,,,,,,,,,,,,,,,,,,,,,,,,,,,,,,,,,,,,,,,,,,,,,,,,,,,,,,,,,,,,,,,,,,,,,,,,,,,,,,0,5,5,5,,,,,,,,,,,,,,,,,,,,,,,,,,,,,,,,,,,,,,,2017_Feb_01_1504,59.3584543579,spr_backupper,001,Mi10,
,,,,,,,,,,,,,,,,,,,,,,,,,,,,,,,,,,,,,,,,,,,,,,,,,,,,,,,,,,,,,,,,,,,,,,,,,,,,,,,,,,,,,,,,,,,,,,,,,,,,,,,,,,,,,,,,,,,,,,,,,,,,,,,,,j,11.0016651154,,,,,,,,,,,2017_Feb_01_1504,59.3584543579,spr_backupper,001,Mi10,
,,,,,,,,,,,,,,,,,,,,,,,,,,,,,,,,,,,,,,,,,,,,,,,,,,,,,,,,,,,,,,,,,,,,,,,,,,,,,,,,,,,,,,,,,,,,,,,,,,,,,,,0,0,0,0,,,,,,,,,,,,,,,,,,,,,,,,,None,,,,,,,,,,2017_Feb_01_1504,59.3584543579,spr_backupper,001,Mi10,
,,,,,,,,,,,,,,,,,,,,,,,,,,,,,,,,,,,,,,,,,,,,,,,,,,,,,,,,,,,,,,,,,,,,,,,,,,,,,,,,,,,,,,,,,,,,,,,,,,,,,,,1,0,1,0,,,,,,,,,,,,,,,,,,,,,,,,,None,,,,,,,,,,2017_Feb_01_1504,59.3584543579,spr_backupper,001,Mi10,
,,,,,,,,,,,,,,,,,,,,,,,,,,,,,,,,,,,,,,,,,,,,,,,,,,,,,,,,,,,,,,,,,,,,,,,,,,,,,,,,,,,,,,,,,,,,,,,,,,,,,,,2,0,2,0,,,,,,,,,,,,,,,,,,,,,,,,,None,,,,,,,,,,2017_Feb_01_1504,59.3584543579,spr_backupper,001,Mi10,
,,,,,,,,,,,,,,,,,,,,,,,,,,,,,,,,,,,,,,,,,,,,,,,,,,,,,,,,,,,,,,,,,,,,,,,,,,,,,,,,,,,,,,,,,,,,,,,,,,,,,,,3,0,3,0,,,,,,,,,,,,,,,,,,,,,,,,,None,,,,,,,,,,2017_Feb_01_1504,59.3584543579,spr_backupper,001,Mi10,
,,,,,,,,,,,,,,,,,,,,,,,,,,,,,,,,,,,,,,,,,,,,,,,,,,,,,,,,,,,,,,,,,,,,,,,,,,,,,,,,,,,,,,,,,,,,,,,,,,,,,,,4,0,4,0,,,,,,,,,,,,,,,,,,,,,,,,,None,,,,,,,,,,2017_Feb_01_1504,59.3584543579,spr_backupper,001,Mi10,
,,,,,,,,,,,,,,,,,,,,,,,,,,,,,,,,,,,,,,,,,,,,,,,,,,,,,,,,,,,,,,,,,,,,,,,,,,,,,,,,,,,,,,,,,,,,,,,,,,,,,,,5,0,5,0,,,,,,,,,,,,,,,,,,,,,,,,,None,,,,,,,,,,2017_Feb_01_1504,59.3584543579,spr_backupper,001,Mi10,
,,,,,,,,,,,,,,,,,,,,,,,,,,,,,,,,,,,,,,,,,,,,,,,,,,,,,,,,,,,,,,,,,,,,,,,,,,,,,,,,,,,,,,,,,,,,,,,,,,,,,,,6,0,6,0,,,,,,,,,,,,,,,,,,,,,,,,,None,,,,,,,,,,2017_Feb_01_1504,59.3584543579,spr_backupper,001,Mi10,
,,,,,,,,,,,,,,,,,,,,,,,,,,,,,,,,,,,,,,,,,,,,,,,,,,,,,,,,,,,,,,,,,,,,,,,,,,,,,,,,,,,,,,,,,,,,,,,,,,,,,,,7,0,7,0,,,,,,,,,,,,,,,,,,,,,,,,,None,,,,,,,,,,2017_Feb_01_1504,59.3584543579,spr_backupper,001,Mi10,
,,,,,,,,,,,,,,,,,,,,,,,,,,,,,,,,,,,,,,,,,,,,,,,,,,,,,,,,,,,,,,,,,,,,,,,,,,,,,,,,,,,,,,,,,,,,,,,,,,,,,,,8,0,8,0,,,,,,,,,,,,,,,,,,,,,,,,,None,,,,,,,,,,2017_Feb_01_1504,59.3584543579,spr_backupper,001,Mi10,
,,,,,,,,,,,,,,,,,,,,,,,,,,,,,,,,,,,,,,,,,,,,,,,,,,,,,,,,,,,,,,,,,,,,,,,,,,,,,,,,,,,,,,,,,,,,,,,,,,,,,,,9,0,9,0,,,,,,,,,,,,,,,,,,,,,,,,,None,,,,,,,,,,2017_Feb_01_1504,59.3584543579,spr_backupper,001,Mi10,
,,,,,,,,,,,,,,,,,,,,,,,,,,,,,,,,,,,,,,,,,,,,,,,,,,,,,,,,,,,,,,,,,,,,,,,,,,,,,,,,,,,,,,,,,,,,,,,,,,,,,,,,,,,,,,,,,,,,,,,,,,,,,,,,,,,,space,3.33833694458,,,,,,,,2017_Feb_01_1504,59.3584543579,spr_backupper,001,Mi10,
,In,Bei,Es,Wir,Die,Er,Die,Beträchtliche,Viele,Wir,Die,Bei,Er,Die,Wir,Jugendliche,Die,In,Die,Er,Die,Die,Wir,Ich,Nicht,Sie,Mit,Der,Sie,Die,Bei,In,Nicht,Wir,Jungtiere,Wir,Außer,Dass,In,Außer,Walter,Sie,Die,Wir,Ich,Die,Ihr,Man,Im,Die,Ich,Die,Die,Sie,In,Es,Alle,Die,100,Man,Im,Sie,Er,Fernab,Es,Sie,Danach,Es,Unter,Wir,Jetzt,Außer,Am,Die,Viele,Dort,Die,In,In,Außer,Er,Als,Es,Wir,Beträchtliche,Die,Das,Sie,Die,Bei,Die,Dort,Am,Mit,In,100,Manche,Die,,,,,,,,,,,,,,,,,,,,,,,0,0,0,0,0,0,0,0,,,,,,None,space,1.00486707687,,,,,2017_Feb_01_1504,59.3584543579,spr_backupper,001,Mi10,
,diesem,der,wurden,übergaben,Kinder,stellt,Autos,Stücke,Tonnen,mussten,Formen,unserer,wurde,Stücke,übergaben,können,Eislaufbahnen,den,Gäste,stellt,Schule,Schuhe,haben,nehme,ein,haben,dieser,Flug,verbrauchen,Autos,unserer,einer,ein,mussten,sollten,haben,dem,es,der,dem,Scheel,verbrauchen,Lösung,hatten,wurde,Gäste,Blutdruck,machte,Fernrohr,Teilnehmerinnen,nehme,Kinder,Schuhe,verlassen,der,wurden,Betten,Uhr,g,machte,Fernrohr,verlassen,wurde,des,waren,hatte,wurde,waren,keinen,konnten,ist,den,äußersten,Uhr,Tonnen,türmen,müden,meinem,den,das,hat,die,hat,hatten,Stücke,"Uhr,",Tuch,hatte,Schule,der,Uhr,türmen,äußeren,dieser,meinem,g,Kreditnehmer,Linie,,,,,,,,,,,,,,,,,,,,,,,0,0,0,0,0,1,1,1,,,,,,,space,0.886893987656,,,,,2017_Feb_01_1504,59.3584543579,spr_backupper,001,Mi10,
,Zirkus,Feier,Eimer,dem,fuhren,die,beider,saftigen,gebrauchter,uns,wurden,Ankunft,trotz,wurden,das,Kleidung,wurden,Kakao,suchen,die,verbraucht,in,jede,eine,Tropfen,die,Methode,zum,60,beider,Ankunft,Studie,Tropfen,uns,immer,jede,Essen,"regnete,",Tat,Bürgermeister,war,60,wird,in,damals,suchen,kann,mal,sahen,wussten,eine,fuhren,in,wegen,Tat,Eimer,wurden,war,braunen,mal,sahen,wegen,trotz,Rummels,nur,keine,die,nur,Umständen,dann,genau,Bürgermeister,Rand,schlug,gebrauchte,sich,Teilnehmer,Studium,Kakao,Essen,ein,Sonne,uns,in,saftiges,die,wurde,keine,verbraucht,Feier,schlug,sich,Rand,Methode,Studium,brauner,sind,101,,,,,,,,,,,,,,,,,,,,,,,0,0,0,0,0,2,2,2,,,,,,,space,0.919085025787,,,,,2017_Feb_01_1504,59.3584543579,spr_backupper,001,Mi10,
,werden,gedachte,rote,Mann,mit,Masse,beteiligter,Fleischs,Kleidung,durch,unter,stand,des,aus,Auto,bei,mit,gehören,die,Masse,260.000,Größe,Menge,große,königliches,Erlebnisse,kann,Mond,Liter,beteiligten,stand,wurde,königlichen,durch,auf,Menge,kann,hat,wissen,beschuldigten,der,Liter,mit,Dänemark,schnell,die,schon,wieder,wir,überwiegend,große,mit,Größe,des,wissen,roter,mit,aus,Zuckers,wieder,wir,dem,dem,wurde,kleinere,Lust,Leinwand,kleinere,können,mit,die,beschuldigten,der,"sporadisch,",Kleidung,Berge,wurden,las,gehören,kann,Hemd,"unterging,",die,Dänemark,Fleisch,er,dann,Lust,260.000,gedachte,"sporadisch,",Berge,der,kann,habe,Zucker,mit,hält,,,,,,,,,,,,,,,,,,,,,,,0,0,0,0,0,3,3,3,,,,,,,space,0.982916116714,,,,,2017_Feb_01_1504,59.3584543579,spr_backupper,001,Mi10,
,die,man,Farbe,das,solch,mit,Fahrer,wurden,landen,Büschel,"regelmäßigem,",ein,bekannten,"wertvollem,",dem,ausreichendem,dauerhaftem,immer,Wohnung,mit,Kilowattstunden,36,alten,Packung,Blut,bei,man,dauerte,sprudelnden,Fahrer,ein,jetzt,Bluts,Büschel,warmem,alten,ich,uns,wir,die,vierte,sprudelndes,"reichlichem,",gelegentlich,dank,Wohnung,bei,viel,den,"nicht,",Packung,solchen,36,schönen,wir,Farbe,"üblichem,","Japan,",sind,viel,den,schönen,bekannten,schon,"Delikte,",auf,aus,"Delikte,",Neuwahlen,"minimalem,",richtige,die,Stadt,obwohl,landen,schmutziger,mit,ich,immer,ich,aus,war,Stimmung,einen,wurden,"trug,",mit,auf,Kilowattstunden,man,obschon,schmutzige,Stadt,man,ich,sind,"sämtlichem,",nicht,,,,,,,,,,,,,,,,,,,,,,,0,0,0,0,0,4,4,4,,,,,,,space,0.88981795311,,,,,2017_Feb_01_1504,59.3584543579,spr_backupper,001,Mi10,
,Tiere,den,geschleudert.,Auto,unzureichenden,einem,wurden,serviert.,im,frischen,kaltem,Glas,Skandals,klassischen,Mann,monatlichem,feinem,350,des,einem,elektrischer,hätten,Krams,salzige,hat,"frischem,",eine,ungefähr,Trinkwassers.,wurden,Glas,"nachgewiesen,",hat,frisches,weichem,Kram,leider,die,um,Störenfriede,Bundespräsident.,Trinkwasser.,purem,einen,täglichem,des,minimalem,Lärm,roten,was,salziger,unzureichenden,würden,Wetters,von,geschleudert.,harten,die,auf,Lärm,roten,Wetter,Skandal,immer,deren,noch,seltenem,derer,vor,sauberen,"Zeit,",Störenfriede,liegen,sie,im,Wäsche.,zusätzlichem,mehr,350,leider,feinem,die,ziemlich,gelegentlichen,serviert.,war,"reichem,",noch,elektrische,der,sie,Wäsche.,liegen,eine,mehr,auf,künftigem,am,,,,,,,,,,,,,,,,,,,,,,,0,0,0,0,0,5,5,5,,,,,,,space,0.906435012817,,,,,2017_Feb_01_1504,59.3584543579,spr_backupper,001,Mi10,
,artgerecht,Soldaten,nan,mehr,Helmen,Esslöffel,verschrottet.,nan,Müll.,Grases,Abduschen,köstlicher,wiedergewählt.,Schmuck,mehr,Taschengeld,Kunsteis,ml,Herrn,Esslöffel,Energie.,seiner,aus,Wurst,den,kaltem,große,drei,nan,verschrottet.,köstlichen,dass,den,Gras,Untergrund,aus,nichts,Stimmung,die,jeden.,nan,nan,Alkohol,Besucher.,grünen,Herrn,täglichen,um,Planeten,Tupperware,Wurst,Helmen,seiner,die,den,nan,Schaumstoff,er,jeden,um,Planet,die,wiedergewählt.,ruhig,sie,eine,dichten,sie,Dezember,Kraftstoff,um,jeden.,die,defekt,Müll.,nan,schwarzem,als,ml,nichts,dichten,Flut,"vermiest,",Besucher.,nan,aus,goldenen,eine,Energie.,Soldaten,defekt,nan,die,große,als,jeden,Einkommen,Hauptbahnhof.,,,,,,,,,,,,,,,,,,,,,,,0,0,0,0,0,6,6,6,,,,,,,space,1.2780110836,,,,,2017_Feb_01_1504,59.3584543579,spr_backupper,001,Mi10,
,,,,,,,,,,,,,,,,,,,,,,,,,,,,,,,,,,,,,,,,,,,,,,,,,,,,,,,,,,,,,,,,,,,,,,,,,,,,,,,,,,,,,,,,,,,,,,,,,,,,,,,,,,,,,,,,,,,,,,,,,0,0,0,0,,,,,,,,,,,,,None,j,2.99834609032,,2017_Feb_01_1504,59.3584543579,spr_backupper,001,Mi10,
,In,Bei,Es,Wir,Die,Er,Die,Beträchtliche,Viele,Wir,Die,Bei,Er,Die,Wir,Jugendliche,Die,In,Die,Er,Die,Die,Wir,Ich,Nicht,Sie,Mit,Der,Sie,Die,Bei,In,Nicht,Wir,Jungtiere,Wir,Außer,Dass,In,Außer,Walter,Sie,Die,Wir,Ich,Die,Ihr,Man,Im,Die,Ich,Die,Die,Sie,In,Es,Alle,Die,100,Man,Im,Sie,Er,Fernab,Es,Sie,Danach,Es,Unter,Wir,Jetzt,Außer,Am,Die,Viele,Dort,Die,In,In,Außer,Er,Als,Es,Wir,Beträchtliche,Die,Das,Sie,Die,Bei,Die,Dort,Am,Mit,In,100,Manche,Die,,,,,,,,,,,,,,,,,,,,,,,1,0,1,0,0,0,0,0,,,,,,None,space,0.51720905304,,,,,2017_Feb_01_1504,59.3584543579,spr_backupper,001,Mi10,
,diesem,der,wurden,übergaben,Kinder,stellt,Autos,Stücke,Tonnen,mussten,Formen,unserer,wurde,Stücke,übergaben,können,Eislaufbahnen,den,Gäste,stellt,Schule,Schuhe,haben,nehme,ein,haben,dieser,Flug,verbrauchen,Autos,unserer,einer,ein,mussten,sollten,haben,dem,es,der,dem,Scheel,verbrauchen,Lösung,hatten,wurde,Gäste,Blutdruck,machte,Fernrohr,Teilnehmerinnen,nehme,Kinder,Schuhe,verlassen,der,wurden,Betten,Uhr,g,machte,Fernrohr,verlassen,wurde,des,waren,hatte,wurde,waren,keinen,konnten,ist,den,äußersten,Uhr,Tonnen,türmen,müden,meinem,den,das,hat,die,hat,hatten,Stücke,"Uhr,",Tuch,hatte,Schule,der,Uhr,türmen,äußeren,dieser,meinem,g,Kreditnehmer,Linie,,,,,,,,,,,,,,,,,,,,,,,1,0,1,0,0,1,1,1,,,,,,,space,0.853486061096,,,,,2017_Feb_01_1504,59.3584543579,spr_backupper,001,Mi10,
,Zirkus,Feier,Eimer,dem,fuhren,die,beider,saftigen,gebrauchter,uns,wurden,Ankunft,trotz,wurden,das,Kleidung,wurden,Kakao,suchen,die,verbraucht,in,jede,eine,Tropfen,die,Methode,zum,60,beider,Ankunft,Studie,Tropfen,uns,immer,jede,Essen,"regnete,",Tat,Bürgermeister,war,60,wird,in,damals,suchen,kann,mal,sahen,wussten,eine,fuhren,in,wegen,Tat,Eimer,wurden,war,braunen,mal,sahen,wegen,trotz,Rummels,nur,keine,die,nur,Umständen,dann,genau,Bürgermeister,Rand,schlug,gebrauchte,sich,Teilnehmer,Studium,Kakao,Essen,ein,Sonne,uns,in,saftiges,die,wurde,keine,verbraucht,Feier,schlug,sich,Rand,Methode,Studium,brauner,sind,101,,,,,,,,,,,,,,,,,,,,,,,1,0,1,0,0,2,2,2,,,,,,,space,0.730374097824,,,,,2017_Feb_01_1504,59.3584543579,spr_backupper,001,Mi10,
,werden,gedachte,rote,Mann,mit,Masse,beteiligter,Fleischs,Kleidung,durch,unter,stand,des,aus,Auto,bei,mit,gehören,die,Masse,260.000,Größe,Menge,große,königliches,Erlebnisse,kann,Mond,Liter,beteiligten,stand,wurde,königlichen,durch,auf,Menge,kann,hat,wissen,beschuldigten,der,Liter,mit,Dänemark,schnell,die,schon,wieder,wir,überwiegend,große,mit,Größe,des,wissen,roter,mit,aus,Zuckers,wieder,wir,dem,dem,wurde,kleinere,Lust,Leinwand,kleinere,können,mit,die,beschuldigten,der,"sporadisch,",Kleidung,Berge,wurden,las,gehören,kann,Hemd,"unterging,",die,Dänemark,Fleisch,er,dann,Lust,260.000,gedachte,"sporadisch,",Berge,der,kann,habe,Zucker,mit,hält,,,,,,,,,,,,,,,,,,,,,,,1,0,1,0,0,3,3,3,,,,,,,space,0.816717147827,,,,,2017_Feb_01_1504,59.3584543579,spr_backupper,001,Mi10,
,die,man,Farbe,das,solch,mit,Fahrer,wurden,landen,Büschel,"regelmäßigem,",ein,bekannten,"wertvollem,",dem,ausreichendem,dauerhaftem,immer,Wohnung,mit,Kilowattstunden,36,alten,Packung,Blut,bei,man,dauerte,sprudelnden,Fahrer,ein,jetzt,Bluts,Büschel,warmem,alten,ich,uns,wir,die,vierte,sprudelndes,"reichlichem,",gelegentlich,dank,Wohnung,bei,viel,den,"nicht,",Packung,solchen,36,schönen,wir,Farbe,"üblichem,","Japan,",sind,viel,den,schönen,bekannten,schon,"Delikte,",auf,aus,"Delikte,",Neuwahlen,"minimalem,",richtige,die,Stadt,obwohl,landen,schmutziger,mit,ich,immer,ich,aus,war,Stimmung,einen,wurden,"trug,",mit,auf,Kilowattstunden,man,obschon,schmutzige,Stadt,man,ich,sind,"sämtlichem,",nicht,,,,,,,,,,,,,,,,,,,,,,,1,0,1,0,0,4,4,4,,,,,,,space,0.833540201187,,,,,2017_Feb_01_1504,59.3584543579,spr_backupper,001,Mi10,
,Tiere,den,geschleudert.,Auto,unzureichenden,einem,wurden,serviert.,im,frischen,kaltem,Glas,Skandals,klassischen,Mann,monatlichem,feinem,350,des,einem,elektrischer,hätten,Krams,salzige,hat,"frischem,",eine,ungefähr,Trinkwassers.,wurden,Glas,"nachgewiesen,",hat,frisches,weichem,Kram,leider,die,um,Störenfriede,Bundespräsident.,Trinkwasser.,purem,einen,täglichem,des,minimalem,Lärm,roten,was,salziger,unzureichenden,würden,Wetters,von,geschleudert.,harten,die,auf,Lärm,roten,Wetter,Skandal,immer,deren,noch,seltenem,derer,vor,sauberen,"Zeit,",Störenfriede,liegen,sie,im,Wäsche.,zusätzlichem,mehr,350,leider,feinem,die,ziemlich,gelegentlichen,serviert.,war,"reichem,",noch,elektrische,der,sie,Wäsche.,liegen,eine,mehr,auf,künftigem,am,,,,,,,,,,,,,,,,,,,,,,,1,0,1,0,0,5,5,5,,,,,,,space,0.878545999527,,,,,2017_Feb_01_1504,59.3584543579,spr_backupper,001,Mi10,
,artgerecht,Soldaten,nan,mehr,Helmen,Esslöffel,verschrottet.,nan,Müll.,Grases,Abduschen,köstlicher,wiedergewählt.,Schmuck,mehr,Taschengeld,Kunsteis,ml,Herrn,Esslöffel,Energie.,seiner,aus,Wurst,den,kaltem,große,drei,nan,verschrottet.,köstlichen,dass,den,Gras,Untergrund,aus,nichts,Stimmung,die,jeden.,nan,nan,Alkohol,Besucher.,grünen,Herrn,täglichen,um,Planeten,Tupperware,Wurst,Helmen,seiner,die,den,nan,Schaumstoff,er,jeden,um,Planet,die,wiedergewählt.,ruhig,sie,eine,dichten,sie,Dezember,Kraftstoff,um,jeden.,die,defekt,Müll.,nan,schwarzem,als,ml,nichts,dichten,Flut,"vermiest,",Besucher.,nan,aus,goldenen,eine,Energie.,Soldaten,defekt,nan,die,große,als,jeden,Einkommen,Hauptbahnhof.,,,,,,,,,,,,,,,,,,,,,,,1,0,1,0,0,6,6,6,,,,,,,space,0.842752933502,,,,,2017_Feb_01_1504,59.3584543579,spr_backupper,001,Mi10,
,gehalten.,des,nan,als,zur,warmem,nan,nan,nan,zwängen.,gehärtet.,Wein,nan,umgearbeitet.,als,selber,eingesprüht.,warme,Gantenbeins.,warmen,nan,Frau,dem,mit,Boden,Saft,Menge,Tage.,nan,nan,Weins,das,Boden,zwängen.,liegen.,dem,mitbringen.,ziemlich,Probleme,nan,nan,nan,verdünnt.,nan,Tee,Gantenbein.,Einsatz,jede,ganz,ist.,mit,zur,Frau,Wohnung.,Problemen,nan,gefertigt.,trug.,Fall,jede,ganz,Wohnung.,nan,diskutiert.,überführt,Sammlung,Gewebe,überführt,stattfinden.,fahren.,Nadelhölzer,nan,Slums.,war.,nan,nan,Kaffee,einmal,warmer,mitbringen.,Stoff,zurückgekehrt.,dass,nan,nan,Japan.,Besatz,Sammlung,nan,des,war.,nan,Slums.,Menge,einmal,Fall,haftbar.,nan,,,,,,,,,,,,,,,,,,,,,,,1,0,1,0,0,7,7,7,,,,,,,space,1.02967095375,,,,,2017_Feb_01_1504,59.3584543579,spr_backupper,001,Mi10,
,nan,zweiten,nan,gerne.,Schule.,Honig,nan,nan,nan,nan,nan,schon,nan,nan,gerne.,kaufen.,nan,Milch.,nan,Honigs,nan,gepasst.,Haus,an,berührt.,besprochen.,dunkle,nan,nan,nan,schon,Medikament,berührt.,nan,nan,Haus,nan,vermiest.,im,nan,nan,nan,nan,nan,wieder,nan,sinken.,Menge,deutlich.,nan,an,Schule.,gepasst,nan,im,nan,nan,nan,genug.,Menge,deutlich.,nan,nan,nan,wurden.,dummer,wiederhergestellt.,wurden.,nan,nan,umzusetzen.,nan,nan,nan,nan,nan,wiederbelebt.,Rilke.,Milch.,nan,gefertigt.,nan,es,nan,nan,nan,rekonstruiert.,dumme,nan,zweiten,nan,nan,nan,dunkler,Rilke,genug.,nan,nan,,,,,,,,,,,,,,,,,,,,,,,1,0,1,0,0,8,8,8,,,,,,,space,1.1142539978,,,,,2017_Feb_01_1504,59.3584543579,spr_backupper,001,Mi10,
,nan,Weltkriegs.,nan,nan,nan,her.,nan,nan,nan,nan,nan,auf,nan,nan,nan,nan,nan,nan,nan,her.,nan,nan,geschafft.,den,nan,nan,Materie,nan,nan,nan,auf,nicht,nan,nan,nan,geschafft.,nan,nan,Landkreis.,nan,nan,nan,nan,nan,fit.,nan,nan,heißer,nan,nan,den,nan,haben.,nan,Landkreis.,nan,nan,nan,nan,heiße,nan,nan,nan,nan,nan,Sprüche.,nan,nan,nan,nan,nan,nan,nan,nan,nan,nan,nan,nan,nan,nan,nan,nan,regnete.,nan,nan,nan,nan,Sprüche.,nan,Weltkriegs.,nan,nan,nan,Materie,gelesen.,nan,nan,nan,,,,,,,,,,,,,,,,,,,,,,,1,0,1,0,0,9,9,9,,,,,,,space,1.12454581261,,,,,2017_Feb_01_1504,59.3584543579,spr_backupper,001,Mi10,
,,,,,,,,,,,,,,,,,,,,,,,,,,,,,,,,,,,,,,,,,,,,,,,,,,,,,,,,,,,,,,,,,,,,,,,,,,,,,,,,,,,,,,,,,,,,,,,,,,,,,,,,,,,,,,,,,,,,,,,,,1,0,1,0,,,,,,,,,,,,,None,j,4.5743200779,,2017_Feb_01_1504,59.3584543579,spr_backupper,001,Mi10,
,In,Bei,Es,Wir,Die,Er,Die,Beträchtliche,Viele,Wir,Die,Bei,Er,Die,Wir,Jugendliche,Die,In,Die,Er,Die,Die,Wir,Ich,Nicht,Sie,Mit,Der,Sie,Die,Bei,In,Nicht,Wir,Jungtiere,Wir,Außer,Dass,In,Außer,Walter,Sie,Die,Wir,Ich,Die,Ihr,Man,Im,Die,Ich,Die,Die,Sie,In,Es,Alle,Die,100,Man,Im,Sie,Er,Fernab,Es,Sie,Danach,Es,Unter,Wir,Jetzt,Außer,Am,Die,Viele,Dort,Die,In,In,Außer,Er,Als,Es,Wir,Beträchtliche,Die,Das,Sie,Die,Bei,Die,Dort,Am,Mit,In,100,Manche,Die,,,,,,,,,,,,,,,,,,,,,,,2,0,2,0,0,0,0,0,,,,,,None,space,1.25673007965,,,,,2017_Feb_01_1504,59.3584543579,spr_backupper,001,Mi10,
,diesem,der,wurden,übergaben,Kinder,stellt,Autos,Stücke,Tonnen,mussten,Formen,unserer,wurde,Stücke,übergaben,können,Eislaufbahnen,den,Gäste,stellt,Schule,Schuhe,haben,nehme,ein,haben,dieser,Flug,verbrauchen,Autos,unserer,einer,ein,mussten,sollten,haben,dem,es,der,dem,Scheel,verbrauchen,Lösung,hatten,wurde,Gäste,Blutdruck,machte,Fernrohr,Teilnehmerinnen,nehme,Kinder,Schuhe,verlassen,der,wurden,Betten,Uhr,g,machte,Fernrohr,verlassen,wurde,des,waren,hatte,wurde,waren,keinen,konnten,ist,den,äußersten,Uhr,Tonnen,türmen,müden,meinem,den,das,hat,die,hat,hatten,Stücke,"Uhr,",Tuch,hatte,Schule,der,Uhr,türmen,äußeren,dieser,meinem,g,Kreditnehmer,Linie,,,,,,,,,,,,,,,,,,,,,,,2,0,2,0,0,1,1,1,,,,,,,space,1.02421998978,,,,,2017_Feb_01_1504,59.3584543579,spr_backupper,001,Mi10,
,Zirkus,Feier,Eimer,dem,fuhren,die,beider,saftigen,gebrauchter,uns,wurden,Ankunft,trotz,wurden,das,Kleidung,wurden,Kakao,suchen,die,verbraucht,in,jede,eine,Tropfen,die,Methode,zum,60,beider,Ankunft,Studie,Tropfen,uns,immer,jede,Essen,"regnete,",Tat,Bürgermeister,war,60,wird,in,damals,suchen,kann,mal,sahen,wussten,eine,fuhren,in,wegen,Tat,Eimer,wurden,war,braunen,mal,sahen,wegen,trotz,Rummels,nur,keine,die,nur,Umständen,dann,genau,Bürgermeister,Rand,schlug,gebrauchte,sich,Teilnehmer,Studium,Kakao,Essen,ein,Sonne,uns,in,saftiges,die,wurde,keine,verbraucht,Feier,schlug,sich,Rand,Methode,Studium,brauner,sind,101,,,,,,,,,,,,,,,,,,,,,,,2,0,2,0,0,2,2,2,,,,,,,space,0.952222108841,,,,,2017_Feb_01_1504,59.3584543579,spr_backupper,001,Mi10,
,werden,gedachte,rote,Mann,mit,Masse,beteiligter,Fleischs,Kleidung,durch,unter,stand,des,aus,Auto,bei,mit,gehören,die,Masse,260.000,Größe,Menge,große,königliches,Erlebnisse,kann,Mond,Liter,beteiligten,stand,wurde,königlichen,durch,auf,Menge,kann,hat,wissen,beschuldigten,der,Liter,mit,Dänemark,schnell,die,schon,wieder,wir,überwiegend,große,mit,Größe,des,wissen,roter,mit,aus,Zuckers,wieder,wir,dem,dem,wurde,kleinere,Lust,Leinwand,kleinere,können,mit,die,beschuldigten,der,"sporadisch,",Kleidung,Berge,wurden,las,gehören,kann,Hemd,"unterging,",die,Dänemark,Fleisch,er,dann,Lust,260.000,gedachte,"sporadisch,",Berge,der,kann,habe,Zucker,mit,hält,,,,,,,,,,,,,,,,,,,,,,,2,0,2,0,0,3,3,3,,,,,,,space,0.872099876404,,,,,2017_Feb_01_1504,59.3584543579,spr_backupper,001,Mi10,
,die,man,Farbe,das,solch,mit,Fahrer,wurden,landen,Büschel,"regelmäßigem,",ein,bekannten,"wertvollem,",dem,ausreichendem,dauerhaftem,immer,Wohnung,mit,Kilowattstunden,36,alten,Packung,Blut,bei,man,dauerte,sprudelnden,Fahrer,ein,jetzt,Bluts,Büschel,warmem,alten,ich,uns,wir,die,vierte,sprudelndes,"reichlichem,",gelegentlich,dank,Wohnung,bei,viel,den,"nicht,",Packung,solchen,36,schönen,wir,Farbe,"üblichem,","Japan,",sind,viel,den,schönen,bekannten,schon,"Delikte,",auf,aus,"Delikte,",Neuwahlen,"minimalem,",richtige,die,Stadt,obwohl,landen,schmutziger,mit,ich,immer,ich,aus,war,Stimmung,einen,wurden,"trug,",mit,auf,Kilowattstunden,man,obschon,schmutzige,Stadt,man,ich,sind,"sämtlichem,",nicht,,,,,,,,,,,,,,,,,,,,,,,2,0,2,0,0,4,4,4,,,,,,,space,0.854770898819,,,,,2017_Feb_01_1504,59.3584543579,spr_backupper,001,Mi10,
,Tiere,den,geschleudert.,Auto,unzureichenden,einem,wurden,serviert.,im,frischen,kaltem,Glas,Skandals,klassischen,Mann,monatlichem,feinem,350,des,einem,elektrischer,hätten,Krams,salzige,hat,"frischem,",eine,ungefähr,Trinkwassers.,wurden,Glas,"nachgewiesen,",hat,frisches,weichem,Kram,leider,die,um,Störenfriede,Bundespräsident.,Trinkwasser.,purem,einen,täglichem,des,minimalem,Lärm,roten,was,salziger,unzureichenden,würden,Wetters,von,geschleudert.,harten,die,auf,Lärm,roten,Wetter,Skandal,immer,deren,noch,seltenem,derer,vor,sauberen,"Zeit,",Störenfriede,liegen,sie,im,Wäsche.,zusätzlichem,mehr,350,leider,feinem,die,ziemlich,gelegentlichen,serviert.,war,"reichem,",noch,elektrische,der,sie,Wäsche.,liegen,eine,mehr,auf,künftigem,am,,,,,,,,,,,,,,,,,,,,,,,2,0,2,0,0,5,5,5,,,,,,,space,1.17188310623,,,,,2017_Feb_01_1504,59.3584543579,spr_backupper,001,Mi10,
,artgerecht,Soldaten,nan,mehr,Helmen,Esslöffel,verschrottet.,nan,Müll.,Grases,Abduschen,köstlicher,wiedergewählt.,Schmuck,mehr,Taschengeld,Kunsteis,ml,Herrn,Esslöffel,Energie.,seiner,aus,Wurst,den,kaltem,große,drei,nan,verschrottet.,köstlichen,dass,den,Gras,Untergrund,aus,nichts,Stimmung,die,jeden.,nan,nan,Alkohol,Besucher.,grünen,Herrn,täglichen,um,Planeten,Tupperware,Wurst,Helmen,seiner,die,den,nan,Schaumstoff,er,jeden,um,Planet,die,wiedergewählt.,ruhig,sie,eine,dichten,sie,Dezember,Kraftstoff,um,jeden.,die,defekt,Müll.,nan,schwarzem,als,ml,nichts,dichten,Flut,"vermiest,",Besucher.,nan,aus,goldenen,eine,Energie.,Soldaten,defekt,nan,die,große,als,jeden,Einkommen,Hauptbahnhof.,,,,,,,,,,,,,,,,,,,,,,,2,0,2,0,0,6,6,6,,,,,,,space,0.973051071167,,,,,2017_Feb_01_1504,59.3584543579,spr_backupper,001,Mi10,
,gehalten.,des,nan,als,zur,warmem,nan,nan,nan,zwängen.,gehärtet.,Wein,nan,umgearbeitet.,als,selber,eingesprüht.,warme,Gantenbeins.,warmen,nan,Frau,dem,mit,Boden,Saft,Menge,Tage.,nan,nan,Weins,das,Boden,zwängen.,liegen.,dem,mitbringen.,ziemlich,Probleme,nan,nan,nan,verdünnt.,nan,Tee,Gantenbein.,Einsatz,jede,ganz,ist.,mit,zur,Frau,Wohnung.,Problemen,nan,gefertigt.,trug.,Fall,jede,ganz,Wohnung.,nan,diskutiert.,überführt,Sammlung,Gewebe,überführt,stattfinden.,fahren.,Nadelhölzer,nan,Slums.,war.,nan,nan,Kaffee,einmal,warmer,mitbringen.,Stoff,zurückgekehrt.,dass,nan,nan,Japan.,Besatz,Sammlung,nan,des,war.,nan,Slums.,Menge,einmal,Fall,haftbar.,nan,,,,,,,,,,,,,,,,,,,,,,,2,0,2,0,0,7,7,7,,,,,,,space,0.940065860748,,,,,2017_Feb_01_1504,59.3584543579,spr_backupper,001,Mi10,
,nan,zweiten,nan,gerne.,Schule.,Honig,nan,nan,nan,nan,nan,schon,nan,nan,gerne.,kaufen.,nan,Milch.,nan,Honigs,nan,gepasst.,Haus,an,berührt.,besprochen.,dunkle,nan,nan,nan,schon,Medikament,berührt.,nan,nan,Haus,nan,vermiest.,im,nan,nan,nan,nan,nan,wieder,nan,sinken.,Menge,deutlich.,nan,an,Schule.,gepasst,nan,im,nan,nan,nan,genug.,Menge,deutlich.,nan,nan,nan,wurden.,dummer,wiederhergestellt.,wurden.,nan,nan,umzusetzen.,nan,nan,nan,nan,nan,wiederbelebt.,Rilke.,Milch.,nan,gefertigt.,nan,es,nan,nan,nan,rekonstruiert.,dumme,nan,zweiten,nan,nan,nan,dunkler,Rilke,genug.,nan,nan,,,,,,,,,,,,,,,,,,,,,,,2,0,2,0,0,8,8,8,,,,,,,space,3.3860669136,,,,,2017_Feb_01_1504,59.3584543579,spr_backupper,001,Mi10,
,,,,,,,,,,,,,,,,,,,,,,,,,,,,,,,,,,,,,,,,,,,,,,,,,,,,,,,,,,,,,,,,,,,,,,,,,,,,,,,,,,,,,,,,,,,,,,,,,,,,,,,,,,,,,,,,,,,,,,,,,2,0,2,0,,,,,,,,,,,,,None,j,1.88442707062,,2017_Feb_01_1504,59.3584543579,spr_backupper,001,Mi10,
,In,Bei,Es,Wir,Die,Er,Die,Beträchtliche,Viele,Wir,Die,Bei,Er,Die,Wir,Jugendliche,Die,In,Die,Er,Die,Die,Wir,Ich,Nicht,Sie,Mit,Der,Sie,Die,Bei,In,Nicht,Wir,Jungtiere,Wir,Außer,Dass,In,Außer,Walter,Sie,Die,Wir,Ich,Die,Ihr,Man,Im,Die,Ich,Die,Die,Sie,In,Es,Alle,Die,100,Man,Im,Sie,Er,Fernab,Es,Sie,Danach,Es,Unter,Wir,Jetzt,Außer,Am,Die,Viele,Dort,Die,In,In,Außer,Er,Als,Es,Wir,Beträchtliche,Die,Das,Sie,Die,Bei,Die,Dort,Am,Mit,In,100,Manche,Die,,,,,,,,,,,,,,,,,,,,,,,3,0,3,0,0,0,0,0,,,,,,None,space,0.537364006042,,,,,2017_Feb_01_1504,59.3584543579,spr_backupper,001,Mi10,
,diesem,der,wurden,übergaben,Kinder,stellt,Autos,Stücke,Tonnen,mussten,Formen,unserer,wurde,Stücke,übergaben,können,Eislaufbahnen,den,Gäste,stellt,Schule,Schuhe,haben,nehme,ein,haben,dieser,Flug,verbrauchen,Autos,unserer,einer,ein,mussten,sollten,haben,dem,es,der,dem,Scheel,verbrauchen,Lösung,hatten,wurde,Gäste,Blutdruck,machte,Fernrohr,Teilnehmerinnen,nehme,Kinder,Schuhe,verlassen,der,wurden,Betten,Uhr,g,machte,Fernrohr,verlassen,wurde,des,waren,hatte,wurde,waren,keinen,konnten,ist,den,äußersten,Uhr,Tonnen,türmen,müden,meinem,den,das,hat,die,hat,hatten,Stücke,"Uhr,",Tuch,hatte,Schule,der,Uhr,türmen,äußeren,dieser,meinem,g,Kreditnehmer,Linie,,,,,,,,,,,,,,,,,,,,,,,3,0,3,0,0,1,1,1,,,,,,,space,0.853471040726,,,,,2017_Feb_01_1504,59.3584543579,spr_backupper,001,Mi10,
,Zirkus,Feier,Eimer,dem,fuhren,die,beider,saftigen,gebrauchter,uns,wurden,Ankunft,trotz,wurden,das,Kleidung,wurden,Kakao,suchen,die,verbraucht,in,jede,eine,Tropfen,die,Methode,zum,60,beider,Ankunft,Studie,Tropfen,uns,immer,jede,Essen,"regnete,",Tat,Bürgermeister,war,60,wird,in,damals,suchen,kann,mal,sahen,wussten,eine,fuhren,in,wegen,Tat,Eimer,wurden,war,braunen,mal,sahen,wegen,trotz,Rummels,nur,keine,die,nur,Umständen,dann,genau,Bürgermeister,Rand,schlug,gebrauchte,sich,Teilnehmer,Studium,Kakao,Essen,ein,Sonne,uns,in,saftiges,die,wurde,keine,verbraucht,Feier,schlug,sich,Rand,Methode,Studium,brauner,sind,101,,,,,,,,,,,,,,,,,,,,,,,3,0,3,0,0,2,2,2,,,,,,,space,0.905864953995,,,,,2017_Feb_01_1504,59.3584543579,spr_backupper,001,Mi10,
,werden,gedachte,rote,Mann,mit,Masse,beteiligter,Fleischs,Kleidung,durch,unter,stand,des,aus,Auto,bei,mit,gehören,die,Masse,260.000,Größe,Menge,große,königliches,Erlebnisse,kann,Mond,Liter,beteiligten,stand,wurde,königlichen,durch,auf,Menge,kann,hat,wissen,beschuldigten,der,Liter,mit,Dänemark,schnell,die,schon,wieder,wir,überwiegend,große,mit,Größe,des,wissen,roter,mit,aus,Zuckers,wieder,wir,dem,dem,wurde,kleinere,Lust,Leinwand,kleinere,können,mit,die,beschuldigten,der,"sporadisch,",Kleidung,Berge,wurden,las,gehören,kann,Hemd,"unterging,",die,Dänemark,Fleisch,er,dann,Lust,260.000,gedachte,"sporadisch,",Berge,der,kann,habe,Zucker,mit,hält,,,,,,,,,,,,,,,,,,,,,,,3,0,3,0,0,3,3,3,,,,,,,space,0.987653017044,,,,,2017_Feb_01_1504,59.3584543579,spr_backupper,001,Mi10,
,die,man,Farbe,das,solch,mit,Fahrer,wurden,landen,Büschel,"regelmäßigem,",ein,bekannten,"wertvollem,",dem,ausreichendem,dauerhaftem,immer,Wohnung,mit,Kilowattstunden,36,alten,Packung,Blut,bei,man,dauerte,sprudelnden,Fahrer,ein,jetzt,Bluts,Büschel,warmem,alten,ich,uns,wir,die,vierte,sprudelndes,"reichlichem,",gelegentlich,dank,Wohnung,bei,viel,den,"nicht,",Packung,solchen,36,schönen,wir,Farbe,"üblichem,","Japan,",sind,viel,den,schönen,bekannten,schon,"Delikte,",auf,aus,"Delikte,",Neuwahlen,"minimalem,",richtige,die,Stadt,obwohl,landen,schmutziger,mit,ich,immer,ich,aus,war,Stimmung,einen,wurden,"trug,",mit,auf,Kilowattstunden,man,obschon,schmutzige,Stadt,man,ich,sind,"sämtlichem,",nicht,,,,,,,,,,,,,,,,,,,,,,,3,0,3,0,0,4,4,4,,,,,,,space,0.820263147354,,,,,2017_Feb_01_1504,59.3584543579,spr_backupper,001,Mi10,
,Tiere,den,geschleudert.,Auto,unzureichenden,einem,wurden,serviert.,im,frischen,kaltem,Glas,Skandals,klassischen,Mann,monatlichem,feinem,350,des,einem,elektrischer,hätten,Krams,salzige,hat,"frischem,",eine,ungefähr,Trinkwassers.,wurden,Glas,"nachgewiesen,",hat,frisches,weichem,Kram,leider,die,um,Störenfriede,Bundespräsident.,Trinkwasser.,purem,einen,täglichem,des,minimalem,Lärm,roten,was,salziger,unzureichenden,würden,Wetters,von,geschleudert.,harten,die,auf,Lärm,roten,Wetter,Skandal,immer,deren,noch,seltenem,derer,vor,sauberen,"Zeit,",Störenfriede,liegen,sie,im,Wäsche.,zusätzlichem,mehr,350,leider,feinem,die,ziemlich,gelegentlichen,serviert.,war,"reichem,",noch,elektrische,der,sie,Wäsche.,liegen,eine,mehr,auf,künftigem,am,,,,,,,,,,,,,,,,,,,,,,,3,0,3,0,0,5,5,5,,,,,,,space,0.978908061981,,,,,2017_Feb_01_1504,59.3584543579,spr_backupper,001,Mi10,
,artgerecht,Soldaten,nan,mehr,Helmen,Esslöffel,verschrottet.,nan,Müll.,Grases,Abduschen,köstlicher,wiedergewählt.,Schmuck,mehr,Taschengeld,Kunsteis,ml,Herrn,Esslöffel,Energie.,seiner,aus,Wurst,den,kaltem,große,drei,nan,verschrottet.,köstlichen,dass,den,Gras,Untergrund,aus,nichts,Stimmung,die,jeden.,nan,nan,Alkohol,Besucher.,grünen,Herrn,täglichen,um,Planeten,Tupperware,Wurst,Helmen,seiner,die,den,nan,Schaumstoff,er,jeden,um,Planet,die,wiedergewählt.,ruhig,sie,eine,dichten,sie,Dezember,Kraftstoff,um,jeden.,die,defekt,Müll.,nan,schwarzem,als,ml,nichts,dichten,Flut,"vermiest,",Besucher.,nan,aus,goldenen,eine,Energie.,Soldaten,defekt,nan,die,große,als,jeden,Einkommen,Hauptbahnhof.,,,,,,,,,,,,,,,,,,,,,,,3,0,3,0,0,6,6,6,,,,,,,space,0.990044116974,,,,,2017_Feb_01_1504,59.3584543579,spr_backupper,001,Mi10,
,gehalten.,des,nan,als,zur,warmem,nan,nan,nan,zwängen.,gehärtet.,Wein,nan,umgearbeitet.,als,selber,eingesprüht.,warme,Gantenbeins.,warmen,nan,Frau,dem,mit,Boden,Saft,Menge,Tage.,nan,nan,Weins,das,Boden,zwängen.,liegen.,dem,mitbringen.,ziemlich,Probleme,nan,nan,nan,verdünnt.,nan,Tee,Gantenbein.,Einsatz,jede,ganz,ist.,mit,zur,Frau,Wohnung.,Problemen,nan,gefertigt.,trug.,Fall,jede,ganz,Wohnung.,nan,diskutiert.,überführt,Sammlung,Gewebe,überführt,stattfinden.,fahren.,Nadelhölzer,nan,Slums.,war.,nan,nan,Kaffee,einmal,warmer,mitbringen.,Stoff,zurückgekehrt.,dass,nan,nan,Japan.,Besatz,Sammlung,nan,des,war.,nan,Slums.,Menge,einmal,Fall,haftbar.,nan,,,,,,,,,,,,,,,,,,,,,,,3,0,3,0,0,7,7,7,,,,,,,space,0.829915046692,,,,,2017_Feb_01_1504,59.3584543579,spr_backupper,001,Mi10,
,nan,zweiten,nan,gerne.,Schule.,Honig,nan,nan,nan,nan,nan,schon,nan,nan,gerne.,kaufen.,nan,Milch.,nan,Honigs,nan,gepasst.,Haus,an,berührt.,besprochen.,dunkle,nan,nan,nan,schon,Medikament,berührt.,nan,nan,Haus,nan,vermiest.,im,nan,nan,nan,nan,nan,wieder,nan,sinken.,Menge,deutlich.,nan,an,Schule.,gepasst,nan,im,nan,nan,nan,genug.,Menge,deutlich.,nan,nan,nan,wurden.,dummer,wiederhergestellt.,wurden.,nan,nan,umzusetzen.,nan,nan,nan,nan,nan,wiederbelebt.,Rilke.,Milch.,nan,gefertigt.,nan,es,nan,nan,nan,rekonstruiert.,dumme,nan,zweiten,nan,nan,nan,dunkler,Rilke,genug.,nan,nan,,,,,,,,,,,,,,,,,,,,,,,3,0,3,0,0,8,8,8,,,,,,,space,0.796002864838,,,,,2017_Feb_01_1504,59.3584543579,spr_backupper,001,Mi10,
,nan,Weltkriegs.,nan,nan,nan,her.,nan,nan,nan,nan,nan,auf,nan,nan,nan,nan,nan,nan,nan,her.,nan,nan,geschafft.,den,nan,nan,Materie,nan,nan,nan,auf,nicht,nan,nan,nan,geschafft.,nan,nan,Landkreis.,nan,nan,nan,nan,nan,fit.,nan,nan,heißer,nan,nan,den,nan,haben.,nan,Landkreis.,nan,nan,nan,nan,heiße,nan,nan,nan,nan,nan,Sprüche.,nan,nan,nan,nan,nan,nan,nan,nan,nan,nan,nan,nan,nan,nan,nan,nan,regnete.,nan,nan,nan,nan,Sprüche.,nan,Weltkriegs.,nan,nan,nan,Materie,gelesen.,nan,nan,nan,,,,,,,,,,,,,,,,,,,,,,,3,0,3,0,0,9,9,9,,,,,,,space,0.755980968475,,,,,2017_Feb_01_1504,59.3584543579,spr_backupper,001,Mi10,
,nan,nan,nan,nan,nan,nan,nan,nan,nan,nan,nan,dem,nan,nan,nan,nan,nan,nan,nan,nan,nan,nan,nan,See.,nan,nan,erzeugen.,nan,nan,nan,dem,wirkt.,nan,nan,nan,nan,nan,nan,nan,nan,nan,nan,nan,nan,nan,nan,nan,Luft.,nan,nan,See.,nan,nan,nan,nan,nan,nan,nan,nan,Luft.,nan,nan,nan,nan,nan,nan,nan,nan,nan,nan,nan,nan,nan,nan,nan,nan,nan,nan,nan,nan,nan,nan,nan,nan,nan,nan,nan,nan,nan,nan,nan,nan,nan,erzeugen.,nan,nan,nan,nan,,,,,,,,,,,,,,,,,,,,,,,3,0,3,0,0,10,10,10,,,,,,,space,0.752080917358,,,,,2017_Feb_01_1504,59.3584543579,spr_backupper,001,Mi10,
,nan,nan,nan,nan,nan,nan,nan,nan,nan,nan,nan,Tisch.,nan,nan,nan,nan,nan,nan,nan,nan,nan,nan,nan,nan,nan,nan,nan,nan,nan,nan,Tisch.,nan,nan,nan,nan,nan,nan,nan,nan,nan,nan,nan,nan,nan,nan,nan,nan,nan,nan,nan,nan,nan,nan,nan,nan,nan,nan,nan,nan,nan,nan,nan,nan,nan,nan,nan,nan,nan,nan,nan,nan,nan,nan,nan,nan,nan,nan,nan,nan,nan,nan,nan,nan,nan,nan,nan,nan,nan,nan,nan,nan,nan,nan,nan,nan,nan,nan,nan,,,,,,,,,,,,,,,,,,,,,,,3,0,3,0,0,11,11,11,,,,,,,space,1.08009600639,,,,,2017_Feb_01_1504,59.3584543579,spr_backupper,001,Mi10,
,,,,,,,,,,,,,,,,,,,,,,,,,,,,,,,,,,,,,,,,,,,,,,,,,,,,,,,,,,,,,,,,,,,,,,,,,,,,,,,,,,,,,,,,,,,,,,,,,,,,,,,,,,,,,,,,,,,,,,,,,3,0,3,0,,,,,,,,,,,,,None,j,2.13071393967,,2017_Feb_01_1504,59.3584543579,spr_backupper,001,Mi10,
,In,Bei,Es,Wir,Die,Er,Die,Beträchtliche,Viele,Wir,Die,Bei,Er,Die,Wir,Jugendliche,Die,In,Die,Er,Die,Die,Wir,Ich,Nicht,Sie,Mit,Der,Sie,Die,Bei,In,Nicht,Wir,Jungtiere,Wir,Außer,Dass,In,Außer,Walter,Sie,Die,Wir,Ich,Die,Ihr,Man,Im,Die,Ich,Die,Die,Sie,In,Es,Alle,Die,100,Man,Im,Sie,Er,Fernab,Es,Sie,Danach,Es,Unter,Wir,Jetzt,Außer,Am,Die,Viele,Dort,Die,In,In,Außer,Er,Als,Es,Wir,Beträchtliche,Die,Das,Sie,Die,Bei,Die,Dort,Am,Mit,In,100,Manche,Die,,,,,,,,,,,,,,,,,,,,,,,4,0,4,0,0,0,0,0,,,,,,None,space,0.607239961624,,,,,2017_Feb_01_1504,59.3584543579,spr_backupper,001,Mi10,
,diesem,der,wurden,übergaben,Kinder,stellt,Autos,Stücke,Tonnen,mussten,Formen,unserer,wurde,Stücke,übergaben,können,Eislaufbahnen,den,Gäste,stellt,Schule,Schuhe,haben,nehme,ein,haben,dieser,Flug,verbrauchen,Autos,unserer,einer,ein,mussten,sollten,haben,dem,es,der,dem,Scheel,verbrauchen,Lösung,hatten,wurde,Gäste,Blutdruck,machte,Fernrohr,Teilnehmerinnen,nehme,Kinder,Schuhe,verlassen,der,wurden,Betten,Uhr,g,machte,Fernrohr,verlassen,wurde,des,waren,hatte,wurde,waren,keinen,konnten,ist,den,äußersten,Uhr,Tonnen,türmen,müden,meinem,den,das,hat,die,hat,hatten,Stücke,"Uhr,",Tuch,hatte,Schule,der,Uhr,türmen,äußeren,dieser,meinem,g,Kreditnehmer,Linie,,,,,,,,,,,,,,,,,,,,,,,4,0,4,0,0,1,1,1,,,,,,,space,0.873214006424,,,,,2017_Feb_01_1504,59.3584543579,spr_backupper,001,Mi10,
,Zirkus,Feier,Eimer,dem,fuhren,die,beider,saftigen,gebrauchter,uns,wurden,Ankunft,trotz,wurden,das,Kleidung,wurden,Kakao,suchen,die,verbraucht,in,jede,eine,Tropfen,die,Methode,zum,60,beider,Ankunft,Studie,Tropfen,uns,immer,jede,Essen,"regnete,",Tat,Bürgermeister,war,60,wird,in,damals,suchen,kann,mal,sahen,wussten,eine,fuhren,in,wegen,Tat,Eimer,wurden,war,braunen,mal,sahen,wegen,trotz,Rummels,nur,keine,die,nur,Umständen,dann,genau,Bürgermeister,Rand,schlug,gebrauchte,sich,Teilnehmer,Studium,Kakao,Essen,ein,Sonne,uns,in,saftiges,die,wurde,keine,verbraucht,Feier,schlug,sich,Rand,Methode,Studium,brauner,sind,101,,,,,,,,,,,,,,,,,,,,,,,4,0,4,0,0,2,2,2,,,,,,,space,1.16287088394,,,,,2017_Feb_01_1504,59.3584543579,spr_backupper,001,Mi10,
,werden,gedachte,rote,Mann,mit,Masse,beteiligter,Fleischs,Kleidung,durch,unter,stand,des,aus,Auto,bei,mit,gehören,die,Masse,260.000,Größe,Menge,große,königliches,Erlebnisse,kann,Mond,Liter,beteiligten,stand,wurde,königlichen,durch,auf,Menge,kann,hat,wissen,beschuldigten,der,Liter,mit,Dänemark,schnell,die,schon,wieder,wir,überwiegend,große,mit,Größe,des,wissen,roter,mit,aus,Zuckers,wieder,wir,dem,dem,wurde,kleinere,Lust,Leinwand,kleinere,können,mit,die,beschuldigten,der,"sporadisch,",Kleidung,Berge,wurden,las,gehören,kann,Hemd,"unterging,",die,Dänemark,Fleisch,er,dann,Lust,260.000,gedachte,"sporadisch,",Berge,der,kann,habe,Zucker,mit,hält,,,,,,,,,,,,,,,,,,,,,,,4,0,4,0,0,3,3,3,,,,,,,space,1.07332181931,,,,,2017_Feb_01_1504,59.3584543579,spr_backupper,001,Mi10,
,die,man,Farbe,das,solch,mit,Fahrer,wurden,landen,Büschel,"regelmäßigem,",ein,bekannten,"wertvollem,",dem,ausreichendem,dauerhaftem,immer,Wohnung,mit,Kilowattstunden,36,alten,Packung,Blut,bei,man,dauerte,sprudelnden,Fahrer,ein,jetzt,Bluts,Büschel,warmem,alten,ich,uns,wir,die,vierte,sprudelndes,"reichlichem,",gelegentlich,dank,Wohnung,bei,viel,den,"nicht,",Packung,solchen,36,schönen,wir,Farbe,"üblichem,","Japan,",sind,viel,den,schönen,bekannten,schon,"Delikte,",auf,aus,"Delikte,",Neuwahlen,"minimalem,",richtige,die,Stadt,obwohl,landen,schmutziger,mit,ich,immer,ich,aus,war,Stimmung,einen,wurden,"trug,",mit,auf,Kilowattstunden,man,obschon,schmutzige,Stadt,man,ich,sind,"sämtlichem,",nicht,,,,,,,,,,,,,,,,,,,,,,,4,0,4,0,0,4,4,4,,,,,,,space,1.09095001221,,,,,2017_Feb_01_1504,59.3584543579,spr_backupper,001,Mi10,
,Tiere,den,geschleudert.,Auto,unzureichenden,einem,wurden,serviert.,im,frischen,kaltem,Glas,Skandals,klassischen,Mann,monatlichem,feinem,350,des,einem,elektrischer,hätten,Krams,salzige,hat,"frischem,",eine,ungefähr,Trinkwassers.,wurden,Glas,"nachgewiesen,",hat,frisches,weichem,Kram,leider,die,um,Störenfriede,Bundespräsident.,Trinkwasser.,purem,einen,täglichem,des,minimalem,Lärm,roten,was,salziger,unzureichenden,würden,Wetters,von,geschleudert.,harten,die,auf,Lärm,roten,Wetter,Skandal,immer,deren,noch,seltenem,derer,vor,sauberen,"Zeit,",Störenfriede,liegen,sie,im,Wäsche.,zusätzlichem,mehr,350,leider,feinem,die,ziemlich,gelegentlichen,serviert.,war,"reichem,",noch,elektrische,der,sie,Wäsche.,liegen,eine,mehr,auf,künftigem,am,,,,,,,,,,,,,,,,,,,,,,,4,0,4,0,0,5,5,5,,,,,,,space,1.265157938,,,,,2017_Feb_01_1504,59.3584543579,spr_backupper,001,Mi10,
,artgerecht,Soldaten,nan,mehr,Helmen,Esslöffel,verschrottet.,nan,Müll.,Grases,Abduschen,köstlicher,wiedergewählt.,Schmuck,mehr,Taschengeld,Kunsteis,ml,Herrn,Esslöffel,Energie.,seiner,aus,Wurst,den,kaltem,große,drei,nan,verschrottet.,köstlichen,dass,den,Gras,Untergrund,aus,nichts,Stimmung,die,jeden.,nan,nan,Alkohol,Besucher.,grünen,Herrn,täglichen,um,Planeten,Tupperware,Wurst,Helmen,seiner,die,den,nan,Schaumstoff,er,jeden,um,Planet,die,wiedergewählt.,ruhig,sie,eine,dichten,sie,Dezember,Kraftstoff,um,jeden.,die,defekt,Müll.,nan,schwarzem,als,ml,nichts,dichten,Flut,"vermiest,",Besucher.,nan,aus,goldenen,eine,Energie.,Soldaten,defekt,nan,die,große,als,jeden,Einkommen,Hauptbahnhof.,,,,,,,,,,,,,,,,,,,,,,,4,0,4,0,0,6,6,6,,,,,,,space,1.11923003197,,,,,2017_Feb_01_1504,59.3584543579,spr_backupper,001,Mi10,
,gehalten.,des,nan,als,zur,warmem,nan,nan,nan,zwängen.,gehärtet.,Wein,nan,umgearbeitet.,als,selber,eingesprüht.,warme,Gantenbeins.,warmen,nan,Frau,dem,mit,Boden,Saft,Menge,Tage.,nan,nan,Weins,das,Boden,zwängen.,liegen.,dem,mitbringen.,ziemlich,Probleme,nan,nan,nan,verdünnt.,nan,Tee,Gantenbein.,Einsatz,jede,ganz,ist.,mit,zur,Frau,Wohnung.,Problemen,nan,gefertigt.,trug.,Fall,jede,ganz,Wohnung.,nan,diskutiert.,überführt,Sammlung,Gewebe,überführt,stattfinden.,fahren.,Nadelhölzer,nan,Slums.,war.,nan,nan,Kaffee,einmal,warmer,mitbringen.,Stoff,zurückgekehrt.,dass,nan,nan,Japan.,Besatz,Sammlung,nan,des,war.,nan,Slums.,Menge,einmal,Fall,haftbar.,nan,,,,,,,,,,,,,,,,,,,,,,,4,0,4,0,0,7,7,7,,,,,,,space,0.940037965775,,,,,2017_Feb_01_1504,59.3584543579,spr_backupper,001,Mi10,
,,,,,,,,,,,,,,,,,,,,,,,,,,,,,,,,,,,,,,,,,,,,,,,,,,,,,,,,,,,,,,,,,,,,,,,,,,,,,,,,,,,,,,,,,,,,,,,,,,,,,,,,,,,,,,,,,,,,,,,,,4,0,4,0,,,,,,,,,,,,,None,n,1.79517912865,,2017_Feb_01_1504,59.3584543579,spr_backupper,001,Mi10,
,In,Bei,Es,Wir,Die,Er,Die,Beträchtliche,Viele,Wir,Die,Bei,Er,Die,Wir,Jugendliche,Die,In,Die,Er,Die,Die,Wir,Ich,Nicht,Sie,Mit,Der,Sie,Die,Bei,In,Nicht,Wir,Jungtiere,Wir,Außer,Dass,In,Außer,Walter,Sie,Die,Wir,Ich,Die,Ihr,Man,Im,Die,Ich,Die,Die,Sie,In,Es,Alle,Die,100,Man,Im,Sie,Er,Fernab,Es,Sie,Danach,Es,Unter,Wir,Jetzt,Außer,Am,Die,Viele,Dort,Die,In,In,Außer,Er,Als,Es,Wir,Beträchtliche,Die,Das,Sie,Die,Bei,Die,Dort,Am,Mit,In,100,Manche,Die,,,,,,,,,,,,,,,,,,,,,,,5,0,5,0,0,0,0,0,,,,,,None,space,1.36242008209,,,,,2017_Feb_01_1504,59.3584543579,spr_backupper,001,Mi10,
,diesem,der,wurden,übergaben,Kinder,stellt,Autos,Stücke,Tonnen,mussten,Formen,unserer,wurde,Stücke,übergaben,können,Eislaufbahnen,den,Gäste,stellt,Schule,Schuhe,haben,nehme,ein,haben,dieser,Flug,verbrauchen,Autos,unserer,einer,ein,mussten,sollten,haben,dem,es,der,dem,Scheel,verbrauchen,Lösung,hatten,wurde,Gäste,Blutdruck,machte,Fernrohr,Teilnehmerinnen,nehme,Kinder,Schuhe,verlassen,der,wurden,Betten,Uhr,g,machte,Fernrohr,verlassen,wurde,des,waren,hatte,wurde,waren,keinen,konnten,ist,den,äußersten,Uhr,Tonnen,türmen,müden,meinem,den,das,hat,die,hat,hatten,Stücke,"Uhr,",Tuch,hatte,Schule,der,Uhr,türmen,äußeren,dieser,meinem,g,Kreditnehmer,Linie,,,,,,,,,,,,,,,,,,,,,,,5,0,5,0,0,1,1,1,,,,,,,space,0.868725061417,,,,,2017_Feb_01_1504,59.3584543579,spr_backupper,001,Mi10,
,Zirkus,Feier,Eimer,dem,fuhren,die,beider,saftigen,gebrauchter,uns,wurden,Ankunft,trotz,wurden,das,Kleidung,wurden,Kakao,suchen,die,verbraucht,in,jede,eine,Tropfen,die,Methode,zum,60,beider,Ankunft,Studie,Tropfen,uns,immer,jede,Essen,"regnete,",Tat,Bürgermeister,war,60,wird,in,damals,suchen,kann,mal,sahen,wussten,eine,fuhren,in,wegen,Tat,Eimer,wurden,war,braunen,mal,sahen,wegen,trotz,Rummels,nur,keine,die,nur,Umständen,dann,genau,Bürgermeister,Rand,schlug,gebrauchte,sich,Teilnehmer,Studium,Kakao,Essen,ein,Sonne,uns,in,saftiges,die,wurde,keine,verbraucht,Feier,schlug,sich,Rand,Methode,Studium,brauner,sind,101,,,,,,,,,,,,,,,,,,,,,,,5,0,5,0,0,2,2,2,,,,,,,space,0.980010032654,,,,,2017_Feb_01_1504,59.3584543579,spr_backupper,001,Mi10,
,werden,gedachte,rote,Mann,mit,Masse,beteiligter,Fleischs,Kleidung,durch,unter,stand,des,aus,Auto,bei,mit,gehören,die,Masse,260.000,Größe,Menge,große,königliches,Erlebnisse,kann,Mond,Liter,beteiligten,stand,wurde,königlichen,durch,auf,Menge,kann,hat,wissen,beschuldigten,der,Liter,mit,Dänemark,schnell,die,schon,wieder,wir,überwiegend,große,mit,Größe,des,wissen,roter,mit,aus,Zuckers,wieder,wir,dem,dem,wurde,kleinere,Lust,Leinwand,kleinere,können,mit,die,beschuldigten,der,"sporadisch,",Kleidung,Berge,wurden,las,gehören,kann,Hemd,"unterging,",die,Dänemark,Fleisch,er,dann,Lust,260.000,gedachte,"sporadisch,",Berge,der,kann,habe,Zucker,mit,hält,,,,,,,,,,,,,,,,,,,,,,,5,0,5,0,0,3,3,3,,,,,,,space,0.9797270298,,,,,2017_Feb_01_1504,59.3584543579,spr_backupper,001,Mi10,
,die,man,Farbe,das,solch,mit,Fahrer,wurden,landen,Büschel,"regelmäßigem,",ein,bekannten,"wertvollem,",dem,ausreichendem,dauerhaftem,immer,Wohnung,mit,Kilowattstunden,36,alten,Packung,Blut,bei,man,dauerte,sprudelnden,Fahrer,ein,jetzt,Bluts,Büschel,warmem,alten,ich,uns,wir,die,vierte,sprudelndes,"reichlichem,",gelegentlich,dank,Wohnung,bei,viel,den,"nicht,",Packung,solchen,36,schönen,wir,Farbe,"üblichem,","Japan,",sind,viel,den,schönen,bekannten,schon,"Delikte,",auf,aus,"Delikte,",Neuwahlen,"minimalem,",richtige,die,Stadt,obwohl,landen,schmutziger,mit,ich,immer,ich,aus,war,Stimmung,einen,wurden,"trug,",mit,auf,Kilowattstunden,man,obschon,schmutzige,Stadt,man,ich,sind,"sämtlichem,",nicht,,,,,,,,,,,,,,,,,,,,,,,5,0,5,0,0,4,4,4,,,,,,,space,0.962311983109,,,,,2017_Feb_01_1504,59.3584543579,spr_backupper,001,Mi10,
,Tiere,den,geschleudert.,Auto,unzureichenden,einem,wurden,serviert.,im,frischen,kaltem,Glas,Skandals,klassischen,Mann,monatlichem,feinem,350,des,einem,elektrischer,hätten,Krams,salzige,hat,"frischem,",eine,ungefähr,Trinkwassers.,wurden,Glas,"nachgewiesen,",hat,frisches,weichem,Kram,leider,die,um,Störenfriede,Bundespräsident.,Trinkwasser.,purem,einen,täglichem,des,minimalem,Lärm,roten,was,salziger,unzureichenden,würden,Wetters,von,geschleudert.,harten,die,auf,Lärm,roten,Wetter,Skandal,immer,deren,noch,seltenem,derer,vor,sauberen,"Zeit,",Störenfriede,liegen,sie,im,Wäsche.,zusätzlichem,mehr,350,leider,feinem,die,ziemlich,gelegentlichen,serviert.,war,"reichem,",noch,elektrische,der,sie,Wäsche.,liegen,eine,mehr,auf,künftigem,am,,,,,,,,,,,,,,,,,,,,,,,5,0,5,0,0,5,5,5,,,,,,,space,0.95645403862,,,,,2017_Feb_01_1504,59.3584543579,spr_backupper,001,Mi10,
,artgerecht,Soldaten,nan,mehr,Helmen,Esslöffel,verschrottet.,nan,Müll.,Grases,Abduschen,köstlicher,wiedergewählt.,Schmuck,mehr,Taschengeld,Kunsteis,ml,Herrn,Esslöffel,Energie.,seiner,aus,Wurst,den,kaltem,große,drei,nan,verschrottet.,köstlichen,dass,den,Gras,Untergrund,aus,nichts,Stimmung,die,jeden.,nan,nan,Alkohol,Besucher.,grünen,Herrn,täglichen,um,Planeten,Tupperware,Wurst,Helmen,seiner,die,den,nan,Schaumstoff,er,jeden,um,Planet,die,wiedergewählt.,ruhig,sie,eine,dichten,sie,Dezember,Kraftstoff,um,jeden.,die,defekt,Müll.,nan,schwarzem,als,ml,nichts,dichten,Flut,"vermiest,",Besucher.,nan,aus,goldenen,eine,Energie.,Soldaten,defekt,nan,die,große,als,jeden,Einkommen,Hauptbahnhof.,,,,,,,,,,,,,,,,,,,,,,,5,0,5,0,0,6,6,6,,,,,,,space,1.03492999077,,,,,2017_Feb_01_1504,59.3584543579,spr_backupper,001,Mi10,
,gehalten.,des,nan,als,zur,warmem,nan,nan,nan,zwängen.,gehärtet.,Wein,nan,umgearbeitet.,als,selber,eingesprüht.,warme,Gantenbeins.,warmen,nan,Frau,dem,mit,Boden,Saft,Menge,Tage.,nan,nan,Weins,das,Boden,zwängen.,liegen.,dem,mitbringen.,ziemlich,Probleme,nan,nan,nan,verdünnt.,nan,Tee,Gantenbein.,Einsatz,jede,ganz,ist.,mit,zur,Frau,Wohnung.,Problemen,nan,gefertigt.,trug.,Fall,jede,ganz,Wohnung.,nan,diskutiert.,überführt,Sammlung,Gewebe,überführt,stattfinden.,fahren.,Nadelhölzer,nan,Slums.,war.,nan,nan,Kaffee,einmal,warmer,mitbringen.,Stoff,zurückgekehrt.,dass,nan,nan,Japan.,Besatz,Sammlung,nan,des,war.,nan,Slums.,Menge,einmal,Fall,haftbar.,nan,,,,,,,,,,,,,,,,,,,,,,,5,0,5,0,0,7,7,7,,,,,,,space,0.882596969604,,,,,2017_Feb_01_1504,59.3584543579,spr_backupper,001,Mi10,
,,,,,,,,,,,,,,,,,,,,,,,,,,,,,,,,,,,,,,,,,,,,,,,,,,,,,,,,,,,,,,,,,,,,,,,,,,,,,,,,,,,,,,,,,,,,,,,,,,,,,,,,,,,,,,,,,,,,,,,,,5,0,5,0,,,,,,,,,,,,,None,n,2.63557100296,,2017_Feb_01_1504,59.3584543579,spr_backupper,001,Mi10,
,In,Bei,Es,Wir,Die,Er,Die,Beträchtliche,Viele,Wir,Die,Bei,Er,Die,Wir,Jugendliche,Die,In,Die,Er,Die,Die,Wir,Ich,Nicht,Sie,Mit,Der,Sie,Die,Bei,In,Nicht,Wir,Jungtiere,Wir,Außer,Dass,In,Außer,Walter,Sie,Die,Wir,Ich,Die,Ihr,Man,Im,Die,Ich,Die,Die,Sie,In,Es,Alle,Die,100,Man,Im,Sie,Er,Fernab,Es,Sie,Danach,Es,Unter,Wir,Jetzt,Außer,Am,Die,Viele,Dort,Die,In,In,Außer,Er,Als,Es,Wir,Beträchtliche,Die,Das,Sie,Die,Bei,Die,Dort,Am,Mit,In,100,Manche,Die,,,,,,,,,,,,,,,,,,,,,,,6,0,6,0,0,0,0,0,,,,,,None,space,0.433911085129,,,,,2017_Feb_01_1504,59.3584543579,spr_backupper,001,Mi10,
,diesem,der,wurden,übergaben,Kinder,stellt,Autos,Stücke,Tonnen,mussten,Formen,unserer,wurde,Stücke,übergaben,können,Eislaufbahnen,den,Gäste,stellt,Schule,Schuhe,haben,nehme,ein,haben,dieser,Flug,verbrauchen,Autos,unserer,einer,ein,mussten,sollten,haben,dem,es,der,dem,Scheel,verbrauchen,Lösung,hatten,wurde,Gäste,Blutdruck,machte,Fernrohr,Teilnehmerinnen,nehme,Kinder,Schuhe,verlassen,der,wurden,Betten,Uhr,g,machte,Fernrohr,verlassen,wurde,des,waren,hatte,wurde,waren,keinen,konnten,ist,den,äußersten,Uhr,Tonnen,türmen,müden,meinem,den,das,hat,die,hat,hatten,Stücke,"Uhr,",Tuch,hatte,Schule,der,Uhr,türmen,äußeren,dieser,meinem,g,Kreditnehmer,Linie,,,,,,,,,,,,,,,,,,,,,,,6,0,6,0,0,1,1,1,,,,,,,space,0.781540155411,,,,,2017_Feb_01_1504,59.3584543579,spr_backupper,001,Mi10,
,Zirkus,Feier,Eimer,dem,fuhren,die,beider,saftigen,gebrauchter,uns,wurden,Ankunft,trotz,wurden,das,Kleidung,wurden,Kakao,suchen,die,verbraucht,in,jede,eine,Tropfen,die,Methode,zum,60,beider,Ankunft,Studie,Tropfen,uns,immer,jede,Essen,"regnete,",Tat,Bürgermeister,war,60,wird,in,damals,suchen,kann,mal,sahen,wussten,eine,fuhren,in,wegen,Tat,Eimer,wurden,war,braunen,mal,sahen,wegen,trotz,Rummels,nur,keine,die,nur,Umständen,dann,genau,Bürgermeister,Rand,schlug,gebrauchte,sich,Teilnehmer,Studium,Kakao,Essen,ein,Sonne,uns,in,saftiges,die,wurde,keine,verbraucht,Feier,schlug,sich,Rand,Methode,Studium,brauner,sind,101,,,,,,,,,,,,,,,,,,,,,,,6,0,6,0,0,2,2,2,,,,,,,space,0.86935710907,,,,,2017_Feb_01_1504,59.3584543579,spr_backupper,001,Mi10,
,werden,gedachte,rote,Mann,mit,Masse,beteiligter,Fleischs,Kleidung,durch,unter,stand,des,aus,Auto,bei,mit,gehören,die,Masse,260.000,Größe,Menge,große,königliches,Erlebnisse,kann,Mond,Liter,beteiligten,stand,wurde,königlichen,durch,auf,Menge,kann,hat,wissen,beschuldigten,der,Liter,mit,Dänemark,schnell,die,schon,wieder,wir,überwiegend,große,mit,Größe,des,wissen,roter,mit,aus,Zuckers,wieder,wir,dem,dem,wurde,kleinere,Lust,Leinwand,kleinere,können,mit,die,beschuldigten,der,"sporadisch,",Kleidung,Berge,wurden,las,gehören,kann,Hemd,"unterging,",die,Dänemark,Fleisch,er,dann,Lust,260.000,gedachte,"sporadisch,",Berge,der,kann,habe,Zucker,mit,hält,,,,,,,,,,,,,,,,,,,,,,,6,0,6,0,0,3,3,3,,,,,,,space,0.821984052658,,,,,2017_Feb_01_1504,59.3584543579,spr_backupper,001,Mi10,
,die,man,Farbe,das,solch,mit,Fahrer,wurden,landen,Büschel,"regelmäßigem,",ein,bekannten,"wertvollem,",dem,ausreichendem,dauerhaftem,immer,Wohnung,mit,Kilowattstunden,36,alten,Packung,Blut,bei,man,dauerte,sprudelnden,Fahrer,ein,jetzt,Bluts,Büschel,warmem,alten,ich,uns,wir,die,vierte,sprudelndes,"reichlichem,",gelegentlich,dank,Wohnung,bei,viel,den,"nicht,",Packung,solchen,36,schönen,wir,Farbe,"üblichem,","Japan,",sind,viel,den,schönen,bekannten,schon,"Delikte,",auf,aus,"Delikte,",Neuwahlen,"minimalem,",richtige,die,Stadt,obwohl,landen,schmutziger,mit,ich,immer,ich,aus,war,Stimmung,einen,wurden,"trug,",mit,auf,Kilowattstunden,man,obschon,schmutzige,Stadt,man,ich,sind,"sämtlichem,",nicht,,,,,,,,,,,,,,,,,,,,,,,6,0,6,0,0,4,4,4,,,,,,,space,0.788430929184,,,,,2017_Feb_01_1504,59.3584543579,spr_backupper,001,Mi10,
,Tiere,den,geschleudert.,Auto,unzureichenden,einem,wurden,serviert.,im,frischen,kaltem,Glas,Skandals,klassischen,Mann,monatlichem,feinem,350,des,einem,elektrischer,hätten,Krams,salzige,hat,"frischem,",eine,ungefähr,Trinkwassers.,wurden,Glas,"nachgewiesen,",hat,frisches,weichem,Kram,leider,die,um,Störenfriede,Bundespräsident.,Trinkwasser.,purem,einen,täglichem,des,minimalem,Lärm,roten,was,salziger,unzureichenden,würden,Wetters,von,geschleudert.,harten,die,auf,Lärm,roten,Wetter,Skandal,immer,deren,noch,seltenem,derer,vor,sauberen,"Zeit,",Störenfriede,liegen,sie,im,Wäsche.,zusätzlichem,mehr,350,leider,feinem,die,ziemlich,gelegentlichen,serviert.,war,"reichem,",noch,elektrische,der,sie,Wäsche.,liegen,eine,mehr,auf,künftigem,am,,,,,,,,,,,,,,,,,,,,,,,6,0,6,0,0,5,5,5,,,,,,,space,0.788289070129,,,,,2017_Feb_01_1504,59.3584543579,spr_backupper,001,Mi10,
,artgerecht,Soldaten,nan,mehr,Helmen,Esslöffel,verschrottet.,nan,Müll.,Grases,Abduschen,köstlicher,wiedergewählt.,Schmuck,mehr,Taschengeld,Kunsteis,ml,Herrn,Esslöffel,Energie.,seiner,aus,Wurst,den,kaltem,große,drei,nan,verschrottet.,köstlichen,dass,den,Gras,Untergrund,aus,nichts,Stimmung,die,jeden.,nan,nan,Alkohol,Besucher.,grünen,Herrn,täglichen,um,Planeten,Tupperware,Wurst,Helmen,seiner,die,den,nan,Schaumstoff,er,jeden,um,Planet,die,wiedergewählt.,ruhig,sie,eine,dichten,sie,Dezember,Kraftstoff,um,jeden.,die,defekt,Müll.,nan,schwarzem,als,ml,nichts,dichten,Flut,"vermiest,",Besucher.,nan,aus,goldenen,eine,Energie.,Soldaten,defekt,nan,die,große,als,jeden,Einkommen,Hauptbahnhof.,,,,,,,,,,,,,,,,,,,,,,,6,0,6,0,0,6,6,6,,,,,,,space,1.02401995659,,,,,2017_Feb_01_1504,59.3584543579,spr_backupper,001,Mi10,
,,,,,,,,,,,,,,,,,,,,,,,,,,,,,,,,,,,,,,,,,,,,,,,,,,,,,,,,,,,,,,,,,,,,,,,,,,,,,,,,,,,,,,,,,,,,,,,,,,,,,,,,,,,,,,,,,,,,,,,,,6,0,6,0,,,,,,,,,,,,,None,j,3.67859196663,,2017_Feb_01_1504,59.3584543579,spr_backupper,001,Mi10,
,In,Bei,Es,Wir,Die,Er,Die,Beträchtliche,Viele,Wir,Die,Bei,Er,Die,Wir,Jugendliche,Die,In,Die,Er,Die,Die,Wir,Ich,Nicht,Sie,Mit,Der,Sie,Die,Bei,In,Nicht,Wir,Jungtiere,Wir,Außer,Dass,In,Außer,Walter,Sie,Die,Wir,Ich,Die,Ihr,Man,Im,Die,Ich,Die,Die,Sie,In,Es,Alle,Die,100,Man,Im,Sie,Er,Fernab,Es,Sie,Danach,Es,Unter,Wir,Jetzt,Außer,Am,Die,Viele,Dort,Die,In,In,Außer,Er,Als,Es,Wir,Beträchtliche,Die,Das,Sie,Die,Bei,Die,Dort,Am,Mit,In,100,Manche,Die,,,,,,,,,,,,,,,,,,,,,,,7,0,7,0,0,0,0,0,,,,,,None,space,0.622937917709,,,,,2017_Feb_01_1504,59.3584543579,spr_backupper,001,Mi10,
,diesem,der,wurden,übergaben,Kinder,stellt,Autos,Stücke,Tonnen,mussten,Formen,unserer,wurde,Stücke,übergaben,können,Eislaufbahnen,den,Gäste,stellt,Schule,Schuhe,haben,nehme,ein,haben,dieser,Flug,verbrauchen,Autos,unserer,einer,ein,mussten,sollten,haben,dem,es,der,dem,Scheel,verbrauchen,Lösung,hatten,wurde,Gäste,Blutdruck,machte,Fernrohr,Teilnehmerinnen,nehme,Kinder,Schuhe,verlassen,der,wurden,Betten,Uhr,g,machte,Fernrohr,verlassen,wurde,des,waren,hatte,wurde,waren,keinen,konnten,ist,den,äußersten,Uhr,Tonnen,türmen,müden,meinem,den,das,hat,die,hat,hatten,Stücke,"Uhr,",Tuch,hatte,Schule,der,Uhr,türmen,äußeren,dieser,meinem,g,Kreditnehmer,Linie,,,,,,,,,,,,,,,,,,,,,,,7,0,7,0,0,1,1,1,,,,,,,space,0.861603975296,,,,,2017_Feb_01_1504,59.3584543579,spr_backupper,001,Mi10,
,Zirkus,Feier,Eimer,dem,fuhren,die,beider,saftigen,gebrauchter,uns,wurden,Ankunft,trotz,wurden,das,Kleidung,wurden,Kakao,suchen,die,verbraucht,in,jede,eine,Tropfen,die,Methode,zum,60,beider,Ankunft,Studie,Tropfen,uns,immer,jede,Essen,"regnete,",Tat,Bürgermeister,war,60,wird,in,damals,suchen,kann,mal,sahen,wussten,eine,fuhren,in,wegen,Tat,Eimer,wurden,war,braunen,mal,sahen,wegen,trotz,Rummels,nur,keine,die,nur,Umständen,dann,genau,Bürgermeister,Rand,schlug,gebrauchte,sich,Teilnehmer,Studium,Kakao,Essen,ein,Sonne,uns,in,saftiges,die,wurde,keine,verbraucht,Feier,schlug,sich,Rand,Methode,Studium,brauner,sind,101,,,,,,,,,,,,,,,,,,,,,,,7,0,7,0,0,2,2,2,,,,,,,space,0.771122217178,,,,,2017_Feb_01_1504,59.3584543579,spr_backupper,001,Mi10,
,werden,gedachte,rote,Mann,mit,Masse,beteiligter,Fleischs,Kleidung,durch,unter,stand,des,aus,Auto,bei,mit,gehören,die,Masse,260.000,Größe,Menge,große,königliches,Erlebnisse,kann,Mond,Liter,beteiligten,stand,wurde,königlichen,durch,auf,Menge,kann,hat,wissen,beschuldigten,der,Liter,mit,Dänemark,schnell,die,schon,wieder,wir,überwiegend,große,mit,Größe,des,wissen,roter,mit,aus,Zuckers,wieder,wir,dem,dem,wurde,kleinere,Lust,Leinwand,kleinere,können,mit,die,beschuldigten,der,"sporadisch,",Kleidung,Berge,wurden,las,gehören,kann,Hemd,"unterging,",die,Dänemark,Fleisch,er,dann,Lust,260.000,gedachte,"sporadisch,",Berge,der,kann,habe,Zucker,mit,hält,,,,,,,,,,,,,,,,,,,,,,,7,0,7,0,0,3,3,3,,,,,,,space,0.869322061539,,,,,2017_Feb_01_1504,59.3584543579,spr_backupper,001,Mi10,
,die,man,Farbe,das,solch,mit,Fahrer,wurden,landen,Büschel,"regelmäßigem,",ein,bekannten,"wertvollem,",dem,ausreichendem,dauerhaftem,immer,Wohnung,mit,Kilowattstunden,36,alten,Packung,Blut,bei,man,dauerte,sprudelnden,Fahrer,ein,jetzt,Bluts,Büschel,warmem,alten,ich,uns,wir,die,vierte,sprudelndes,"reichlichem,",gelegentlich,dank,Wohnung,bei,viel,den,"nicht,",Packung,solchen,36,schönen,wir,Farbe,"üblichem,","Japan,",sind,viel,den,schönen,bekannten,schon,"Delikte,",auf,aus,"Delikte,",Neuwahlen,"minimalem,",richtige,die,Stadt,obwohl,landen,schmutziger,mit,ich,immer,ich,aus,war,Stimmung,einen,wurden,"trug,",mit,auf,Kilowattstunden,man,obschon,schmutzige,Stadt,man,ich,sind,"sämtlichem,",nicht,,,,,,,,,,,,,,,,,,,,,,,7,0,7,0,0,4,4,4,,,,,,,space,0.838414907455,,,,,2017_Feb_01_1504,59.3584543579,spr_backupper,001,Mi10,
,Tiere,den,geschleudert.,Auto,unzureichenden,einem,wurden,serviert.,im,frischen,kaltem,Glas,Skandals,klassischen,Mann,monatlichem,feinem,350,des,einem,elektrischer,hätten,Krams,salzige,hat,"frischem,",eine,ungefähr,Trinkwassers.,wurden,Glas,"nachgewiesen,",hat,frisches,weichem,Kram,leider,die,um,Störenfriede,Bundespräsident.,Trinkwasser.,purem,einen,täglichem,des,minimalem,Lärm,roten,was,salziger,unzureichenden,würden,Wetters,von,geschleudert.,harten,die,auf,Lärm,roten,Wetter,Skandal,immer,deren,noch,seltenem,derer,vor,sauberen,"Zeit,",Störenfriede,liegen,sie,im,Wäsche.,zusätzlichem,mehr,350,leider,feinem,die,ziemlich,gelegentlichen,serviert.,war,"reichem,",noch,elektrische,der,sie,Wäsche.,liegen,eine,mehr,auf,künftigem,am,,,,,,,,,,,,,,,,,,,,,,,7,0,7,0,0,5,5,5,,,,,,,space,0.990304946899,,,,,2017_Feb_01_1504,59.3584543579,spr_backupper,001,Mi10,
,,,,,,,,,,,,,,,,,,,,,,,,,,,,,,,,,,,,,,,,,,,,,,,,,,,,,,,,,,,,,,,,,,,,,,,,,,,,,,,,,,,,,,,,,,,,,,,,,,,,,,,,,,,,,,,,,,,,,,,,,7,0,7,0,,,,,,,,,,,,,None,n,2.28134012222,,2017_Feb_01_1504,59.3584543579,spr_backupper,001,Mi10,
,In,Bei,Es,Wir,Die,Er,Die,Beträchtliche,Viele,Wir,Die,Bei,Er,Die,Wir,Jugendliche,Die,In,Die,Er,Die,Die,Wir,Ich,Nicht,Sie,Mit,Der,Sie,Die,Bei,In,Nicht,Wir,Jungtiere,Wir,Außer,Dass,In,Außer,Walter,Sie,Die,Wir,Ich,Die,Ihr,Man,Im,Die,Ich,Die,Die,Sie,In,Es,Alle,Die,100,Man,Im,Sie,Er,Fernab,Es,Sie,Danach,Es,Unter,Wir,Jetzt,Außer,Am,Die,Viele,Dort,Die,In,In,Außer,Er,Als,Es,Wir,Beträchtliche,Die,Das,Sie,Die,Bei,Die,Dort,Am,Mit,In,100,Manche,Die,,,,,,,,,,,,,,,,,,,,,,,8,0,8,0,0,0,0,0,,,,,,None,space,0.546885967255,,,,,2017_Feb_01_1504,59.3584543579,spr_backupper,001,Mi10,
,diesem,der,wurden,übergaben,Kinder,stellt,Autos,Stücke,Tonnen,mussten,Formen,unserer,wurde,Stücke,übergaben,können,Eislaufbahnen,den,Gäste,stellt,Schule,Schuhe,haben,nehme,ein,haben,dieser,Flug,verbrauchen,Autos,unserer,einer,ein,mussten,sollten,haben,dem,es,der,dem,Scheel,verbrauchen,Lösung,hatten,wurde,Gäste,Blutdruck,machte,Fernrohr,Teilnehmerinnen,nehme,Kinder,Schuhe,verlassen,der,wurden,Betten,Uhr,g,machte,Fernrohr,verlassen,wurde,des,waren,hatte,wurde,waren,keinen,konnten,ist,den,äußersten,Uhr,Tonnen,türmen,müden,meinem,den,das,hat,die,hat,hatten,Stücke,"Uhr,",Tuch,hatte,Schule,der,Uhr,türmen,äußeren,dieser,meinem,g,Kreditnehmer,Linie,,,,,,,,,,,,,,,,,,,,,,,8,0,8,0,0,1,1,1,,,,,,,space,0.769213914871,,,,,2017_Feb_01_1504,59.3584543579,spr_backupper,001,Mi10,
,Zirkus,Feier,Eimer,dem,fuhren,die,beider,saftigen,gebrauchter,uns,wurden,Ankunft,trotz,wurden,das,Kleidung,wurden,Kakao,suchen,die,verbraucht,in,jede,eine,Tropfen,die,Methode,zum,60,beider,Ankunft,Studie,Tropfen,uns,immer,jede,Essen,"regnete,",Tat,Bürgermeister,war,60,wird,in,damals,suchen,kann,mal,sahen,wussten,eine,fuhren,in,wegen,Tat,Eimer,wurden,war,braunen,mal,sahen,wegen,trotz,Rummels,nur,keine,die,nur,Umständen,dann,genau,Bürgermeister,Rand,schlug,gebrauchte,sich,Teilnehmer,Studium,Kakao,Essen,ein,Sonne,uns,in,saftiges,die,wurde,keine,verbraucht,Feier,schlug,sich,Rand,Methode,Studium,brauner,sind,101,,,,,,,,,,,,,,,,,,,,,,,8,0,8,0,0,2,2,2,,,,,,,space,0.715794801712,,,,,2017_Feb_01_1504,59.3584543579,spr_backupper,001,Mi10,
,werden,gedachte,rote,Mann,mit,Masse,beteiligter,Fleischs,Kleidung,durch,unter,stand,des,aus,Auto,bei,mit,gehören,die,Masse,260.000,Größe,Menge,große,königliches,Erlebnisse,kann,Mond,Liter,beteiligten,stand,wurde,königlichen,durch,auf,Menge,kann,hat,wissen,beschuldigten,der,Liter,mit,Dänemark,schnell,die,schon,wieder,wir,überwiegend,große,mit,Größe,des,wissen,roter,mit,aus,Zuckers,wieder,wir,dem,dem,wurde,kleinere,Lust,Leinwand,kleinere,können,mit,die,beschuldigten,der,"sporadisch,",Kleidung,Berge,wurden,las,gehören,kann,Hemd,"unterging,",die,Dänemark,Fleisch,er,dann,Lust,260.000,gedachte,"sporadisch,",Berge,der,kann,habe,Zucker,mit,hält,,,,,,,,,,,,,,,,,,,,,,,8,0,8,0,0,3,3,3,,,,,,,space,1.81103205681,,,,,2017_Feb_01_1504,59.3584543579,spr_backupper,001,Mi10,
,die,man,Farbe,das,solch,mit,Fahrer,wurden,landen,Büschel,"regelmäßigem,",ein,bekannten,"wertvollem,",dem,ausreichendem,dauerhaftem,immer,Wohnung,mit,Kilowattstunden,36,alten,Packung,Blut,bei,man,dauerte,sprudelnden,Fahrer,ein,jetzt,Bluts,Büschel,warmem,alten,ich,uns,wir,die,vierte,sprudelndes,"reichlichem,",gelegentlich,dank,Wohnung,bei,viel,den,"nicht,",Packung,solchen,36,schönen,wir,Farbe,"üblichem,","Japan,",sind,viel,den,schönen,bekannten,schon,"Delikte,",auf,aus,"Delikte,",Neuwahlen,"minimalem,",richtige,die,Stadt,obwohl,landen,schmutziger,mit,ich,immer,ich,aus,war,Stimmung,einen,wurden,"trug,",mit,auf,Kilowattstunden,man,obschon,schmutzige,Stadt,man,ich,sind,"sämtlichem,",nicht,,,,,,,,,,,,,,,,,,,,,,,8,0,8,0,0,4,4,4,,,,,,,space,0.664880990982,,,,,2017_Feb_01_1504,59.3584543579,spr_backupper,001,Mi10,
,Tiere,den,geschleudert.,Auto,unzureichenden,einem,wurden,serviert.,im,frischen,kaltem,Glas,Skandals,klassischen,Mann,monatlichem,feinem,350,des,einem,elektrischer,hätten,Krams,salzige,hat,"frischem,",eine,ungefähr,Trinkwassers.,wurden,Glas,"nachgewiesen,",hat,frisches,weichem,Kram,leider,die,um,Störenfriede,Bundespräsident.,Trinkwasser.,purem,einen,täglichem,des,minimalem,Lärm,roten,was,salziger,unzureichenden,würden,Wetters,von,geschleudert.,harten,die,auf,Lärm,roten,Wetter,Skandal,immer,deren,noch,seltenem,derer,vor,sauberen,"Zeit,",Störenfriede,liegen,sie,im,Wäsche.,zusätzlichem,mehr,350,leider,feinem,die,ziemlich,gelegentlichen,serviert.,war,"reichem,",noch,elektrische,der,sie,Wäsche.,liegen,eine,mehr,auf,künftigem,am,,,,,,,,,,,,,,,,,,,,,,,8,0,8,0,0,5,5,5,,,,,,,space,0.67809510231,,,,,2017_Feb_01_1504,59.3584543579,spr_backupper,001,Mi10,
,artgerecht,Soldaten,nan,mehr,Helmen,Esslöffel,verschrottet.,nan,Müll.,Grases,Abduschen,köstlicher,wiedergewählt.,Schmuck,mehr,Taschengeld,Kunsteis,ml,Herrn,Esslöffel,Energie.,seiner,aus,Wurst,den,kaltem,große,drei,nan,verschrottet.,köstlichen,dass,den,Gras,Untergrund,aus,nichts,Stimmung,die,jeden.,nan,nan,Alkohol,Besucher.,grünen,Herrn,täglichen,um,Planeten,Tupperware,Wurst,Helmen,seiner,die,den,nan,Schaumstoff,er,jeden,um,Planet,die,wiedergewählt.,ruhig,sie,eine,dichten,sie,Dezember,Kraftstoff,um,jeden.,die,defekt,Müll.,nan,schwarzem,als,ml,nichts,dichten,Flut,"vermiest,",Besucher.,nan,aus,goldenen,eine,Energie.,Soldaten,defekt,nan,die,große,als,jeden,Einkommen,Hauptbahnhof.,,,,,,,,,,,,,,,,,,,,,,,8,0,8,0,0,6,6,6,,,,,,,space,0.611496210098,,,,,2017_Feb_01_1504,59.3584543579,spr_backupper,001,Mi10,
,gehalten.,des,nan,als,zur,warmem,nan,nan,nan,zwängen.,gehärtet.,Wein,nan,umgearbeitet.,als,selber,eingesprüht.,warme,Gantenbeins.,warmen,nan,Frau,dem,mit,Boden,Saft,Menge,Tage.,nan,nan,Weins,das,Boden,zwängen.,liegen.,dem,mitbringen.,ziemlich,Probleme,nan,nan,nan,verdünnt.,nan,Tee,Gantenbein.,Einsatz,jede,ganz,ist.,mit,zur,Frau,Wohnung.,Problemen,nan,gefertigt.,trug.,Fall,jede,ganz,Wohnung.,nan,diskutiert.,überführt,Sammlung,Gewebe,überführt,stattfinden.,fahren.,Nadelhölzer,nan,Slums.,war.,nan,nan,Kaffee,einmal,warmer,mitbringen.,Stoff,zurückgekehrt.,dass,nan,nan,Japan.,Besatz,Sammlung,nan,des,war.,nan,Slums.,Menge,einmal,Fall,haftbar.,nan,,,,,,,,,,,,,,,,,,,,,,,8,0,8,0,0,7,7,7,,,,,,,space,0.81325006485,,,,,2017_Feb_01_1504,59.3584543579,spr_backupper,001,Mi10,
,nan,zweiten,nan,gerne.,Schule.,Honig,nan,nan,nan,nan,nan,schon,nan,nan,gerne.,kaufen.,nan,Milch.,nan,Honigs,nan,gepasst.,Haus,an,berührt.,besprochen.,dunkle,nan,nan,nan,schon,Medikament,berührt.,nan,nan,Haus,nan,vermiest.,im,nan,nan,nan,nan,nan,wieder,nan,sinken.,Menge,deutlich.,nan,an,Schule.,gepasst,nan,im,nan,nan,nan,genug.,Menge,deutlich.,nan,nan,nan,wurden.,dummer,wiederhergestellt.,wurden.,nan,nan,umzusetzen.,nan,nan,nan,nan,nan,wiederbelebt.,Rilke.,Milch.,nan,gefertigt.,nan,es,nan,nan,nan,rekonstruiert.,dumme,nan,zweiten,nan,nan,nan,dunkler,Rilke,genug.,nan,nan,,,,,,,,,,,,,,,,,,,,,,,8,0,8,0,0,8,8,8,,,,,,,space,0.711438179016,,,,,2017_Feb_01_1504,59.3584543579,spr_backupper,001,Mi10,
,nan,Weltkriegs.,nan,nan,nan,her.,nan,nan,nan,nan,nan,auf,nan,nan,nan,nan,nan,nan,nan,her.,nan,nan,geschafft.,den,nan,nan,Materie,nan,nan,nan,auf,nicht,nan,nan,nan,geschafft.,nan,nan,Landkreis.,nan,nan,nan,nan,nan,fit.,nan,nan,heißer,nan,nan,den,nan,haben.,nan,Landkreis.,nan,nan,nan,nan,heiße,nan,nan,nan,nan,nan,Sprüche.,nan,nan,nan,nan,nan,nan,nan,nan,nan,nan,nan,nan,nan,nan,nan,nan,regnete.,nan,nan,nan,nan,Sprüche.,nan,Weltkriegs.,nan,nan,nan,Materie,gelesen.,nan,nan,nan,,,,,,,,,,,,,,,,,,,,,,,8,0,8,0,0,9,9,9,,,,,,,space,0.76161980629,,,,,2017_Feb_01_1504,59.3584543579,spr_backupper,001,Mi10,
,,,,,,,,,,,,,,,,,,,,,,,,,,,,,,,,,,,,,,,,,,,,,,,,,,,,,,,,,,,,,,,,,,,,,,,,,,,,,,,,,,,,,,,,,,,,,,,,,,,,,,,,,,,,,,,,,,,,,,,,,8,0,8,0,,,,,,,,,,,,,None,j,2.21314001083,,2017_Feb_01_1504,59.3584543579,spr_backupper,001,Mi10,
,In,Bei,Es,Wir,Die,Er,Die,Beträchtliche,Viele,Wir,Die,Bei,Er,Die,Wir,Jugendliche,Die,In,Die,Er,Die,Die,Wir,Ich,Nicht,Sie,Mit,Der,Sie,Die,Bei,In,Nicht,Wir,Jungtiere,Wir,Außer,Dass,In,Außer,Walter,Sie,Die,Wir,Ich,Die,Ihr,Man,Im,Die,Ich,Die,Die,Sie,In,Es,Alle,Die,100,Man,Im,Sie,Er,Fernab,Es,Sie,Danach,Es,Unter,Wir,Jetzt,Außer,Am,Die,Viele,Dort,Die,In,In,Außer,Er,Als,Es,Wir,Beträchtliche,Die,Das,Sie,Die,Bei,Die,Dort,Am,Mit,In,100,Manche,Die,,,,,,,,,,,,,,,,,,,,,,,9,0,9,0,0,0,0,0,,,,,,None,space,0.454924106598,,,,,2017_Feb_01_1504,59.3584543579,spr_backupper,001,Mi10,
,diesem,der,wurden,übergaben,Kinder,stellt,Autos,Stücke,Tonnen,mussten,Formen,unserer,wurde,Stücke,übergaben,können,Eislaufbahnen,den,Gäste,stellt,Schule,Schuhe,haben,nehme,ein,haben,dieser,Flug,verbrauchen,Autos,unserer,einer,ein,mussten,sollten,haben,dem,es,der,dem,Scheel,verbrauchen,Lösung,hatten,wurde,Gäste,Blutdruck,machte,Fernrohr,Teilnehmerinnen,nehme,Kinder,Schuhe,verlassen,der,wurden,Betten,Uhr,g,machte,Fernrohr,verlassen,wurde,des,waren,hatte,wurde,waren,keinen,konnten,ist,den,äußersten,Uhr,Tonnen,türmen,müden,meinem,den,das,hat,die,hat,hatten,Stücke,"Uhr,",Tuch,hatte,Schule,der,Uhr,türmen,äußeren,dieser,meinem,g,Kreditnehmer,Linie,,,,,,,,,,,,,,,,,,,,,,,9,0,9,0,0,1,1,1,,,,,,,space,0.602087020874,,,,,2017_Feb_01_1504,59.3584543579,spr_backupper,001,Mi10,
,Zirkus,Feier,Eimer,dem,fuhren,die,beider,saftigen,gebrauchter,uns,wurden,Ankunft,trotz,wurden,das,Kleidung,wurden,Kakao,suchen,die,verbraucht,in,jede,eine,Tropfen,die,Methode,zum,60,beider,Ankunft,Studie,Tropfen,uns,immer,jede,Essen,"regnete,",Tat,Bürgermeister,war,60,wird,in,damals,suchen,kann,mal,sahen,wussten,eine,fuhren,in,wegen,Tat,Eimer,wurden,war,braunen,mal,sahen,wegen,trotz,Rummels,nur,keine,die,nur,Umständen,dann,genau,Bürgermeister,Rand,schlug,gebrauchte,sich,Teilnehmer,Studium,Kakao,Essen,ein,Sonne,uns,in,saftiges,die,wurde,keine,verbraucht,Feier,schlug,sich,Rand,Methode,Studium,brauner,sind,101,,,,,,,,,,,,,,,,,,,,,,,9,0,9,0,0,2,2,2,,,,,,,space,0.638859987259,,,,,2017_Feb_01_1504,59.3584543579,spr_backupper,001,Mi10,
,werden,gedachte,rote,Mann,mit,Masse,beteiligter,Fleischs,Kleidung,durch,unter,stand,des,aus,Auto,bei,mit,gehören,die,Masse,260.000,Größe,Menge,große,königliches,Erlebnisse,kann,Mond,Liter,beteiligten,stand,wurde,königlichen,durch,auf,Menge,kann,hat,wissen,beschuldigten,der,Liter,mit,Dänemark,schnell,die,schon,wieder,wir,überwiegend,große,mit,Größe,des,wissen,roter,mit,aus,Zuckers,wieder,wir,dem,dem,wurde,kleinere,Lust,Leinwand,kleinere,können,mit,die,beschuldigten,der,"sporadisch,",Kleidung,Berge,wurden,las,gehören,kann,Hemd,"unterging,",die,Dänemark,Fleisch,er,dann,Lust,260.000,gedachte,"sporadisch,",Berge,der,kann,habe,Zucker,mit,hält,,,,,,,,,,,,,,,,,,,,,,,9,0,9,0,0,3,3,3,,,,,,,space,0.571988105774,,,,,2017_Feb_01_1504,59.3584543579,spr_backupper,001,Mi10,
,die,man,Farbe,das,solch,mit,Fahrer,wurden,landen,Büschel,"regelmäßigem,",ein,bekannten,"wertvollem,",dem,ausreichendem,dauerhaftem,immer,Wohnung,mit,Kilowattstunden,36,alten,Packung,Blut,bei,man,dauerte,sprudelnden,Fahrer,ein,jetzt,Bluts,Büschel,warmem,alten,ich,uns,wir,die,vierte,sprudelndes,"reichlichem,",gelegentlich,dank,Wohnung,bei,viel,den,"nicht,",Packung,solchen,36,schönen,wir,Farbe,"üblichem,","Japan,",sind,viel,den,schönen,bekannten,schon,"Delikte,",auf,aus,"Delikte,",Neuwahlen,"minimalem,",richtige,die,Stadt,obwohl,landen,schmutziger,mit,ich,immer,ich,aus,war,Stimmung,einen,wurden,"trug,",mit,auf,Kilowattstunden,man,obschon,schmutzige,Stadt,man,ich,sind,"sämtlichem,",nicht,,,,,,,,,,,,,,,,,,,,,,,9,0,9,0,0,4,4,4,,,,,,,space,0.587141036987,,,,,2017_Feb_01_1504,59.3584543579,spr_backupper,001,Mi10,
,Tiere,den,geschleudert.,Auto,unzureichenden,einem,wurden,serviert.,im,frischen,kaltem,Glas,Skandals,klassischen,Mann,monatlichem,feinem,350,des,einem,elektrischer,hätten,Krams,salzige,hat,"frischem,",eine,ungefähr,Trinkwassers.,wurden,Glas,"nachgewiesen,",hat,frisches,weichem,Kram,leider,die,um,Störenfriede,Bundespräsident.,Trinkwasser.,purem,einen,täglichem,des,minimalem,Lärm,roten,was,salziger,unzureichenden,würden,Wetters,von,geschleudert.,harten,die,auf,Lärm,roten,Wetter,Skandal,immer,deren,noch,seltenem,derer,vor,sauberen,"Zeit,",Störenfriede,liegen,sie,im,Wäsche.,zusätzlichem,mehr,350,leider,feinem,die,ziemlich,gelegentlichen,serviert.,war,"reichem,",noch,elektrische,der,sie,Wäsche.,liegen,eine,mehr,auf,künftigem,am,,,,,,,,,,,,,,,,,,,,,,,9,0,9,0,0,5,5,5,,,,,,,space,0.570699930191,,,,,2017_Feb_01_1504,59.3584543579,spr_backupper,001,Mi10,
,artgerecht,Soldaten,nan,mehr,Helmen,Esslöffel,verschrottet.,nan,Müll.,Grases,Abduschen,köstlicher,wiedergewählt.,Schmuck,mehr,Taschengeld,Kunsteis,ml,Herrn,Esslöffel,Energie.,seiner,aus,Wurst,den,kaltem,große,drei,nan,verschrottet.,köstlichen,dass,den,Gras,Untergrund,aus,nichts,Stimmung,die,jeden.,nan,nan,Alkohol,Besucher.,grünen,Herrn,täglichen,um,Planeten,Tupperware,Wurst,Helmen,seiner,die,den,nan,Schaumstoff,er,jeden,um,Planet,die,wiedergewählt.,ruhig,sie,eine,dichten,sie,Dezember,Kraftstoff,um,jeden.,die,defekt,Müll.,nan,schwarzem,als,ml,nichts,dichten,Flut,"vermiest,",Besucher.,nan,aus,goldenen,eine,Energie.,Soldaten,defekt,nan,die,große,als,jeden,Einkommen,Hauptbahnhof.,,,,,,,,,,,,,,,,,,,,,,,9,0,9,0,0,6,6,6,,,,,,,space,0.551690101624,,,,,2017_Feb_01_1504,59.3584543579,spr_backupper,001,Mi10,
,gehalten.,des,nan,als,zur,warmem,nan,nan,nan,zwängen.,gehärtet.,Wein,nan,umgearbeitet.,als,selber,eingesprüht.,warme,Gantenbeins.,warmen,nan,Frau,dem,mit,Boden,Saft,Menge,Tage.,nan,nan,Weins,das,Boden,zwängen.,liegen.,dem,mitbringen.,ziemlich,Probleme,nan,nan,nan,verdünnt.,nan,Tee,Gantenbein.,Einsatz,jede,ganz,ist.,mit,zur,Frau,Wohnung.,Problemen,nan,gefertigt.,trug.,Fall,jede,ganz,Wohnung.,nan,diskutiert.,überführt,Sammlung,Gewebe,überführt,stattfinden.,fahren.,Nadelhölzer,nan,Slums.,war.,nan,nan,Kaffee,einmal,warmer,mitbringen.,Stoff,zurückgekehrt.,dass,nan,nan,Japan.,Besatz,Sammlung,nan,des,war.,nan,Slums.,Menge,einmal,Fall,haftbar.,nan,,,,,,,,,,,,,,,,,,,,,,,9,0,9,0,0,7,7,7,,,,,,,space,0.55489397049,,,,,2017_Feb_01_1504,59.3584543579,spr_backupper,001,Mi10,
,nan,zweiten,nan,gerne.,Schule.,Honig,nan,nan,nan,nan,nan,schon,nan,nan,gerne.,kaufen.,nan,Milch.,nan,Honigs,nan,gepasst.,Haus,an,berührt.,besprochen.,dunkle,nan,nan,nan,schon,Medikament,berührt.,nan,nan,Haus,nan,vermiest.,im,nan,nan,nan,nan,nan,wieder,nan,sinken.,Menge,deutlich.,nan,an,Schule.,gepasst,nan,im,nan,nan,nan,genug.,Menge,deutlich.,nan,nan,nan,wurden.,dummer,wiederhergestellt.,wurden.,nan,nan,umzusetzen.,nan,nan,nan,nan,nan,wiederbelebt.,Rilke.,Milch.,nan,gefertigt.,nan,es,nan,nan,nan,rekonstruiert.,dumme,nan,zweiten,nan,nan,nan,dunkler,Rilke,genug.,nan,nan,,,,,,,,,,,,,,,,,,,,,,,9,0,9,0,0,8,8,8,,,,,,,space,0.62730884552,,,,,2017_Feb_01_1504,59.3584543579,spr_backupper,001,Mi10,
,nan,Weltkriegs.,nan,nan,nan,her.,nan,nan,nan,nan,nan,auf,nan,nan,nan,nan,nan,nan,nan,her.,nan,nan,geschafft.,den,nan,nan,Materie,nan,nan,nan,auf,nicht,nan,nan,nan,geschafft.,nan,nan,Landkreis.,nan,nan,nan,nan,nan,fit.,nan,nan,heißer,nan,nan,den,nan,haben.,nan,Landkreis.,nan,nan,nan,nan,heiße,nan,nan,nan,nan,nan,Sprüche.,nan,nan,nan,nan,nan,nan,nan,nan,nan,nan,nan,nan,nan,nan,nan,nan,regnete.,nan,nan,nan,nan,Sprüche.,nan,Weltkriegs.,nan,nan,nan,Materie,gelesen.,nan,nan,nan,,,,,,,,,,,,,,,,,,,,,,,9,0,9,0,0,9,9,9,,,,,,,space,0.569742918015,,,,,2017_Feb_01_1504,59.3584543579,spr_backupper,001,Mi10,
,nan,nan,nan,nan,nan,nan,nan,nan,nan,nan,nan,dem,nan,nan,nan,nan,nan,nan,nan,nan,nan,nan,nan,See.,nan,nan,erzeugen.,nan,nan,nan,dem,wirkt.,nan,nan,nan,nan,nan,nan,nan,nan,nan,nan,nan,nan,nan,nan,nan,Luft.,nan,nan,See.,nan,nan,nan,nan,nan,nan,nan,nan,Luft.,nan,nan,nan,nan,nan,nan,nan,nan,nan,nan,nan,nan,nan,nan,nan,nan,nan,nan,nan,nan,nan,nan,nan,nan,nan,nan,nan,nan,nan,nan,nan,nan,nan,erzeugen.,nan,nan,nan,nan,,,,,,,,,,,,,,,,,,,,,,,9,0,9,0,0,10,10,10,,,,,,,space,0.604587078094,,,,,2017_Feb_01_1504,59.3584543579,spr_backupper,001,Mi10,
,,,,,,,,,,,,,,,,,,,,,,,,,,,,,,,,,,,,,,,,,,,,,,,,,,,,,,,,,,,,,,,,,,,,,,,,,,,,,,,,,,,,,,,,,,,,,,,,,,,,,,,,,,,,,,,,,,,,,,,,,9,0,9,0,,,,,,,,,,,,,None,n,3.21312403679,,2017_Feb_01_1504,59.3584543579,spr_backupper,001,Mi10,
,In,Bei,Es,Wir,Die,Er,Die,Beträchtliche,Viele,Wir,Die,Bei,Er,Die,Wir,Jugendliche,Die,In,Die,Er,Die,Die,Wir,Ich,Nicht,Sie,Mit,Der,Sie,Die,Bei,In,Nicht,Wir,Jungtiere,Wir,Außer,Dass,In,Außer,Walter,Sie,Die,Wir,Ich,Die,Ihr,Man,Im,Die,Ich,Die,Die,Sie,In,Es,Alle,Die,100,Man,Im,Sie,Er,Fernab,Es,Sie,Danach,Es,Unter,Wir,Jetzt,Außer,Am,Die,Viele,Dort,Die,In,In,Außer,Er,Als,Es,Wir,Beträchtliche,Die,Das,Sie,Die,Bei,Die,Dort,Am,Mit,In,100,Manche,Die,,,,,,,,,,,,,,,,,,,,,,,10,0,10,0,0,0,0,0,,,,,,None,space,1.16183614731,,,,,2017_Feb_01_1504,59.3584543579,spr_backupper,001,Mi10,
,diesem,der,wurden,übergaben,Kinder,stellt,Autos,Stücke,Tonnen,mussten,Formen,unserer,wurde,Stücke,übergaben,können,Eislaufbahnen,den,Gäste,stellt,Schule,Schuhe,haben,nehme,ein,haben,dieser,Flug,verbrauchen,Autos,unserer,einer,ein,mussten,sollten,haben,dem,es,der,dem,Scheel,verbrauchen,Lösung,hatten,wurde,Gäste,Blutdruck,machte,Fernrohr,Teilnehmerinnen,nehme,Kinder,Schuhe,verlassen,der,wurden,Betten,Uhr,g,machte,Fernrohr,verlassen,wurde,des,waren,hatte,wurde,waren,keinen,konnten,ist,den,äußersten,Uhr,Tonnen,türmen,müden,meinem,den,das,hat,die,hat,hatten,Stücke,"Uhr,",Tuch,hatte,Schule,der,Uhr,türmen,äußeren,dieser,meinem,g,Kreditnehmer,Linie,,,,,,,,,,,,,,,,,,,,,,,10,0,10,0,0,1,1,1,,,,,,,space,0.598310947418,,,,,2017_Feb_01_1504,59.3584543579,spr_backupper,001,Mi10,
,Zirkus,Feier,Eimer,dem,fuhren,die,beider,saftigen,gebrauchter,uns,wurden,Ankunft,trotz,wurden,das,Kleidung,wurden,Kakao,suchen,die,verbraucht,in,jede,eine,Tropfen,die,Methode,zum,60,beider,Ankunft,Studie,Tropfen,uns,immer,jede,Essen,"regnete,",Tat,Bürgermeister,war,60,wird,in,damals,suchen,kann,mal,sahen,wussten,eine,fuhren,in,wegen,Tat,Eimer,wurden,war,braunen,mal,sahen,wegen,trotz,Rummels,nur,keine,die,nur,Umständen,dann,genau,Bürgermeister,Rand,schlug,gebrauchte,sich,Teilnehmer,Studium,Kakao,Essen,ein,Sonne,uns,in,saftiges,die,wurde,keine,verbraucht,Feier,schlug,sich,Rand,Methode,Studium,brauner,sind,101,,,,,,,,,,,,,,,,,,,,,,,10,0,10,0,0,2,2,2,,,,,,,space,0.603412151337,,,,,2017_Feb_01_1504,59.3584543579,spr_backupper,001,Mi10,
,werden,gedachte,rote,Mann,mit,Masse,beteiligter,Fleischs,Kleidung,durch,unter,stand,des,aus,Auto,bei,mit,gehören,die,Masse,260.000,Größe,Menge,große,königliches,Erlebnisse,kann,Mond,Liter,beteiligten,stand,wurde,königlichen,durch,auf,Menge,kann,hat,wissen,beschuldigten,der,Liter,mit,Dänemark,schnell,die,schon,wieder,wir,überwiegend,große,mit,Größe,des,wissen,roter,mit,aus,Zuckers,wieder,wir,dem,dem,wurde,kleinere,Lust,Leinwand,kleinere,können,mit,die,beschuldigten,der,"sporadisch,",Kleidung,Berge,wurden,las,gehören,kann,Hemd,"unterging,",die,Dänemark,Fleisch,er,dann,Lust,260.000,gedachte,"sporadisch,",Berge,der,kann,habe,Zucker,mit,hält,,,,,,,,,,,,,,,,,,,,,,,10,0,10,0,0,3,3,3,,,,,,,space,0.654772043228,,,,,2017_Feb_01_1504,59.3584543579,spr_backupper,001,Mi10,
,die,man,Farbe,das,solch,mit,Fahrer,wurden,landen,Büschel,"regelmäßigem,",ein,bekannten,"wertvollem,",dem,ausreichendem,dauerhaftem,immer,Wohnung,mit,Kilowattstunden,36,alten,Packung,Blut,bei,man,dauerte,sprudelnden,Fahrer,ein,jetzt,Bluts,Büschel,warmem,alten,ich,uns,wir,die,vierte,sprudelndes,"reichlichem,",gelegentlich,dank,Wohnung,bei,viel,den,"nicht,",Packung,solchen,36,schönen,wir,Farbe,"üblichem,","Japan,",sind,viel,den,schönen,bekannten,schon,"Delikte,",auf,aus,"Delikte,",Neuwahlen,"minimalem,",richtige,die,Stadt,obwohl,landen,schmutziger,mit,ich,immer,ich,aus,war,Stimmung,einen,wurden,"trug,",mit,auf,Kilowattstunden,man,obschon,schmutzige,Stadt,man,ich,sind,"sämtlichem,",nicht,,,,,,,,,,,,,,,,,,,,,,,10,0,10,0,0,4,4,4,,,,,,,space,0.668872833252,,,,,2017_Feb_01_1504,59.3584543579,spr_backupper,001,Mi10,
,Tiere,den,geschleudert.,Auto,unzureichenden,einem,wurden,serviert.,im,frischen,kaltem,Glas,Skandals,klassischen,Mann,monatlichem,feinem,350,des,einem,elektrischer,hätten,Krams,salzige,hat,"frischem,",eine,ungefähr,Trinkwassers.,wurden,Glas,"nachgewiesen,",hat,frisches,weichem,Kram,leider,die,um,Störenfriede,Bundespräsident.,Trinkwasser.,purem,einen,täglichem,des,minimalem,Lärm,roten,was,salziger,unzureichenden,würden,Wetters,von,geschleudert.,harten,die,auf,Lärm,roten,Wetter,Skandal,immer,deren,noch,seltenem,derer,vor,sauberen,"Zeit,",Störenfriede,liegen,sie,im,Wäsche.,zusätzlichem,mehr,350,leider,feinem,die,ziemlich,gelegentlichen,serviert.,war,"reichem,",noch,elektrische,der,sie,Wäsche.,liegen,eine,mehr,auf,künftigem,am,,,,,,,,,,,,,,,,,,,,,,,10,0,10,0,0,5,5,5,,,,,,,space,0.659373998642,,,,,2017_Feb_01_1504,59.3584543579,spr_backupper,001,Mi10,
,artgerecht,Soldaten,nan,mehr,Helmen,Esslöffel,verschrottet.,nan,Müll.,Grases,Abduschen,köstlicher,wiedergewählt.,Schmuck,mehr,Taschengeld,Kunsteis,ml,Herrn,Esslöffel,Energie.,seiner,aus,Wurst,den,kaltem,große,drei,nan,verschrottet.,köstlichen,dass,den,Gras,Untergrund,aus,nichts,Stimmung,die,jeden.,nan,nan,Alkohol,Besucher.,grünen,Herrn,täglichen,um,Planeten,Tupperware,Wurst,Helmen,seiner,die,den,nan,Schaumstoff,er,jeden,um,Planet,die,wiedergewählt.,ruhig,sie,eine,dichten,sie,Dezember,Kraftstoff,um,jeden.,die,defekt,Müll.,nan,schwarzem,als,ml,nichts,dichten,Flut,"vermiest,",Besucher.,nan,aus,goldenen,eine,Energie.,Soldaten,defekt,nan,die,große,als,jeden,Einkommen,Hauptbahnhof.,,,,,,,,,,,,,,,,,,,,,,,10,0,10,0,0,6,6,6,,,,,,,space,0.697928190231,,,,,2017_Feb_01_1504,59.3584543579,spr_backupper,001,Mi10,
,gehalten.,des,nan,als,zur,warmem,nan,nan,nan,zwängen.,gehärtet.,Wein,nan,umgearbeitet.,als,selber,eingesprüht.,warme,Gantenbeins.,warmen,nan,Frau,dem,mit,Boden,Saft,Menge,Tage.,nan,nan,Weins,das,Boden,zwängen.,liegen.,dem,mitbringen.,ziemlich,Probleme,nan,nan,nan,verdünnt.,nan,Tee,Gantenbein.,Einsatz,jede,ganz,ist.,mit,zur,Frau,Wohnung.,Problemen,nan,gefertigt.,trug.,Fall,jede,ganz,Wohnung.,nan,diskutiert.,überführt,Sammlung,Gewebe,überführt,stattfinden.,fahren.,Nadelhölzer,nan,Slums.,war.,nan,nan,Kaffee,einmal,warmer,mitbringen.,Stoff,zurückgekehrt.,dass,nan,nan,Japan.,Besatz,Sammlung,nan,des,war.,nan,Slums.,Menge,einmal,Fall,haftbar.,nan,,,,,,,,,,,,,,,,,,,,,,,10,0,10,0,0,7,7,7,,,,,,,space,0.621011018753,,,,,2017_Feb_01_1504,59.3584543579,spr_backupper,001,Mi10,
,nan,zweiten,nan,gerne.,Schule.,Honig,nan,nan,nan,nan,nan,schon,nan,nan,gerne.,kaufen.,nan,Milch.,nan,Honigs,nan,gepasst.,Haus,an,berührt.,besprochen.,dunkle,nan,nan,nan,schon,Medikament,berührt.,nan,nan,Haus,nan,vermiest.,im,nan,nan,nan,nan,nan,wieder,nan,sinken.,Menge,deutlich.,nan,an,Schule.,gepasst,nan,im,nan,nan,nan,genug.,Menge,deutlich.,nan,nan,nan,wurden.,dummer,wiederhergestellt.,wurden.,nan,nan,umzusetzen.,nan,nan,nan,nan,nan,wiederbelebt.,Rilke.,Milch.,nan,gefertigt.,nan,es,nan,nan,nan,rekonstruiert.,dumme,nan,zweiten,nan,nan,nan,dunkler,Rilke,genug.,nan,nan,,,,,,,,,,,,,,,,,,,,,,,10,0,10,0,0,8,8,8,,,,,,,space,0.720423936844,,,,,2017_Feb_01_1504,59.3584543579,spr_backupper,001,Mi10,
,nan,Weltkriegs.,nan,nan,nan,her.,nan,nan,nan,nan,nan,auf,nan,nan,nan,nan,nan,nan,nan,her.,nan,nan,geschafft.,den,nan,nan,Materie,nan,nan,nan,auf,nicht,nan,nan,nan,geschafft.,nan,nan,Landkreis.,nan,nan,nan,nan,nan,fit.,nan,nan,heißer,nan,nan,den,nan,haben.,nan,Landkreis.,nan,nan,nan,nan,heiße,nan,nan,nan,nan,nan,Sprüche.,nan,nan,nan,nan,nan,nan,nan,nan,nan,nan,nan,nan,nan,nan,nan,nan,regnete.,nan,nan,nan,nan,Sprüche.,nan,Weltkriegs.,nan,nan,nan,Materie,gelesen.,nan,nan,nan,,,,,,,,,,,,,,,,,,,,,,,10,0,10,0,0,9,9,9,,,,,,,space,0.687565088272,,,,,2017_Feb_01_1504,59.3584543579,spr_backupper,001,Mi10,
,,,,,,,,,,,,,,,,,,,,,,,,,,,,,,,,,,,,,,,,,,,,,,,,,,,,,,,,,,,,,,,,,,,,,,,,,,,,,,,,,,,,,,,,,,,,,,,,,,,,,,,,,,,,,,,,,,,,,,,,,10,0,10,0,,,,,,,,,,,,,None,n,2.83221006393,,2017_Feb_01_1504,59.3584543579,spr_backupper,001,Mi10,
,In,Bei,Es,Wir,Die,Er,Die,Beträchtliche,Viele,Wir,Die,Bei,Er,Die,Wir,Jugendliche,Die,In,Die,Er,Die,Die,Wir,Ich,Nicht,Sie,Mit,Der,Sie,Die,Bei,In,Nicht,Wir,Jungtiere,Wir,Außer,Dass,In,Außer,Walter,Sie,Die,Wir,Ich,Die,Ihr,Man,Im,Die,Ich,Die,Die,Sie,In,Es,Alle,Die,100,Man,Im,Sie,Er,Fernab,Es,Sie,Danach,Es,Unter,Wir,Jetzt,Außer,Am,Die,Viele,Dort,Die,In,In,Außer,Er,Als,Es,Wir,Beträchtliche,Die,Das,Sie,Die,Bei,Die,Dort,Am,Mit,In,100,Manche,Die,,,,,,,,,,,,,,,,,,,,,,,11,0,11,0,0,0,0,0,,,,,,space,space,0.772430896759,,,,1.30875587463,2017_Feb_01_1504,59.3584543579,spr_backupper,001,Mi10,
,diesem,der,wurden,übergaben,Kinder,stellt,Autos,Stücke,Tonnen,mussten,Formen,unserer,wurde,Stücke,übergaben,können,Eislaufbahnen,den,Gäste,stellt,Schule,Schuhe,haben,nehme,ein,haben,dieser,Flug,verbrauchen,Autos,unserer,einer,ein,mussten,sollten,haben,dem,es,der,dem,Scheel,verbrauchen,Lösung,hatten,wurde,Gäste,Blutdruck,machte,Fernrohr,Teilnehmerinnen,nehme,Kinder,Schuhe,verlassen,der,wurden,Betten,Uhr,g,machte,Fernrohr,verlassen,wurde,des,waren,hatte,wurde,waren,keinen,konnten,ist,den,äußersten,Uhr,Tonnen,türmen,müden,meinem,den,das,hat,die,hat,hatten,Stücke,"Uhr,",Tuch,hatte,Schule,der,Uhr,türmen,äußeren,dieser,meinem,g,Kreditnehmer,Linie,,,,,,,,,,,,,,,,,,,,,,,11,0,11,0,0,1,1,1,,,,,,,space,0.754566907883,,,,,2017_Feb_01_1504,59.3584543579,spr_backupper,001,Mi10,
,Zirkus,Feier,Eimer,dem,fuhren,die,beider,saftigen,gebrauchter,uns,wurden,Ankunft,trotz,wurden,das,Kleidung,wurden,Kakao,suchen,die,verbraucht,in,jede,eine,Tropfen,die,Methode,zum,60,beider,Ankunft,Studie,Tropfen,uns,immer,jede,Essen,"regnete,",Tat,Bürgermeister,war,60,wird,in,damals,suchen,kann,mal,sahen,wussten,eine,fuhren,in,wegen,Tat,Eimer,wurden,war,braunen,mal,sahen,wegen,trotz,Rummels,nur,keine,die,nur,Umständen,dann,genau,Bürgermeister,Rand,schlug,gebrauchte,sich,Teilnehmer,Studium,Kakao,Essen,ein,Sonne,uns,in,saftiges,die,wurde,keine,verbraucht,Feier,schlug,sich,Rand,Methode,Studium,brauner,sind,101,,,,,,,,,,,,,,,,,,,,,,,11,0,11,0,0,2,2,2,,,,,,,space,0.738303184509,,,,,2017_Feb_01_1504,59.3584543579,spr_backupper,001,Mi10,
,werden,gedachte,rote,Mann,mit,Masse,beteiligter,Fleischs,Kleidung,durch,unter,stand,des,aus,Auto,bei,mit,gehören,die,Masse,260.000,Größe,Menge,große,königliches,Erlebnisse,kann,Mond,Liter,beteiligten,stand,wurde,königlichen,durch,auf,Menge,kann,hat,wissen,beschuldigten,der,Liter,mit,Dänemark,schnell,die,schon,wieder,wir,überwiegend,große,mit,Größe,des,wissen,roter,mit,aus,Zuckers,wieder,wir,dem,dem,wurde,kleinere,Lust,Leinwand,kleinere,können,mit,die,beschuldigten,der,"sporadisch,",Kleidung,Berge,wurden,las,gehören,kann,Hemd,"unterging,",die,Dänemark,Fleisch,er,dann,Lust,260.000,gedachte,"sporadisch,",Berge,der,kann,habe,Zucker,mit,hält,,,,,,,,,,,,,,,,,,,,,,,11,0,11,0,0,3,3,3,,,,,,,space,0.78799200058,,,,,2017_Feb_01_1504,59.3584543579,spr_backupper,001,Mi10,
,die,man,Farbe,das,solch,mit,Fahrer,wurden,landen,Büschel,"regelmäßigem,",ein,bekannten,"wertvollem,",dem,ausreichendem,dauerhaftem,immer,Wohnung,mit,Kilowattstunden,36,alten,Packung,Blut,bei,man,dauerte,sprudelnden,Fahrer,ein,jetzt,Bluts,Büschel,warmem,alten,ich,uns,wir,die,vierte,sprudelndes,"reichlichem,",gelegentlich,dank,Wohnung,bei,viel,den,"nicht,",Packung,solchen,36,schönen,wir,Farbe,"üblichem,","Japan,",sind,viel,den,schönen,bekannten,schon,"Delikte,",auf,aus,"Delikte,",Neuwahlen,"minimalem,",richtige,die,Stadt,obwohl,landen,schmutziger,mit,ich,immer,ich,aus,war,Stimmung,einen,wurden,"trug,",mit,auf,Kilowattstunden,man,obschon,schmutzige,Stadt,man,ich,sind,"sämtlichem,",nicht,,,,,,,,,,,,,,,,,,,,,,,11,0,11,0,0,4,4,4,,,,,,,space,0.719619035721,,,,,2017_Feb_01_1504,59.3584543579,spr_backupper,001,Mi10,
,Tiere,den,geschleudert.,Auto,unzureichenden,einem,wurden,serviert.,im,frischen,kaltem,Glas,Skandals,klassischen,Mann,monatlichem,feinem,350,des,einem,elektrischer,hätten,Krams,salzige,hat,"frischem,",eine,ungefähr,Trinkwassers.,wurden,Glas,"nachgewiesen,",hat,frisches,weichem,Kram,leider,die,um,Störenfriede,Bundespräsident.,Trinkwasser.,purem,einen,täglichem,des,minimalem,Lärm,roten,was,salziger,unzureichenden,würden,Wetters,von,geschleudert.,harten,die,auf,Lärm,roten,Wetter,Skandal,immer,deren,noch,seltenem,derer,vor,sauberen,"Zeit,",Störenfriede,liegen,sie,im,Wäsche.,zusätzlichem,mehr,350,leider,feinem,die,ziemlich,gelegentlichen,serviert.,war,"reichem,",noch,elektrische,der,sie,Wäsche.,liegen,eine,mehr,auf,künftigem,am,,,,,,,,,,,,,,,,,,,,,,,11,0,11,0,0,5,5,5,,,,,,,space,0.671635150909,,,,,2017_Feb_01_1504,59.3584543579,spr_backupper,001,Mi10,
,artgerecht,Soldaten,nan,mehr,Helmen,Esslöffel,verschrottet.,nan,Müll.,Grases,Abduschen,köstlicher,wiedergewählt.,Schmuck,mehr,Taschengeld,Kunsteis,ml,Herrn,Esslöffel,Energie.,seiner,aus,Wurst,den,kaltem,große,drei,nan,verschrottet.,köstlichen,dass,den,Gras,Untergrund,aus,nichts,Stimmung,die,jeden.,nan,nan,Alkohol,Besucher.,grünen,Herrn,täglichen,um,Planeten,Tupperware,Wurst,Helmen,seiner,die,den,nan,Schaumstoff,er,jeden,um,Planet,die,wiedergewählt.,ruhig,sie,eine,dichten,sie,Dezember,Kraftstoff,um,jeden.,die,defekt,Müll.,nan,schwarzem,als,ml,nichts,dichten,Flut,"vermiest,",Besucher.,nan,aus,goldenen,eine,Energie.,Soldaten,defekt,nan,die,große,als,jeden,Einkommen,Hauptbahnhof.,,,,,,,,,,,,,,,,,,,,,,,11,0,11,0,0,6,6,6,,,,,,,space,0.677113056183,,,,,2017_Feb_01_1504,59.3584543579,spr_backupper,001,Mi10,
,gehalten.,des,nan,als,zur,warmem,nan,nan,nan,zwängen.,gehärtet.,Wein,nan,umgearbeitet.,als,selber,eingesprüht.,warme,Gantenbeins.,warmen,nan,Frau,dem,mit,Boden,Saft,Menge,Tage.,nan,nan,Weins,das,Boden,zwängen.,liegen.,dem,mitbringen.,ziemlich,Probleme,nan,nan,nan,verdünnt.,nan,Tee,Gantenbein.,Einsatz,jede,ganz,ist.,mit,zur,Frau,Wohnung.,Problemen,nan,gefertigt.,trug.,Fall,jede,ganz,Wohnung.,nan,diskutiert.,überführt,Sammlung,Gewebe,überführt,stattfinden.,fahren.,Nadelhölzer,nan,Slums.,war.,nan,nan,Kaffee,einmal,warmer,mitbringen.,Stoff,zurückgekehrt.,dass,nan,nan,Japan.,Besatz,Sammlung,nan,des,war.,nan,Slums.,Menge,einmal,Fall,haftbar.,nan,,,,,,,,,,,,,,,,,,,,,,,11,0,11,0,0,7,7,7,,,,,,,space,0.626524925232,,,,,2017_Feb_01_1504,59.3584543579,spr_backupper,001,Mi10,
,nan,zweiten,nan,gerne.,Schule.,Honig,nan,nan,nan,nan,nan,schon,nan,nan,gerne.,kaufen.,nan,Milch.,nan,Honigs,nan,gepasst.,Haus,an,berührt.,besprochen.,dunkle,nan,nan,nan,schon,Medikament,berührt.,nan,nan,Haus,nan,vermiest.,im,nan,nan,nan,nan,nan,wieder,nan,sinken.,Menge,deutlich.,nan,an,Schule.,gepasst,nan,im,nan,nan,nan,genug.,Menge,deutlich.,nan,nan,nan,wurden.,dummer,wiederhergestellt.,wurden.,nan,nan,umzusetzen.,nan,nan,nan,nan,nan,wiederbelebt.,Rilke.,Milch.,nan,gefertigt.,nan,es,nan,nan,nan,rekonstruiert.,dumme,nan,zweiten,nan,nan,nan,dunkler,Rilke,genug.,nan,nan,,,,,,,,,,,,,,,,,,,,,,,11,0,11,0,0,8,8,8,,,,,,,space,0.788130044937,,,,,2017_Feb_01_1504,59.3584543579,spr_backupper,001,Mi10,
,,,,,,,,,,,,,,,,,,,,,,,,,,,,,,,,,,,,,,,,,,,,,,,,,,,,,,,,,,,,,,,,,,,,,,,,,,,,,,,,,,,,,,,,,,,,,,,,,,,,,,,,,,,,,,,,,,,,,,,,,11,0,11,0,,,,,,,,,,,,,None,j,2.75040197372,,2017_Feb_01_1504,59.3584543579,spr_backupper,001,Mi10,
,In,Bei,Es,Wir,Die,Er,Die,Beträchtliche,Viele,Wir,Die,Bei,Er,Die,Wir,Jugendliche,Die,In,Die,Er,Die,Die,Wir,Ich,Nicht,Sie,Mit,Der,Sie,Die,Bei,In,Nicht,Wir,Jungtiere,Wir,Außer,Dass,In,Außer,Walter,Sie,Die,Wir,Ich,Die,Ihr,Man,Im,Die,Ich,Die,Die,Sie,In,Es,Alle,Die,100,Man,Im,Sie,Er,Fernab,Es,Sie,Danach,Es,Unter,Wir,Jetzt,Außer,Am,Die,Viele,Dort,Die,In,In,Außer,Er,Als,Es,Wir,Beträchtliche,Die,Das,Sie,Die,Bei,Die,Dort,Am,Mit,In,100,Manche,Die,,,,,,,,,,,,,,,,,,,,,,,12,0,12,0,0,0,0,0,,,,,,None,space,0.556577920914,,,,,2017_Feb_01_1504,59.3584543579,spr_backupper,001,Mi10,
,diesem,der,wurden,übergaben,Kinder,stellt,Autos,Stücke,Tonnen,mussten,Formen,unserer,wurde,Stücke,übergaben,können,Eislaufbahnen,den,Gäste,stellt,Schule,Schuhe,haben,nehme,ein,haben,dieser,Flug,verbrauchen,Autos,unserer,einer,ein,mussten,sollten,haben,dem,es,der,dem,Scheel,verbrauchen,Lösung,hatten,wurde,Gäste,Blutdruck,machte,Fernrohr,Teilnehmerinnen,nehme,Kinder,Schuhe,verlassen,der,wurden,Betten,Uhr,g,machte,Fernrohr,verlassen,wurde,des,waren,hatte,wurde,waren,keinen,konnten,ist,den,äußersten,Uhr,Tonnen,türmen,müden,meinem,den,das,hat,die,hat,hatten,Stücke,"Uhr,",Tuch,hatte,Schule,der,Uhr,türmen,äußeren,dieser,meinem,g,Kreditnehmer,Linie,,,,,,,,,,,,,,,,,,,,,,,12,0,12,0,0,1,1,1,,,,,,,space,0.652844905853,,,,,2017_Feb_01_1504,59.3584543579,spr_backupper,001,Mi10,
,Zirkus,Feier,Eimer,dem,fuhren,die,beider,saftigen,gebrauchter,uns,wurden,Ankunft,trotz,wurden,das,Kleidung,wurden,Kakao,suchen,die,verbraucht,in,jede,eine,Tropfen,die,Methode,zum,60,beider,Ankunft,Studie,Tropfen,uns,immer,jede,Essen,"regnete,",Tat,Bürgermeister,war,60,wird,in,damals,suchen,kann,mal,sahen,wussten,eine,fuhren,in,wegen,Tat,Eimer,wurden,war,braunen,mal,sahen,wegen,trotz,Rummels,nur,keine,die,nur,Umständen,dann,genau,Bürgermeister,Rand,schlug,gebrauchte,sich,Teilnehmer,Studium,Kakao,Essen,ein,Sonne,uns,in,saftiges,die,wurde,keine,verbraucht,Feier,schlug,sich,Rand,Methode,Studium,brauner,sind,101,,,,,,,,,,,,,,,,,,,,,,,12,0,12,0,0,2,2,2,,,,,,,space,0.64942908287,,,,,2017_Feb_01_1504,59.3584543579,spr_backupper,001,Mi10,
,werden,gedachte,rote,Mann,mit,Masse,beteiligter,Fleischs,Kleidung,durch,unter,stand,des,aus,Auto,bei,mit,gehören,die,Masse,260.000,Größe,Menge,große,königliches,Erlebnisse,kann,Mond,Liter,beteiligten,stand,wurde,königlichen,durch,auf,Menge,kann,hat,wissen,beschuldigten,der,Liter,mit,Dänemark,schnell,die,schon,wieder,wir,überwiegend,große,mit,Größe,des,wissen,roter,mit,aus,Zuckers,wieder,wir,dem,dem,wurde,kleinere,Lust,Leinwand,kleinere,können,mit,die,beschuldigten,der,"sporadisch,",Kleidung,Berge,wurden,las,gehören,kann,Hemd,"unterging,",die,Dänemark,Fleisch,er,dann,Lust,260.000,gedachte,"sporadisch,",Berge,der,kann,habe,Zucker,mit,hält,,,,,,,,,,,,,,,,,,,,,,,12,0,12,0,0,3,3,3,,,,,,,space,0.839961051941,,,,,2017_Feb_01_1504,59.3584543579,spr_backupper,001,Mi10,
,die,man,Farbe,das,solch,mit,Fahrer,wurden,landen,Büschel,"regelmäßigem,",ein,bekannten,"wertvollem,",dem,ausreichendem,dauerhaftem,immer,Wohnung,mit,Kilowattstunden,36,alten,Packung,Blut,bei,man,dauerte,sprudelnden,Fahrer,ein,jetzt,Bluts,Büschel,warmem,alten,ich,uns,wir,die,vierte,sprudelndes,"reichlichem,",gelegentlich,dank,Wohnung,bei,viel,den,"nicht,",Packung,solchen,36,schönen,wir,Farbe,"üblichem,","Japan,",sind,viel,den,schönen,bekannten,schon,"Delikte,",auf,aus,"Delikte,",Neuwahlen,"minimalem,",richtige,die,Stadt,obwohl,landen,schmutziger,mit,ich,immer,ich,aus,war,Stimmung,einen,wurden,"trug,",mit,auf,Kilowattstunden,man,obschon,schmutzige,Stadt,man,ich,sind,"sämtlichem,",nicht,,,,,,,,,,,,,,,,,,,,,,,12,0,12,0,0,4,4,4,,,,,,,space,0.805861949921,,,,,2017_Feb_01_1504,59.3584543579,spr_backupper,001,Mi10,
,Tiere,den,geschleudert.,Auto,unzureichenden,einem,wurden,serviert.,im,frischen,kaltem,Glas,Skandals,klassischen,Mann,monatlichem,feinem,350,des,einem,elektrischer,hätten,Krams,salzige,hat,"frischem,",eine,ungefähr,Trinkwassers.,wurden,Glas,"nachgewiesen,",hat,frisches,weichem,Kram,leider,die,um,Störenfriede,Bundespräsident.,Trinkwasser.,purem,einen,täglichem,des,minimalem,Lärm,roten,was,salziger,unzureichenden,würden,Wetters,von,geschleudert.,harten,die,auf,Lärm,roten,Wetter,Skandal,immer,deren,noch,seltenem,derer,vor,sauberen,"Zeit,",Störenfriede,liegen,sie,im,Wäsche.,zusätzlichem,mehr,350,leider,feinem,die,ziemlich,gelegentlichen,serviert.,war,"reichem,",noch,elektrische,der,sie,Wäsche.,liegen,eine,mehr,auf,künftigem,am,,,,,,,,,,,,,,,,,,,,,,,12,0,12,0,0,5,5,5,,,,,,,space,0.874418020248,,,,,2017_Feb_01_1504,59.3584543579,spr_backupper,001,Mi10,
,artgerecht,Soldaten,nan,mehr,Helmen,Esslöffel,verschrottet.,nan,Müll.,Grases,Abduschen,köstlicher,wiedergewählt.,Schmuck,mehr,Taschengeld,Kunsteis,ml,Herrn,Esslöffel,Energie.,seiner,aus,Wurst,den,kaltem,große,drei,nan,verschrottet.,köstlichen,dass,den,Gras,Untergrund,aus,nichts,Stimmung,die,jeden.,nan,nan,Alkohol,Besucher.,grünen,Herrn,täglichen,um,Planeten,Tupperware,Wurst,Helmen,seiner,die,den,nan,Schaumstoff,er,jeden,um,Planet,die,wiedergewählt.,ruhig,sie,eine,dichten,sie,Dezember,Kraftstoff,um,jeden.,die,defekt,Müll.,nan,schwarzem,als,ml,nichts,dichten,Flut,"vermiest,",Besucher.,nan,aus,goldenen,eine,Energie.,Soldaten,defekt,nan,die,große,als,jeden,Einkommen,Hauptbahnhof.,,,,,,,,,,,,,,,,,,,,,,,12,0,12,0,0,6,6,6,,,,,,,space,0.922957181931,,,,,2017_Feb_01_1504,59.3584543579,spr_backupper,001,Mi10,
,,,,,,,,,,,,,,,,,,,,,,,,,,,,,,,,,,,,,,,,,,,,,,,,,,,,,,,,,,,,,,,,,,,,,,,,,,,,,,,,,,,,,,,,,,,,,,,,,,,,,,,,,,,,,,,,,,,,,,,,,12,0,12,0,,,,,,,,,,,,,None,j,2.02665615082,,2017_Feb_01_1504,59.3584543579,spr_backupper,001,Mi10,
,In,Bei,Es,Wir,Die,Er,Die,Beträchtliche,Viele,Wir,Die,Bei,Er,Die,Wir,Jugendliche,Die,In,Die,Er,Die,Die,Wir,Ich,Nicht,Sie,Mit,Der,Sie,Die,Bei,In,Nicht,Wir,Jungtiere,Wir,Außer,Dass,In,Außer,Walter,Sie,Die,Wir,Ich,Die,Ihr,Man,Im,Die,Ich,Die,Die,Sie,In,Es,Alle,Die,100,Man,Im,Sie,Er,Fernab,Es,Sie,Danach,Es,Unter,Wir,Jetzt,Außer,Am,Die,Viele,Dort,Die,In,In,Außer,Er,Als,Es,Wir,Beträchtliche,Die,Das,Sie,Die,Bei,Die,Dort,Am,Mit,In,100,Manche,Die,,,,,,,,,,,,,,,,,,,,,,,13,0,13,0,0,0,0,0,,,,,,None,space,0.686007976532,,,,,2017_Feb_01_1504,59.3584543579,spr_backupper,001,Mi10,
,diesem,der,wurden,übergaben,Kinder,stellt,Autos,Stücke,Tonnen,mussten,Formen,unserer,wurde,Stücke,übergaben,können,Eislaufbahnen,den,Gäste,stellt,Schule,Schuhe,haben,nehme,ein,haben,dieser,Flug,verbrauchen,Autos,unserer,einer,ein,mussten,sollten,haben,dem,es,der,dem,Scheel,verbrauchen,Lösung,hatten,wurde,Gäste,Blutdruck,machte,Fernrohr,Teilnehmerinnen,nehme,Kinder,Schuhe,verlassen,der,wurden,Betten,Uhr,g,machte,Fernrohr,verlassen,wurde,des,waren,hatte,wurde,waren,keinen,konnten,ist,den,äußersten,Uhr,Tonnen,türmen,müden,meinem,den,das,hat,die,hat,hatten,Stücke,"Uhr,",Tuch,hatte,Schule,der,Uhr,türmen,äußeren,dieser,meinem,g,Kreditnehmer,Linie,,,,,,,,,,,,,,,,,,,,,,,13,0,13,0,0,1,1,1,,,,,,,space,0.654272794724,,,,,2017_Feb_01_1504,59.3584543579,spr_backupper,001,Mi10,
,Zirkus,Feier,Eimer,dem,fuhren,die,beider,saftigen,gebrauchter,uns,wurden,Ankunft,trotz,wurden,das,Kleidung,wurden,Kakao,suchen,die,verbraucht,in,jede,eine,Tropfen,die,Methode,zum,60,beider,Ankunft,Studie,Tropfen,uns,immer,jede,Essen,"regnete,",Tat,Bürgermeister,war,60,wird,in,damals,suchen,kann,mal,sahen,wussten,eine,fuhren,in,wegen,Tat,Eimer,wurden,war,braunen,mal,sahen,wegen,trotz,Rummels,nur,keine,die,nur,Umständen,dann,genau,Bürgermeister,Rand,schlug,gebrauchte,sich,Teilnehmer,Studium,Kakao,Essen,ein,Sonne,uns,in,saftiges,die,wurde,keine,verbraucht,Feier,schlug,sich,Rand,Methode,Studium,brauner,sind,101,,,,,,,,,,,,,,,,,,,,,,,13,0,13,0,0,2,2,2,,,,,,,space,0.621642827988,,,,,2017_Feb_01_1504,59.3584543579,spr_backupper,001,Mi10,
,werden,gedachte,rote,Mann,mit,Masse,beteiligter,Fleischs,Kleidung,durch,unter,stand,des,aus,Auto,bei,mit,gehören,die,Masse,260.000,Größe,Menge,große,königliches,Erlebnisse,kann,Mond,Liter,beteiligten,stand,wurde,königlichen,durch,auf,Menge,kann,hat,wissen,beschuldigten,der,Liter,mit,Dänemark,schnell,die,schon,wieder,wir,überwiegend,große,mit,Größe,des,wissen,roter,mit,aus,Zuckers,wieder,wir,dem,dem,wurde,kleinere,Lust,Leinwand,kleinere,können,mit,die,beschuldigten,der,"sporadisch,",Kleidung,Berge,wurden,las,gehören,kann,Hemd,"unterging,",die,Dänemark,Fleisch,er,dann,Lust,260.000,gedachte,"sporadisch,",Berge,der,kann,habe,Zucker,mit,hält,,,,,,,,,,,,,,,,,,,,,,,13,0,13,0,0,3,3,3,,,,,,,space,0.838762998581,,,,,2017_Feb_01_1504,59.3584543579,spr_backupper,001,Mi10,
,die,man,Farbe,das,solch,mit,Fahrer,wurden,landen,Büschel,"regelmäßigem,",ein,bekannten,"wertvollem,",dem,ausreichendem,dauerhaftem,immer,Wohnung,mit,Kilowattstunden,36,alten,Packung,Blut,bei,man,dauerte,sprudelnden,Fahrer,ein,jetzt,Bluts,Büschel,warmem,alten,ich,uns,wir,die,vierte,sprudelndes,"reichlichem,",gelegentlich,dank,Wohnung,bei,viel,den,"nicht,",Packung,solchen,36,schönen,wir,Farbe,"üblichem,","Japan,",sind,viel,den,schönen,bekannten,schon,"Delikte,",auf,aus,"Delikte,",Neuwahlen,"minimalem,",richtige,die,Stadt,obwohl,landen,schmutziger,mit,ich,immer,ich,aus,war,Stimmung,einen,wurden,"trug,",mit,auf,Kilowattstunden,man,obschon,schmutzige,Stadt,man,ich,sind,"sämtlichem,",nicht,,,,,,,,,,,,,,,,,,,,,,,13,0,13,0,0,4,4,4,,,,,,,space,0.822798013687,,,,,2017_Feb_01_1504,59.3584543579,spr_backupper,001,Mi10,
,Tiere,den,geschleudert.,Auto,unzureichenden,einem,wurden,serviert.,im,frischen,kaltem,Glas,Skandals,klassischen,Mann,monatlichem,feinem,350,des,einem,elektrischer,hätten,Krams,salzige,hat,"frischem,",eine,ungefähr,Trinkwassers.,wurden,Glas,"nachgewiesen,",hat,frisches,weichem,Kram,leider,die,um,Störenfriede,Bundespräsident.,Trinkwasser.,purem,einen,täglichem,des,minimalem,Lärm,roten,was,salziger,unzureichenden,würden,Wetters,von,geschleudert.,harten,die,auf,Lärm,roten,Wetter,Skandal,immer,deren,noch,seltenem,derer,vor,sauberen,"Zeit,",Störenfriede,liegen,sie,im,Wäsche.,zusätzlichem,mehr,350,leider,feinem,die,ziemlich,gelegentlichen,serviert.,war,"reichem,",noch,elektrische,der,sie,Wäsche.,liegen,eine,mehr,auf,künftigem,am,,,,,,,,,,,,,,,,,,,,,,,13,0,13,0,0,5,5,5,,,,,,,space,0.680884122849,,,,,2017_Feb_01_1504,59.3584543579,spr_backupper,001,Mi10,
,,,,,,,,,,,,,,,,,,,,,,,,,,,,,,,,,,,,,,,,,,,,,,,,,,,,,,,,,,,,,,,,,,,,,,,,,,,,,,,,,,,,,,,,,,,,,,,,,,,,,,,,,,,,,,,,,,,,,,,,,13,0,13,0,,,,,,,,,,,,,None,n,3.62147903442,,2017_Feb_01_1504,59.3584543579,spr_backupper,001,Mi10,
,In,Bei,Es,Wir,Die,Er,Die,Beträchtliche,Viele,Wir,Die,Bei,Er,Die,Wir,Jugendliche,Die,In,Die,Er,Die,Die,Wir,Ich,Nicht,Sie,Mit,Der,Sie,Die,Bei,In,Nicht,Wir,Jungtiere,Wir,Außer,Dass,In,Außer,Walter,Sie,Die,Wir,Ich,Die,Ihr,Man,Im,Die,Ich,Die,Die,Sie,In,Es,Alle,Die,100,Man,Im,Sie,Er,Fernab,Es,Sie,Danach,Es,Unter,Wir,Jetzt,Außer,Am,Die,Viele,Dort,Die,In,In,Außer,Er,Als,Es,Wir,Beträchtliche,Die,Das,Sie,Die,Bei,Die,Dort,Am,Mit,In,100,Manche,Die,,,,,,,,,,,,,,,,,,,,,,,14,0,14,0,0,0,0,0,,,,,,None,space,0.730530023575,,,,,2017_Feb_01_1504,59.3584543579,spr_backupper,001,Mi10,
