text,sent48,sent9,sent8,sent15,sent3,sent2,sent1,sent14,sent7,sent6,sent5,sent4,sent57,sent56,sent55,sent54,sent53,sent52,sent51,sent50,sent13,sent12,sent11,sent10,sent17,sent16,sent59,sent58,sent93,sent92,sent91,sent90,sent97,sent96,sent95,sent94,sent98,sent22,sent23,sent20,sent21,sent26,sent27,sent24,sent25,sent28,sent29,sent68,sent69,sent66,sent67,sent64,sent65,sent62,sent63,sent60,sent61,sent31,sent30,sent33,sent32,sent35,sent34,sent37,sent36,sent39,sent38,sent79,sent78,sent75,sent74,sent77,sent76,sent71,sent70,sent73,sent72,sent19,sent49,sent18,sent44,sent45,sent84,sent85,sent86,sent87,sent80,sent81,sent82,sent83,sent40,sent41,sent42,sent43,sent88,sent89,sent46,sent47,intros.thisRepN,intros.thisTrialN,intros.thisN,intros.thisIndex,trials.thisRepN,trials.thisTrialN,trials.thisN,trials.thisIndex,testWords.thisRepN,testWords.thisTrialN,testWords.thisN,testWords.thisIndex,test1,test3,test2,test5,test4,test7,test6,test9,test8,test10,realTrials.thisRepN,realTrials.thisTrialN,realTrials.thisN,realTrials.thisIndex,words.thisRepN,words.thisTrialN,words.thisN,words.thisIndex,key_resp_3.keys,key_resp_3.rt,key_resp_8.keys,key_resp_10.keys,key_resp_10.rt,key_resp_6.keys,wordRead.keys,wordRead.rt,key_resp_5.keys,questAnswer.keys,questAnswer.rt,date,frameRate,expName,session,participant,
"Vielen Dank, dass Sie an diesem Experiment teilnehmen. Vor dem eigentlichen Experiment sehen Sie nun zuerst eine kurze Erläuterung, und Sie absolvieren ein kurze Übungsphase.

Das Experiment dauert insgesamt nicht mehr als 45 Minuten.",,,,,,,,,,,,,,,,,,,,,,,,,,,,,,,,,,,,,,,,,,,,,,,,,,,,,,,,,,,,,,,,,,,,,,,,,,,,,,,,,,,,,,,,,,,,,,,,,,,0,0,0,0,,,,,,,,,,,,,,,,,,,,,,,,,,,,,,,,,,,,,,2017_Jan_25_1106,59.6573294684,spr_backupper,001,Mi11,
"In diesem Experiment lesen Sie deutsche Sätze, indem Sie sich von Wort zu Wort mit der Leertaste durch den Satz klicken.",,,,,,,,,,,,,,,,,,,,,,,,,,,,,,,,,,,,,,,,,,,,,,,,,,,,,,,,,,,,,,,,,,,,,,,,,,,,,,,,,,,,,,,,,,,,,,,,,,,0,1,1,1,,,,,,,,,,,,,,,,,,,,,,,,,,,,,,,,,,,,,,2017_Jan_25_1106,59.6573294684,spr_backupper,001,Mi11,
"Sie sehen dabei immer nur das aktuelle Wort. Die Lesegeschwindigkeit bestimmen Sie vollständig selber. Vor jedem Satz sehen Sie in der Bildschirmmitte für zwei Sekunden ein + an der Stelle, an der dann die Wörter erscheinen.",,,,,,,,,,,,,,,,,,,,,,,,,,,,,,,,,,,,,,,,,,,,,,,,,,,,,,,,,,,,,,,,,,,,,,,,,,,,,,,,,,,,,,,,,,,,,,,,,,,0,2,2,2,,,,,,,,,,,,,,,,,,,,,,,,,,,,,,,,,,,,,,2017_Jan_25_1106,59.6573294684,spr_backupper,001,Mi11,
"Nach jedem Satz wird Ihnen eine Ja/Nein-Verständnisfrage zum zuvor gelesenen Satz gestellt, die Sie mit der J-Taste für "Ja" und der N-Taste für "Nein" beantworten. Antworten Sie möglichst spontan und ohne lange Nachzudenken.",,,,,,,,,,,,,,,,,,,,,,,,,,,,,,,,,,,,,,,,,,,,,,,,,,,,,,,,,,,,,,,,,,,,,,,,,,,,,,,,,,,,,,,,,,,,,,,,,,,0,3,3,3,,,,,,,,,,,,,,,,,,,,,,,,,,,,,,,,,,,,,,2017_Jan_25_1106,59.6573294684,spr_backupper,001,Mi11,
"Unterbrechen Sie das Experiment bitte auf keinen Fall, stellen Sie den ExperimentatorInnen nach dem Experimentbeginn keine Fragen, und lassen Sie sich nicht durch Umgebungsgeräusche ablenken.",,,,,,,,,,,,,,,,,,,,,,,,,,,,,,,,,,,,,,,,,,,,,,,,,,,,,,,,,,,,,,,,,,,,,,,,,,,,,,,,,,,,,,,,,,,,,,,,,,,0,4,4,4,,,,,,,,,,,,,,,,,,,,,,,,,,,,,,,,,,,,,,2017_Jan_25_1106,59.6573294684,spr_backupper,001,Mi11,
"Im nächsten Schritt beantworten Sie bitte eine Frage zu Ihren Deutschkenntnissen. Danach beginnt eine Übungseinheit, mit der Sie sich an die Art der Durchführung dieses Experiments gewöhnen können.",,,,,,,,,,,,,,,,,,,,,,,,,,,,,,,,,,,,,,,,,,,,,,,,,,,,,,,,,,,,,,,,,,,,,,,,,,,,,,,,,,,,,,,,,,,,,,,,,,,0,5,5,5,,,,,,,,,,,,,,,,,,,,,,,,,,,,,,,,,,,,,,2017_Jan_25_1106,59.6573294684,spr_backupper,001,Mi11,
,,,,,,,,,,,,,,,,,,,,,,,,,,,,,,,,,,,,,,,,,,,,,,,,,,,,,,,,,,,,,,,,,,,,,,,,,,,,,,,,,,,,,,,,,,,,,,,,,,,,,,,,,,,,,,,,,,,,,,,,,,,,,,,,,n,14.4225111008,,,,,,,,,,2017_Jan_25_1106,59.6573294684,spr_backupper,001,Mi11,
,,,,,,,,,,,,,,,,,,,,,,,,,,,,,,,,,,,,,,,,,,,,,,,,,,,,,,,,,,,,,,,,,,,,,,,,,,,,,,,,,,,,,,,,,,,,,,,,,,,,,,,0,0,0,0,,,,,,,,,,,,,,,,,,,,,,,,,None,,,,,,,,,2017_Jan_25_1106,59.6573294684,spr_backupper,001,Mi11,
,,,,,,,,,,,,,,,,,,,,,,,,,,,,,,,,,,,,,,,,,,,,,,,,,,,,,,,,,,,,,,,,,,,,,,,,,,,,,,,,,,,,,,,,,,,,,,,,,,,,,,,1,0,1,0,,,,,,,,,,,,,,,,,,,,,,,,,None,,,,,,,,,2017_Jan_25_1106,59.6573294684,spr_backupper,001,Mi11,
,,,,,,,,,,,,,,,,,,,,,,,,,,,,,,,,,,,,,,,,,,,,,,,,,,,,,,,,,,,,,,,,,,,,,,,,,,,,,,,,,,,,,,,,,,,,,,,,,,,,,,,2,0,2,0,,,,,,,,,,,,,,,,,,,,,,,,,None,,,,,,,,,2017_Jan_25_1106,59.6573294684,spr_backupper,001,Mi11,
,,,,,,,,,,,,,,,,,,,,,,,,,,,,,,,,,,,,,,,,,,,,,,,,,,,,,,,,,,,,,,,,,,,,,,,,,,,,,,,,,,,,,,,,,,,,,,,,,,,,,,,3,0,3,0,,,,,,,,,,,,,,,,,,,,,,,,,None,,,,,,,,,2017_Jan_25_1106,59.6573294684,spr_backupper,001,Mi11,
,,,,,,,,,,,,,,,,,,,,,,,,,,,,,,,,,,,,,,,,,,,,,,,,,,,,,,,,,,,,,,,,,,,,,,,,,,,,,,,,,,,,,,,,,,,,,,,,,,,,,,,4,0,4,0,,,,,,,,,,,,,,,,,,,,,,,,,None,,,,,,,,,2017_Jan_25_1106,59.6573294684,spr_backupper,001,Mi11,
,,,,,,,,,,,,,,,,,,,,,,,,,,,,,,,,,,,,,,,,,,,,,,,,,,,,,,,,,,,,,,,,,,,,,,,,,,,,,,,,,,,,,,,,,,,,,,,,,,,,,,,5,0,5,0,,,,,,,,,,,,,,,,,,,,,,,,,None,,,,,,,,,2017_Jan_25_1106,59.6573294684,spr_backupper,001,Mi11,
,,,,,,,,,,,,,,,,,,,,,,,,,,,,,,,,,,,,,,,,,,,,,,,,,,,,,,,,,,,,,,,,,,,,,,,,,,,,,,,,,,,,,,,,,,,,,,,,,,,,,,,6,0,6,0,,,,,,,,,,,,,,,,,,,,,,,,,None,,,,,,,,,2017_Jan_25_1106,59.6573294684,spr_backupper,001,Mi11,
,,,,,,,,,,,,,,,,,,,,,,,,,,,,,,,,,,,,,,,,,,,,,,,,,,,,,,,,,,,,,,,,,,,,,,,,,,,,,,,,,,,,,,,,,,,,,,,,,,,,,,,7,0,7,0,,,,,,,,,,,,,,,,,,,,,,,,,None,,,,,,,,,2017_Jan_25_1106,59.6573294684,spr_backupper,001,Mi11,
,,,,,,,,,,,,,,,,,,,,,,,,,,,,,,,,,,,,,,,,,,,,,,,,,,,,,,,,,,,,,,,,,,,,,,,,,,,,,,,,,,,,,,,,,,,,,,,,,,,,,,,8,0,8,0,,,,,,,,,,,,,,,,,,,,,,,,,None,,,,,,,,,2017_Jan_25_1106,59.6573294684,spr_backupper,001,Mi11,
,,,,,,,,,,,,,,,,,,,,,,,,,,,,,,,,,,,,,,,,,,,,,,,,,,,,,,,,,,,,,,,,,,,,,,,,,,,,,,,,,,,,,,,,,,,,,,,,,,,,,,,9,0,9,0,,,,,,,,,,,,,,,,,,,,,,,,,None,,,,,,,,,2017_Jan_25_1106,59.6573294684,spr_backupper,001,Mi11,
,,,,,,,,,,,,,,,,,,,,,,,,,,,,,,,,,,,,,,,,,,,,,,,,,,,,,,,,,,,,,,,,,,,,,,,,,,,,,,,,,,,,,,,,,,,,,,,,,,,,,,,,,,,,,,,,,,,,,,,,,,,,,,,,,,,,space,3.63933086395,,,,,,,2017_Jan_25_1106,59.6573294684,spr_backupper,001,Mi11,
,Die,Beträchtliche,Die,Bei,Das,Die,In,Die,Die,Die,Unter,Sie,Ihr,Er,Sie,Er,Dort,Mit,Wir,Ich,In,Bei,Am,In,Es,Die,Die,Die,Am,Fernab,Sie,Dass,Die,Manche,Bei,Man,Als,Jugendliche,Jungtiere,Außer,Die,Sie,Alle,Wir,Die,Der,Im,Es,In,Viele,Im,Die,Die,Wir,Es,In,Ich,Die,Jetzt,Wir,Man,Er,Er,In,Nicht,Mit,Wir,Bei,100,Außer,Die,Sie,Außer,Er,In,Wir,Nicht,Es,Außer,Es,100,Sie,Wir,Sie,Danach,Die,Die,Beträchtliche,Die,Die,Ich,Dort,Viele,Wir,In,Walter,Die,Wir,,,,,,,,,,,,,,,,,,,,,,,0,0,0,0,0,0,0,0,,,,,,None,space,0.835945129395,,,,2017_Jan_25_1106,59.6573294684,spr_backupper,001,Mi11,
,Stücke,Stücke,Autos,der,Tuch,Schuhe,der,Schule,Eislaufbahnen,"Uhr,",keinen,hatte,Blutdruck,hat,haben,wurde,türmen,dieser,hatten,nehme,meinem,unserer,äußersten,den,wurden,Kinder,Formen,Schuhe,äußeren,des,hatte,es,Lösung,Kreditnehmer,der,machte,die,können,sollten,den,Gäste,verbrauchen,Betten,hatten,Uhr,Flug,Fernrohr,wurden,der,Tonnen,Fernrohr,Autos,Schule,haben,waren,den,wurde,Teilnehmerinnen,ist,haben,machte,stellt,wurde,einer,ein,dieser,konnten,unserer,g,das,Kinder,verbrauchen,dem,stellt,diesem,übergaben,ein,hat,dem,waren,g,verlassen,mussten,verlassen,wurde,Uhr,Gäste,Stücke,Linie,Uhr,nehme,türmen,Tonnen,übergaben,meinem,Scheel,müden,mussten,,,,,,,,,,,,,,,,,,,,,,,0,0,0,0,0,1,1,1,,,,,,,space,0.57598400116,,,,2017_Jan_25_1106,59.6573294684,spr_backupper,001,Mi11,
,wurden,saftiges,beider,Feier,wurde,in,Tat,verbraucht,wurden,die,Umständen,keine,kann,ein,die,trotz,sich,Methode,in,eine,Studium,Ankunft,Rand,Kakao,Eimer,fuhren,wurden,in,Rand,Rummels,keine,"regnete,",wird,sind,Feier,mal,Sonne,Kleidung,immer,Bürgermeister,suchen,60,wurden,in,schlug,zum,sahen,Eimer,Tat,gebrauchter,sahen,beider,verbraucht,jede,nur,Kakao,damals,wussten,genau,jede,mal,die,trotz,Studie,Tropfen,Methode,dann,Ankunft,braunen,Essen,fuhren,60,Bürgermeister,die,Zirkus,dem,Tropfen,uns,Essen,nur,brauner,wegen,uns,wegen,die,schlug,suchen,saftigen,101,war,eine,sich,gebrauchte,das,Studium,war,Teilnehmer,uns,,,,,,,,,,,,,,,,,,,,,,,0,0,0,0,0,2,2,2,,,,,,,space,0.581383943558,,,,2017_Jan_25_1106,59.6573294684,spr_backupper,001,Mi11,
,aus,Fleisch,beteiligten,gedachte,dann,Größe,wissen,260.000,mit,er,können,Lust,schon,Hemd,Erlebnisse,dem,Berge,kann,Dänemark,große,habe,stand,der,gehören,roter,mit,unter,Größe,der,wurde,Lust,hat,mit,mit,gedachte,wieder,"unterging,",bei,auf,beschuldigten,die,Liter,mit,Dänemark,"sporadisch,",Mond,wir,rote,wissen,Kleidung,wir,beteiligter,260.000,Menge,kleinere,gehören,schnell,überwiegend,die,Menge,wieder,Masse,des,wurde,königlichen,kann,mit,stand,Zuckers,kann,mit,Liter,beschuldigten,Masse,werden,Mann,königliches,die,kann,kleinere,Zucker,des,durch,dem,Leinwand,"sporadisch,",die,Fleischs,hält,aus,große,Berge,Kleidung,Auto,las,der,wurden,durch,,,,,,,,,,,,,,,,,,,,,,,0,0,0,0,0,3,3,3,,,,,,,space,0.542557001114,,,,2017_Jan_25_1106,59.6573294684,spr_backupper,001,Mi11,
,"wertvollem,",wurden,Fahrer,man,mit,36,wir,Kilowattstunden,dauerhaftem,"trug,",Neuwahlen,auf,bei,aus,bei,bekannten,schmutzige,man,gelegentlich,Packung,ich,ein,Stadt,immer,Farbe,solchen,"regelmäßigem,",36,Stadt,schon,auf,uns,"reichlichem,","sämtlichem,",man,viel,war,ausreichendem,warmem,die,Wohnung,sprudelnden,"üblichem,",einen,obwohl,dauerte,den,Farbe,wir,landen,den,Fahrer,Kilowattstunden,alten,"Delikte,",immer,dank,"nicht,",richtige,alten,viel,mit,bekannten,jetzt,Bluts,man,"minimalem,",ein,sind,ich,solch,sprudelndes,die,mit,die,das,Blut,Stimmung,ich,"Delikte,",sind,schönen,Büschel,schönen,aus,obschon,Wohnung,wurden,nicht,"Japan,",Packung,schmutziger,landen,dem,ich,vierte,mit,Büschel,,,,,,,,,,,,,,,,,,,,,,,0,0,0,0,0,4,4,4,,,,,,,space,0.66269493103,,,,2017_Jan_25_1106,59.6573294684,spr_backupper,001,Mi11,
,klassischen,serviert.,wurden,der,"reichem,",würden,von,elektrische,feinem,war,vor,noch,minimalem,feinem,"frischem,",Skandal,Wäsche.,eine,einen,salzige,mehr,Glas,liegen,350,geschleudert.,unzureichenden,kaltem,hätten,liegen,immer,noch,die,purem,künftigem,den,Lärm,die,monatlichem,weichem,Störenfriede,des,Trinkwassers.,harten,gelegentlichen,sie,ungefähr,roten,geschleudert.,um,im,roten,wurden,elektrischer,Krams,deren,350,täglichem,was,"Zeit,",Kram,Lärm,einem,Skandals,"nachgewiesen,",hat,eine,sauberen,Glas,auf,leider,unzureichenden,Trinkwasser.,Störenfriede,einem,Tiere,Auto,hat,ziemlich,leider,derer,auf,Wetters,frischen,Wetter,seltenem,sie,des,serviert.,am,die,salziger,Wäsche.,im,Mann,mehr,Bundespräsident.,zusätzlichem,frisches,,,,,,,,,,,,,,,,,,,,,,,0,0,0,0,0,5,5,5,,,,,,,space,0.561204195023,,,,2017_Jan_25_1106,59.6573294684,spr_backupper,001,Mi11,
,Schmuck,nan,verschrottet.,Soldaten,goldenen,seiner,den,Energie.,Kunsteis,aus,Dezember,eine,täglichen,dichten,kaltem,wiedergewählt.,nan,große,Besucher.,Wurst,als,köstlichen,die,ml,nan,Helmen,Abduschen,seiner,die,ruhig,eine,Stimmung,Alkohol,Einkommen,Soldaten,um,Flut,Taschengeld,Untergrund,jeden.,Herrn,nan,Schaumstoff,Besucher.,defekt,drei,Planeten,nan,die,Müll.,Planet,verschrottet.,Energie.,aus,sie,ml,grünen,Tupperware,um,aus,um,Esslöffel,wiedergewählt.,dass,den,große,Kraftstoff,köstlicher,jeden,nichts,Helmen,nan,jeden.,Esslöffel,artgerecht,mehr,den,"vermiest,",nichts,sie,jeden,die,Grases,die,dichten,defekt,Herrn,nan,Hauptbahnhof.,er,Wurst,nan,Müll.,mehr,als,nan,schwarzem,Gras,,,,,,,,,,,,,,,,,,,,,,,0,0,0,0,0,6,6,6,,,,,,,space,0.571113109589,,,,2017_Jan_25_1106,59.6573294684,spr_backupper,001,Mi11,
,umgearbeitet.,nan,nan,des,Besatz,Frau,Problemen,nan,eingesprüht.,Japan.,stattfinden.,Sammlung,Einsatz,Stoff,Saft,nan,nan,Menge,nan,mit,einmal,Weins,Slums.,warme,nan,zur,gehärtet.,Frau,Slums.,diskutiert.,Sammlung,ziemlich,verdünnt.,haftbar.,des,jede,zurückgekehrt.,selber,liegen.,nan,Gantenbeins.,nan,gefertigt.,nan,war.,Tage.,ganz,nan,Probleme,nan,ganz,nan,nan,dem,überführt,warmer,Tee,ist.,Nadelhölzer,dem,jede,warmen,nan,das,Boden,Menge,fahren.,Wein,Fall,mitbringen.,zur,nan,nan,warmem,gehalten.,als,Boden,dass,mitbringen.,überführt,Fall,Wohnung.,zwängen.,Wohnung.,Gewebe,war.,Gantenbein.,nan,nan,trug.,mit,nan,nan,als,einmal,nan,Kaffee,zwängen.,,,,,,,,,,,,,,,,,,,,,,,0,0,0,0,0,7,7,7,,,,,,,space,0.611487865448,,,,2017_Jan_25_1106,59.6573294684,spr_backupper,001,Mi11,
,nan,nan,nan,zweiten,rekonstruiert.,gepasst,im,nan,nan,nan,nan,dumme,sinken.,gefertigt.,besprochen.,nan,nan,dunkler,nan,an,Rilke,schon,nan,Milch.,nan,Schule.,nan,gepasst.,nan,nan,dummer,vermiest.,nan,nan,zweiten,Menge,nan,kaufen.,nan,nan,nan,nan,nan,nan,nan,nan,deutlich.,nan,im,nan,deutlich.,nan,nan,Haus,wurden.,Milch.,wieder,nan,umzusetzen.,Haus,Menge,Honigs,nan,Medikament,berührt.,dunkle,nan,schon,genug.,nan,Schule.,nan,nan,Honig,nan,gerne.,berührt.,es,nan,wurden.,genug.,nan,nan,nan,wiederhergestellt.,nan,nan,nan,nan,nan,an,nan,nan,gerne.,Rilke.,nan,wiederbelebt.,nan,,,,,,,,,,,,,,,,,,,,,,,0,0,0,0,0,8,8,8,,,,,,,space,0.571136951447,,,,2017_Jan_25_1106,59.6573294684,spr_backupper,001,Mi11,
,nan,nan,nan,Weltkriegs.,nan,haben.,Landkreis.,nan,nan,nan,nan,Sprüche.,nan,nan,nan,nan,nan,Materie,nan,den,gelesen.,auf,nan,nan,nan,nan,nan,nan,nan,nan,Sprüche.,nan,nan,nan,Weltkriegs.,heiße,nan,nan,nan,nan,nan,nan,nan,nan,nan,nan,nan,nan,Landkreis.,nan,nan,nan,nan,geschafft.,nan,nan,fit.,nan,nan,geschafft.,heißer,her.,nan,nicht,nan,Materie,nan,auf,nan,nan,nan,nan,nan,her.,nan,nan,nan,regnete.,nan,nan,nan,nan,nan,nan,nan,nan,nan,nan,nan,nan,den,nan,nan,nan,nan,nan,nan,nan,,,,,,,,,,,,,,,,,,,,,,,0,0,0,0,0,9,9,9,,,,,,,space,0.775928020477,,,,2017_Jan_25_1106,59.6573294684,spr_backupper,001,Mi11,
,,,,,,,,,,,,,,,,,,,,,,,,,,,,,,,,,,,,,,,,,,,,,,,,,,,,,,,,,,,,,,,,,,,,,,,,,,,,,,,,,,,,,,,,,,,,,,,,,,,,,,,,,,,,,,,,,,,,,,,,,0,0,0,0,,,,,,,,,,,,,None,j,4.89760017395,2017_Jan_25_1106,59.6573294684,spr_backupper,001,Mi11,
,Die,Beträchtliche,Die,Bei,Das,Die,In,Die,Die,Die,Unter,Sie,Ihr,Er,Sie,Er,Dort,Mit,Wir,Ich,In,Bei,Am,In,Es,Die,Die,Die,Am,Fernab,Sie,Dass,Die,Manche,Bei,Man,Als,Jugendliche,Jungtiere,Außer,Die,Sie,Alle,Wir,Die,Der,Im,Es,In,Viele,Im,Die,Die,Wir,Es,In,Ich,Die,Jetzt,Wir,Man,Er,Er,In,Nicht,Mit,Wir,Bei,100,Außer,Die,Sie,Außer,Er,In,Wir,Nicht,Es,Außer,Es,100,Sie,Wir,Sie,Danach,Die,Die,Beträchtliche,Die,Die,Ich,Dort,Viele,Wir,In,Walter,Die,Wir,,,,,,,,,,,,,,,,,,,,,,,1,0,1,0,0,0,0,0,,,,,,None,space,0.737879037857,,,,2017_Jan_25_1106,59.6573294684,spr_backupper,001,Mi11,
,Stücke,Stücke,Autos,der,Tuch,Schuhe,der,Schule,Eislaufbahnen,"Uhr,",keinen,hatte,Blutdruck,hat,haben,wurde,türmen,dieser,hatten,nehme,meinem,unserer,äußersten,den,wurden,Kinder,Formen,Schuhe,äußeren,des,hatte,es,Lösung,Kreditnehmer,der,machte,die,können,sollten,den,Gäste,verbrauchen,Betten,hatten,Uhr,Flug,Fernrohr,wurden,der,Tonnen,Fernrohr,Autos,Schule,haben,waren,den,wurde,Teilnehmerinnen,ist,haben,machte,stellt,wurde,einer,ein,dieser,konnten,unserer,g,das,Kinder,verbrauchen,dem,stellt,diesem,übergaben,ein,hat,dem,waren,g,verlassen,mussten,verlassen,wurde,Uhr,Gäste,Stücke,Linie,Uhr,nehme,türmen,Tonnen,übergaben,meinem,Scheel,müden,mussten,,,,,,,,,,,,,,,,,,,,,,,1,0,1,0,0,1,1,1,,,,,,,space,0.922857999802,,,,2017_Jan_25_1106,59.6573294684,spr_backupper,001,Mi11,
,wurden,saftiges,beider,Feier,wurde,in,Tat,verbraucht,wurden,die,Umständen,keine,kann,ein,die,trotz,sich,Methode,in,eine,Studium,Ankunft,Rand,Kakao,Eimer,fuhren,wurden,in,Rand,Rummels,keine,"regnete,",wird,sind,Feier,mal,Sonne,Kleidung,immer,Bürgermeister,suchen,60,wurden,in,schlug,zum,sahen,Eimer,Tat,gebrauchter,sahen,beider,verbraucht,jede,nur,Kakao,damals,wussten,genau,jede,mal,die,trotz,Studie,Tropfen,Methode,dann,Ankunft,braunen,Essen,fuhren,60,Bürgermeister,die,Zirkus,dem,Tropfen,uns,Essen,nur,brauner,wegen,uns,wegen,die,schlug,suchen,saftigen,101,war,eine,sich,gebrauchte,das,Studium,war,Teilnehmer,uns,,,,,,,,,,,,,,,,,,,,,,,1,0,1,0,0,2,2,2,,,,,,,space,0.543853998184,,,,2017_Jan_25_1106,59.6573294684,spr_backupper,001,Mi11,
,aus,Fleisch,beteiligten,gedachte,dann,Größe,wissen,260.000,mit,er,können,Lust,schon,Hemd,Erlebnisse,dem,Berge,kann,Dänemark,große,habe,stand,der,gehören,roter,mit,unter,Größe,der,wurde,Lust,hat,mit,mit,gedachte,wieder,"unterging,",bei,auf,beschuldigten,die,Liter,mit,Dänemark,"sporadisch,",Mond,wir,rote,wissen,Kleidung,wir,beteiligter,260.000,Menge,kleinere,gehören,schnell,überwiegend,die,Menge,wieder,Masse,des,wurde,königlichen,kann,mit,stand,Zuckers,kann,mit,Liter,beschuldigten,Masse,werden,Mann,königliches,die,kann,kleinere,Zucker,des,durch,dem,Leinwand,"sporadisch,",die,Fleischs,hält,aus,große,Berge,Kleidung,Auto,las,der,wurden,durch,,,,,,,,,,,,,,,,,,,,,,,1,0,1,0,0,3,3,3,,,,,,,space,0.672178030014,,,,2017_Jan_25_1106,59.6573294684,spr_backupper,001,Mi11,
,"wertvollem,",wurden,Fahrer,man,mit,36,wir,Kilowattstunden,dauerhaftem,"trug,",Neuwahlen,auf,bei,aus,bei,bekannten,schmutzige,man,gelegentlich,Packung,ich,ein,Stadt,immer,Farbe,solchen,"regelmäßigem,",36,Stadt,schon,auf,uns,"reichlichem,","sämtlichem,",man,viel,war,ausreichendem,warmem,die,Wohnung,sprudelnden,"üblichem,",einen,obwohl,dauerte,den,Farbe,wir,landen,den,Fahrer,Kilowattstunden,alten,"Delikte,",immer,dank,"nicht,",richtige,alten,viel,mit,bekannten,jetzt,Bluts,man,"minimalem,",ein,sind,ich,solch,sprudelndes,die,mit,die,das,Blut,Stimmung,ich,"Delikte,",sind,schönen,Büschel,schönen,aus,obschon,Wohnung,wurden,nicht,"Japan,",Packung,schmutziger,landen,dem,ich,vierte,mit,Büschel,,,,,,,,,,,,,,,,,,,,,,,1,0,1,0,0,4,4,4,,,,,,,space,0.72105717659,,,,2017_Jan_25_1106,59.6573294684,spr_backupper,001,Mi11,
,klassischen,serviert.,wurden,der,"reichem,",würden,von,elektrische,feinem,war,vor,noch,minimalem,feinem,"frischem,",Skandal,Wäsche.,eine,einen,salzige,mehr,Glas,liegen,350,geschleudert.,unzureichenden,kaltem,hätten,liegen,immer,noch,die,purem,künftigem,den,Lärm,die,monatlichem,weichem,Störenfriede,des,Trinkwassers.,harten,gelegentlichen,sie,ungefähr,roten,geschleudert.,um,im,roten,wurden,elektrischer,Krams,deren,350,täglichem,was,"Zeit,",Kram,Lärm,einem,Skandals,"nachgewiesen,",hat,eine,sauberen,Glas,auf,leider,unzureichenden,Trinkwasser.,Störenfriede,einem,Tiere,Auto,hat,ziemlich,leider,derer,auf,Wetters,frischen,Wetter,seltenem,sie,des,serviert.,am,die,salziger,Wäsche.,im,Mann,mehr,Bundespräsident.,zusätzlichem,frisches,,,,,,,,,,,,,,,,,,,,,,,1,0,1,0,0,5,5,5,,,,,,,space,0.637691020966,,,,2017_Jan_25_1106,59.6573294684,spr_backupper,001,Mi11,
,Schmuck,nan,verschrottet.,Soldaten,goldenen,seiner,den,Energie.,Kunsteis,aus,Dezember,eine,täglichen,dichten,kaltem,wiedergewählt.,nan,große,Besucher.,Wurst,als,köstlichen,die,ml,nan,Helmen,Abduschen,seiner,die,ruhig,eine,Stimmung,Alkohol,Einkommen,Soldaten,um,Flut,Taschengeld,Untergrund,jeden.,Herrn,nan,Schaumstoff,Besucher.,defekt,drei,Planeten,nan,die,Müll.,Planet,verschrottet.,Energie.,aus,sie,ml,grünen,Tupperware,um,aus,um,Esslöffel,wiedergewählt.,dass,den,große,Kraftstoff,köstlicher,jeden,nichts,Helmen,nan,jeden.,Esslöffel,artgerecht,mehr,den,"vermiest,",nichts,sie,jeden,die,Grases,die,dichten,defekt,Herrn,nan,Hauptbahnhof.,er,Wurst,nan,Müll.,mehr,als,nan,schwarzem,Gras,,,,,,,,,,,,,,,,,,,,,,,1,0,1,0,0,6,6,6,,,,,,,space,0.604208946228,,,,2017_Jan_25_1106,59.6573294684,spr_backupper,001,Mi11,
,umgearbeitet.,nan,nan,des,Besatz,Frau,Problemen,nan,eingesprüht.,Japan.,stattfinden.,Sammlung,Einsatz,Stoff,Saft,nan,nan,Menge,nan,mit,einmal,Weins,Slums.,warme,nan,zur,gehärtet.,Frau,Slums.,diskutiert.,Sammlung,ziemlich,verdünnt.,haftbar.,des,jede,zurückgekehrt.,selber,liegen.,nan,Gantenbeins.,nan,gefertigt.,nan,war.,Tage.,ganz,nan,Probleme,nan,ganz,nan,nan,dem,überführt,warmer,Tee,ist.,Nadelhölzer,dem,jede,warmen,nan,das,Boden,Menge,fahren.,Wein,Fall,mitbringen.,zur,nan,nan,warmem,gehalten.,als,Boden,dass,mitbringen.,überführt,Fall,Wohnung.,zwängen.,Wohnung.,Gewebe,war.,Gantenbein.,nan,nan,trug.,mit,nan,nan,als,einmal,nan,Kaffee,zwängen.,,,,,,,,,,,,,,,,,,,,,,,1,0,1,0,0,7,7,7,,,,,,,space,0.561532020569,,,,2017_Jan_25_1106,59.6573294684,spr_backupper,001,Mi11,
,nan,nan,nan,zweiten,rekonstruiert.,gepasst,im,nan,nan,nan,nan,dumme,sinken.,gefertigt.,besprochen.,nan,nan,dunkler,nan,an,Rilke,schon,nan,Milch.,nan,Schule.,nan,gepasst.,nan,nan,dummer,vermiest.,nan,nan,zweiten,Menge,nan,kaufen.,nan,nan,nan,nan,nan,nan,nan,nan,deutlich.,nan,im,nan,deutlich.,nan,nan,Haus,wurden.,Milch.,wieder,nan,umzusetzen.,Haus,Menge,Honigs,nan,Medikament,berührt.,dunkle,nan,schon,genug.,nan,Schule.,nan,nan,Honig,nan,gerne.,berührt.,es,nan,wurden.,genug.,nan,nan,nan,wiederhergestellt.,nan,nan,nan,nan,nan,an,nan,nan,gerne.,Rilke.,nan,wiederbelebt.,nan,,,,,,,,,,,,,,,,,,,,,,,1,0,1,0,0,8,8,8,,,,,,,space,0.712593793869,,,,2017_Jan_25_1106,59.6573294684,spr_backupper,001,Mi11,
,nan,nan,nan,Weltkriegs.,nan,haben.,Landkreis.,nan,nan,nan,nan,Sprüche.,nan,nan,nan,nan,nan,Materie,nan,den,gelesen.,auf,nan,nan,nan,nan,nan,nan,nan,nan,Sprüche.,nan,nan,nan,Weltkriegs.,heiße,nan,nan,nan,nan,nan,nan,nan,nan,nan,nan,nan,nan,Landkreis.,nan,nan,nan,nan,geschafft.,nan,nan,fit.,nan,nan,geschafft.,heißer,her.,nan,nicht,nan,Materie,nan,auf,nan,nan,nan,nan,nan,her.,nan,nan,nan,regnete.,nan,nan,nan,nan,nan,nan,nan,nan,nan,nan,nan,nan,den,nan,nan,nan,nan,nan,nan,nan,,,,,,,,,,,,,,,,,,,,,,,1,0,1,0,0,9,9,9,,,,,,,space,1.67664194107,,,,2017_Jan_25_1106,59.6573294684,spr_backupper,001,Mi11,
,,,,,,,,,,,,,,,,,,,,,,,,,,,,,,,,,,,,,,,,,,,,,,,,,,,,,,,,,,,,,,,,,,,,,,,,,,,,,,,,,,,,,,,,,,,,,,,,,,,,,,,,,,,,,,,,,,,,,,,,,1,0,1,0,,,,,,,,,,,,,None,n,7.59752082825,2017_Jan_25_1106,59.6573294684,spr_backupper,001,Mi11,
,Die,Beträchtliche,Die,Bei,Das,Die,In,Die,Die,Die,Unter,Sie,Ihr,Er,Sie,Er,Dort,Mit,Wir,Ich,In,Bei,Am,In,Es,Die,Die,Die,Am,Fernab,Sie,Dass,Die,Manche,Bei,Man,Als,Jugendliche,Jungtiere,Außer,Die,Sie,Alle,Wir,Die,Der,Im,Es,In,Viele,Im,Die,Die,Wir,Es,In,Ich,Die,Jetzt,Wir,Man,Er,Er,In,Nicht,Mit,Wir,Bei,100,Außer,Die,Sie,Außer,Er,In,Wir,Nicht,Es,Außer,Es,100,Sie,Wir,Sie,Danach,Die,Die,Beträchtliche,Die,Die,Ich,Dort,Viele,Wir,In,Walter,Die,Wir,,,,,,,,,,,,,,,,,,,,,,,2,0,2,0,0,0,0,0,,,,,,None,space,2.76657104492,,,,2017_Jan_25_1106,59.6573294684,spr_backupper,001,Mi11,
,Stücke,Stücke,Autos,der,Tuch,Schuhe,der,Schule,Eislaufbahnen,"Uhr,",keinen,hatte,Blutdruck,hat,haben,wurde,türmen,dieser,hatten,nehme,meinem,unserer,äußersten,den,wurden,Kinder,Formen,Schuhe,äußeren,des,hatte,es,Lösung,Kreditnehmer,der,machte,die,können,sollten,den,Gäste,verbrauchen,Betten,hatten,Uhr,Flug,Fernrohr,wurden,der,Tonnen,Fernrohr,Autos,Schule,haben,waren,den,wurde,Teilnehmerinnen,ist,haben,machte,stellt,wurde,einer,ein,dieser,konnten,unserer,g,das,Kinder,verbrauchen,dem,stellt,diesem,übergaben,ein,hat,dem,waren,g,verlassen,mussten,verlassen,wurde,Uhr,Gäste,Stücke,Linie,Uhr,nehme,türmen,Tonnen,übergaben,meinem,Scheel,müden,mussten,,,,,,,,,,,,,,,,,,,,,,,2,0,2,0,0,1,1,1,,,,,,,space,0.625860929489,,,,2017_Jan_25_1106,59.6573294684,spr_backupper,001,Mi11,
,wurden,saftiges,beider,Feier,wurde,in,Tat,verbraucht,wurden,die,Umständen,keine,kann,ein,die,trotz,sich,Methode,in,eine,Studium,Ankunft,Rand,Kakao,Eimer,fuhren,wurden,in,Rand,Rummels,keine,"regnete,",wird,sind,Feier,mal,Sonne,Kleidung,immer,Bürgermeister,suchen,60,wurden,in,schlug,zum,sahen,Eimer,Tat,gebrauchter,sahen,beider,verbraucht,jede,nur,Kakao,damals,wussten,genau,jede,mal,die,trotz,Studie,Tropfen,Methode,dann,Ankunft,braunen,Essen,fuhren,60,Bürgermeister,die,Zirkus,dem,Tropfen,uns,Essen,nur,brauner,wegen,uns,wegen,die,schlug,suchen,saftigen,101,war,eine,sich,gebrauchte,das,Studium,war,Teilnehmer,uns,,,,,,,,,,,,,,,,,,,,,,,2,0,2,0,0,2,2,2,,,,,,,space,0.91290807724,,,,2017_Jan_25_1106,59.6573294684,spr_backupper,001,Mi11,
,aus,Fleisch,beteiligten,gedachte,dann,Größe,wissen,260.000,mit,er,können,Lust,schon,Hemd,Erlebnisse,dem,Berge,kann,Dänemark,große,habe,stand,der,gehören,roter,mit,unter,Größe,der,wurde,Lust,hat,mit,mit,gedachte,wieder,"unterging,",bei,auf,beschuldigten,die,Liter,mit,Dänemark,"sporadisch,",Mond,wir,rote,wissen,Kleidung,wir,beteiligter,260.000,Menge,kleinere,gehören,schnell,überwiegend,die,Menge,wieder,Masse,des,wurde,königlichen,kann,mit,stand,Zuckers,kann,mit,Liter,beschuldigten,Masse,werden,Mann,königliches,die,kann,kleinere,Zucker,des,durch,dem,Leinwand,"sporadisch,",die,Fleischs,hält,aus,große,Berge,Kleidung,Auto,las,der,wurden,durch,,,,,,,,,,,,,,,,,,,,,,,2,0,2,0,0,3,3,3,,,,,,,space,1.69442892075,,,,2017_Jan_25_1106,59.6573294684,spr_backupper,001,Mi11,
,"wertvollem,",wurden,Fahrer,man,mit,36,wir,Kilowattstunden,dauerhaftem,"trug,",Neuwahlen,auf,bei,aus,bei,bekannten,schmutzige,man,gelegentlich,Packung,ich,ein,Stadt,immer,Farbe,solchen,"regelmäßigem,",36,Stadt,schon,auf,uns,"reichlichem,","sämtlichem,",man,viel,war,ausreichendem,warmem,die,Wohnung,sprudelnden,"üblichem,",einen,obwohl,dauerte,den,Farbe,wir,landen,den,Fahrer,Kilowattstunden,alten,"Delikte,",immer,dank,"nicht,",richtige,alten,viel,mit,bekannten,jetzt,Bluts,man,"minimalem,",ein,sind,ich,solch,sprudelndes,die,mit,die,das,Blut,Stimmung,ich,"Delikte,",sind,schönen,Büschel,schönen,aus,obschon,Wohnung,wurden,nicht,"Japan,",Packung,schmutziger,landen,dem,ich,vierte,mit,Büschel,,,,,,,,,,,,,,,,,,,,,,,2,0,2,0,0,4,4,4,,,,,,,space,0.427447080612,,,,2017_Jan_25_1106,59.6573294684,spr_backupper,001,Mi11,
,klassischen,serviert.,wurden,der,"reichem,",würden,von,elektrische,feinem,war,vor,noch,minimalem,feinem,"frischem,",Skandal,Wäsche.,eine,einen,salzige,mehr,Glas,liegen,350,geschleudert.,unzureichenden,kaltem,hätten,liegen,immer,noch,die,purem,künftigem,den,Lärm,die,monatlichem,weichem,Störenfriede,des,Trinkwassers.,harten,gelegentlichen,sie,ungefähr,roten,geschleudert.,um,im,roten,wurden,elektrischer,Krams,deren,350,täglichem,was,"Zeit,",Kram,Lärm,einem,Skandals,"nachgewiesen,",hat,eine,sauberen,Glas,auf,leider,unzureichenden,Trinkwasser.,Störenfriede,einem,Tiere,Auto,hat,ziemlich,leider,derer,auf,Wetters,frischen,Wetter,seltenem,sie,des,serviert.,am,die,salziger,Wäsche.,im,Mann,mehr,Bundespräsident.,zusätzlichem,frisches,,,,,,,,,,,,,,,,,,,,,,,2,0,2,0,0,5,5,5,,,,,,,space,0.695006847382,,,,2017_Jan_25_1106,59.6573294684,spr_backupper,001,Mi11,
,Schmuck,nan,verschrottet.,Soldaten,goldenen,seiner,den,Energie.,Kunsteis,aus,Dezember,eine,täglichen,dichten,kaltem,wiedergewählt.,nan,große,Besucher.,Wurst,als,köstlichen,die,ml,nan,Helmen,Abduschen,seiner,die,ruhig,eine,Stimmung,Alkohol,Einkommen,Soldaten,um,Flut,Taschengeld,Untergrund,jeden.,Herrn,nan,Schaumstoff,Besucher.,defekt,drei,Planeten,nan,die,Müll.,Planet,verschrottet.,Energie.,aus,sie,ml,grünen,Tupperware,um,aus,um,Esslöffel,wiedergewählt.,dass,den,große,Kraftstoff,köstlicher,jeden,nichts,Helmen,nan,jeden.,Esslöffel,artgerecht,mehr,den,"vermiest,",nichts,sie,jeden,die,Grases,die,dichten,defekt,Herrn,nan,Hauptbahnhof.,er,Wurst,nan,Müll.,mehr,als,nan,schwarzem,Gras,,,,,,,,,,,,,,,,,,,,,,,2,0,2,0,0,6,6,6,,,,,,,space,0.776525974274,,,,2017_Jan_25_1106,59.6573294684,spr_backupper,001,Mi11,
,umgearbeitet.,nan,nan,des,Besatz,Frau,Problemen,nan,eingesprüht.,Japan.,stattfinden.,Sammlung,Einsatz,Stoff,Saft,nan,nan,Menge,nan,mit,einmal,Weins,Slums.,warme,nan,zur,gehärtet.,Frau,Slums.,diskutiert.,Sammlung,ziemlich,verdünnt.,haftbar.,des,jede,zurückgekehrt.,selber,liegen.,nan,Gantenbeins.,nan,gefertigt.,nan,war.,Tage.,ganz,nan,Probleme,nan,ganz,nan,nan,dem,überführt,warmer,Tee,ist.,Nadelhölzer,dem,jede,warmen,nan,das,Boden,Menge,fahren.,Wein,Fall,mitbringen.,zur,nan,nan,warmem,gehalten.,als,Boden,dass,mitbringen.,überführt,Fall,Wohnung.,zwängen.,Wohnung.,Gewebe,war.,Gantenbein.,nan,nan,trug.,mit,nan,nan,als,einmal,nan,Kaffee,zwängen.,,,,,,,,,,,,,,,,,,,,,,,2,0,2,0,0,7,7,7,,,,,,,space,0.771287202835,,,,2017_Jan_25_1106,59.6573294684,spr_backupper,001,Mi11,
,nan,nan,nan,zweiten,rekonstruiert.,gepasst,im,nan,nan,nan,nan,dumme,sinken.,gefertigt.,besprochen.,nan,nan,dunkler,nan,an,Rilke,schon,nan,Milch.,nan,Schule.,nan,gepasst.,nan,nan,dummer,vermiest.,nan,nan,zweiten,Menge,nan,kaufen.,nan,nan,nan,nan,nan,nan,nan,nan,deutlich.,nan,im,nan,deutlich.,nan,nan,Haus,wurden.,Milch.,wieder,nan,umzusetzen.,Haus,Menge,Honigs,nan,Medikament,berührt.,dunkle,nan,schon,genug.,nan,Schule.,nan,nan,Honig,nan,gerne.,berührt.,es,nan,wurden.,genug.,nan,nan,nan,wiederhergestellt.,nan,nan,nan,nan,nan,an,nan,nan,gerne.,Rilke.,nan,wiederbelebt.,nan,,,,,,,,,,,,,,,,,,,,,,,2,0,2,0,0,8,8,8,,,,,,,space,1.12447690964,,,,2017_Jan_25_1106,59.6573294684,spr_backupper,001,Mi11,
,,,,,,,,,,,,,,,,,,,,,,,,,,,,,,,,,,,,,,,,,,,,,,,,,,,,,,,,,,,,,,,,,,,,,,,,,,,,,,,,,,,,,,,,,,,,,,,,,,,,,,,,,,,,,,,,,,,,,,,,,2,0,2,0,,,,,,,,,,,,,None,n,3.21343588829,2017_Jan_25_1106,59.6573294684,spr_backupper,001,Mi11,
,Die,Beträchtliche,Die,Bei,Das,Die,In,Die,Die,Die,Unter,Sie,Ihr,Er,Sie,Er,Dort,Mit,Wir,Ich,In,Bei,Am,In,Es,Die,Die,Die,Am,Fernab,Sie,Dass,Die,Manche,Bei,Man,Als,Jugendliche,Jungtiere,Außer,Die,Sie,Alle,Wir,Die,Der,Im,Es,In,Viele,Im,Die,Die,Wir,Es,In,Ich,Die,Jetzt,Wir,Man,Er,Er,In,Nicht,Mit,Wir,Bei,100,Außer,Die,Sie,Außer,Er,In,Wir,Nicht,Es,Außer,Es,100,Sie,Wir,Sie,Danach,Die,Die,Beträchtliche,Die,Die,Ich,Dort,Viele,Wir,In,Walter,Die,Wir,,,,,,,,,,,,,,,,,,,,,,,3,0,3,0,0,0,0,0,,,,,,None,space,0.870856046677,,,,2017_Jan_25_1106,59.6573294684,spr_backupper,001,Mi11,
,Stücke,Stücke,Autos,der,Tuch,Schuhe,der,Schule,Eislaufbahnen,"Uhr,",keinen,hatte,Blutdruck,hat,haben,wurde,türmen,dieser,hatten,nehme,meinem,unserer,äußersten,den,wurden,Kinder,Formen,Schuhe,äußeren,des,hatte,es,Lösung,Kreditnehmer,der,machte,die,können,sollten,den,Gäste,verbrauchen,Betten,hatten,Uhr,Flug,Fernrohr,wurden,der,Tonnen,Fernrohr,Autos,Schule,haben,waren,den,wurde,Teilnehmerinnen,ist,haben,machte,stellt,wurde,einer,ein,dieser,konnten,unserer,g,das,Kinder,verbrauchen,dem,stellt,diesem,übergaben,ein,hat,dem,waren,g,verlassen,mussten,verlassen,wurde,Uhr,Gäste,Stücke,Linie,Uhr,nehme,türmen,Tonnen,übergaben,meinem,Scheel,müden,mussten,,,,,,,,,,,,,,,,,,,,,,,3,0,3,0,0,1,1,1,,,,,,,space,0.650829076767,,,,2017_Jan_25_1106,59.6573294684,spr_backupper,001,Mi11,
,wurden,saftiges,beider,Feier,wurde,in,Tat,verbraucht,wurden,die,Umständen,keine,kann,ein,die,trotz,sich,Methode,in,eine,Studium,Ankunft,Rand,Kakao,Eimer,fuhren,wurden,in,Rand,Rummels,keine,"regnete,",wird,sind,Feier,mal,Sonne,Kleidung,immer,Bürgermeister,suchen,60,wurden,in,schlug,zum,sahen,Eimer,Tat,gebrauchter,sahen,beider,verbraucht,jede,nur,Kakao,damals,wussten,genau,jede,mal,die,trotz,Studie,Tropfen,Methode,dann,Ankunft,braunen,Essen,fuhren,60,Bürgermeister,die,Zirkus,dem,Tropfen,uns,Essen,nur,brauner,wegen,uns,wegen,die,schlug,suchen,saftigen,101,war,eine,sich,gebrauchte,das,Studium,war,Teilnehmer,uns,,,,,,,,,,,,,,,,,,,,,,,3,0,3,0,0,2,2,2,,,,,,,space,0.823082923889,,,,2017_Jan_25_1106,59.6573294684,spr_backupper,001,Mi11,
,aus,Fleisch,beteiligten,gedachte,dann,Größe,wissen,260.000,mit,er,können,Lust,schon,Hemd,Erlebnisse,dem,Berge,kann,Dänemark,große,habe,stand,der,gehören,roter,mit,unter,Größe,der,wurde,Lust,hat,mit,mit,gedachte,wieder,"unterging,",bei,auf,beschuldigten,die,Liter,mit,Dänemark,"sporadisch,",Mond,wir,rote,wissen,Kleidung,wir,beteiligter,260.000,Menge,kleinere,gehören,schnell,überwiegend,die,Menge,wieder,Masse,des,wurde,königlichen,kann,mit,stand,Zuckers,kann,mit,Liter,beschuldigten,Masse,werden,Mann,königliches,die,kann,kleinere,Zucker,des,durch,dem,Leinwand,"sporadisch,",die,Fleischs,hält,aus,große,Berge,Kleidung,Auto,las,der,wurden,durch,,,,,,,,,,,,,,,,,,,,,,,3,0,3,0,0,3,3,3,,,,,,,space,0.663963794708,,,,2017_Jan_25_1106,59.6573294684,spr_backupper,001,Mi11,
,"wertvollem,",wurden,Fahrer,man,mit,36,wir,Kilowattstunden,dauerhaftem,"trug,",Neuwahlen,auf,bei,aus,bei,bekannten,schmutzige,man,gelegentlich,Packung,ich,ein,Stadt,immer,Farbe,solchen,"regelmäßigem,",36,Stadt,schon,auf,uns,"reichlichem,","sämtlichem,",man,viel,war,ausreichendem,warmem,die,Wohnung,sprudelnden,"üblichem,",einen,obwohl,dauerte,den,Farbe,wir,landen,den,Fahrer,Kilowattstunden,alten,"Delikte,",immer,dank,"nicht,",richtige,alten,viel,mit,bekannten,jetzt,Bluts,man,"minimalem,",ein,sind,ich,solch,sprudelndes,die,mit,die,das,Blut,Stimmung,ich,"Delikte,",sind,schönen,Büschel,schönen,aus,obschon,Wohnung,wurden,nicht,"Japan,",Packung,schmutziger,landen,dem,ich,vierte,mit,Büschel,,,,,,,,,,,,,,,,,,,,,,,3,0,3,0,0,4,4,4,,,,,,,space,0.604844093323,,,,2017_Jan_25_1106,59.6573294684,spr_backupper,001,Mi11,
,klassischen,serviert.,wurden,der,"reichem,",würden,von,elektrische,feinem,war,vor,noch,minimalem,feinem,"frischem,",Skandal,Wäsche.,eine,einen,salzige,mehr,Glas,liegen,350,geschleudert.,unzureichenden,kaltem,hätten,liegen,immer,noch,die,purem,künftigem,den,Lärm,die,monatlichem,weichem,Störenfriede,des,Trinkwassers.,harten,gelegentlichen,sie,ungefähr,roten,geschleudert.,um,im,roten,wurden,elektrischer,Krams,deren,350,täglichem,was,"Zeit,",Kram,Lärm,einem,Skandals,"nachgewiesen,",hat,eine,sauberen,Glas,auf,leider,unzureichenden,Trinkwasser.,Störenfriede,einem,Tiere,Auto,hat,ziemlich,leider,derer,auf,Wetters,frischen,Wetter,seltenem,sie,des,serviert.,am,die,salziger,Wäsche.,im,Mann,mehr,Bundespräsident.,zusätzlichem,frisches,,,,,,,,,,,,,,,,,,,,,,,3,0,3,0,0,5,5,5,,,,,,,space,0.700059175491,,,,2017_Jan_25_1106,59.6573294684,spr_backupper,001,Mi11,
,Schmuck,nan,verschrottet.,Soldaten,goldenen,seiner,den,Energie.,Kunsteis,aus,Dezember,eine,täglichen,dichten,kaltem,wiedergewählt.,nan,große,Besucher.,Wurst,als,köstlichen,die,ml,nan,Helmen,Abduschen,seiner,die,ruhig,eine,Stimmung,Alkohol,Einkommen,Soldaten,um,Flut,Taschengeld,Untergrund,jeden.,Herrn,nan,Schaumstoff,Besucher.,defekt,drei,Planeten,nan,die,Müll.,Planet,verschrottet.,Energie.,aus,sie,ml,grünen,Tupperware,um,aus,um,Esslöffel,wiedergewählt.,dass,den,große,Kraftstoff,köstlicher,jeden,nichts,Helmen,nan,jeden.,Esslöffel,artgerecht,mehr,den,"vermiest,",nichts,sie,jeden,die,Grases,die,dichten,defekt,Herrn,nan,Hauptbahnhof.,er,Wurst,nan,Müll.,mehr,als,nan,schwarzem,Gras,,,,,,,,,,,,,,,,,,,,,,,3,0,3,0,0,6,6,6,,,,,,,space,0.71445608139,,,,2017_Jan_25_1106,59.6573294684,spr_backupper,001,Mi11,
,umgearbeitet.,nan,nan,des,Besatz,Frau,Problemen,nan,eingesprüht.,Japan.,stattfinden.,Sammlung,Einsatz,Stoff,Saft,nan,nan,Menge,nan,mit,einmal,Weins,Slums.,warme,nan,zur,gehärtet.,Frau,Slums.,diskutiert.,Sammlung,ziemlich,verdünnt.,haftbar.,des,jede,zurückgekehrt.,selber,liegen.,nan,Gantenbeins.,nan,gefertigt.,nan,war.,Tage.,ganz,nan,Probleme,nan,ganz,nan,nan,dem,überführt,warmer,Tee,ist.,Nadelhölzer,dem,jede,warmen,nan,das,Boden,Menge,fahren.,Wein,Fall,mitbringen.,zur,nan,nan,warmem,gehalten.,als,Boden,dass,mitbringen.,überführt,Fall,Wohnung.,zwängen.,Wohnung.,Gewebe,war.,Gantenbein.,nan,nan,trug.,mit,nan,nan,als,einmal,nan,Kaffee,zwängen.,,,,,,,,,,,,,,,,,,,,,,,3,0,3,0,0,7,7,7,,,,,,,space,0.717864990234,,,,2017_Jan_25_1106,59.6573294684,spr_backupper,001,Mi11,
,nan,nan,nan,zweiten,rekonstruiert.,gepasst,im,nan,nan,nan,nan,dumme,sinken.,gefertigt.,besprochen.,nan,nan,dunkler,nan,an,Rilke,schon,nan,Milch.,nan,Schule.,nan,gepasst.,nan,nan,dummer,vermiest.,nan,nan,zweiten,Menge,nan,kaufen.,nan,nan,nan,nan,nan,nan,nan,nan,deutlich.,nan,im,nan,deutlich.,nan,nan,Haus,wurden.,Milch.,wieder,nan,umzusetzen.,Haus,Menge,Honigs,nan,Medikament,berührt.,dunkle,nan,schon,genug.,nan,Schule.,nan,nan,Honig,nan,gerne.,berührt.,es,nan,wurden.,genug.,nan,nan,nan,wiederhergestellt.,nan,nan,nan,nan,nan,an,nan,nan,gerne.,Rilke.,nan,wiederbelebt.,nan,,,,,,,,,,,,,,,,,,,,,,,3,0,3,0,0,8,8,8,,,,,,,space,0.609110832214,,,,2017_Jan_25_1106,59.6573294684,spr_backupper,001,Mi11,
,nan,nan,nan,Weltkriegs.,nan,haben.,Landkreis.,nan,nan,nan,nan,Sprüche.,nan,nan,nan,nan,nan,Materie,nan,den,gelesen.,auf,nan,nan,nan,nan,nan,nan,nan,nan,Sprüche.,nan,nan,nan,Weltkriegs.,heiße,nan,nan,nan,nan,nan,nan,nan,nan,nan,nan,nan,nan,Landkreis.,nan,nan,nan,nan,geschafft.,nan,nan,fit.,nan,nan,geschafft.,heißer,her.,nan,nicht,nan,Materie,nan,auf,nan,nan,nan,nan,nan,her.,nan,nan,nan,regnete.,nan,nan,nan,nan,nan,nan,nan,nan,nan,nan,nan,nan,den,nan,nan,nan,nan,nan,nan,nan,,,,,,,,,,,,,,,,,,,,,,,3,0,3,0,0,9,9,9,,,,,,,space,1.21395802498,,,,2017_Jan_25_1106,59.6573294684,spr_backupper,001,Mi11,
,,,,,,,,,,,,,,,,,,,,,,,,,,,,,,,,,,,,,,,,,,,,,,,,,,,,,,,,,,,,,,,,,,,,,,,,,,,,,,,,,,,,,,,,,,,,,,,,,,,,,,,,,,,,,,,,,,,,,,,,,3,0,3,0,,,,,,,,,,,,,None,n,5.93924593925,2017_Jan_25_1106,59.6573294684,spr_backupper,001,Mi11,
,Die,Beträchtliche,Die,Bei,Das,Die,In,Die,Die,Die,Unter,Sie,Ihr,Er,Sie,Er,Dort,Mit,Wir,Ich,In,Bei,Am,In,Es,Die,Die,Die,Am,Fernab,Sie,Dass,Die,Manche,Bei,Man,Als,Jugendliche,Jungtiere,Außer,Die,Sie,Alle,Wir,Die,Der,Im,Es,In,Viele,Im,Die,Die,Wir,Es,In,Ich,Die,Jetzt,Wir,Man,Er,Er,In,Nicht,Mit,Wir,Bei,100,Außer,Die,Sie,Außer,Er,In,Wir,Nicht,Es,Außer,Es,100,Sie,Wir,Sie,Danach,Die,Die,Beträchtliche,Die,Die,Ich,Dort,Viele,Wir,In,Walter,Die,Wir,,,,,,,,,,,,,,,,,,,,,,,4,0,4,0,0,0,0,0,,,,,,None,space,0.809811115265,,,,2017_Jan_25_1106,59.6573294684,spr_backupper,001,Mi11,
,Stücke,Stücke,Autos,der,Tuch,Schuhe,der,Schule,Eislaufbahnen,"Uhr,",keinen,hatte,Blutdruck,hat,haben,wurde,türmen,dieser,hatten,nehme,meinem,unserer,äußersten,den,wurden,Kinder,Formen,Schuhe,äußeren,des,hatte,es,Lösung,Kreditnehmer,der,machte,die,können,sollten,den,Gäste,verbrauchen,Betten,hatten,Uhr,Flug,Fernrohr,wurden,der,Tonnen,Fernrohr,Autos,Schule,haben,waren,den,wurde,Teilnehmerinnen,ist,haben,machte,stellt,wurde,einer,ein,dieser,konnten,unserer,g,das,Kinder,verbrauchen,dem,stellt,diesem,übergaben,ein,hat,dem,waren,g,verlassen,mussten,verlassen,wurde,Uhr,Gäste,Stücke,Linie,Uhr,nehme,türmen,Tonnen,übergaben,meinem,Scheel,müden,mussten,,,,,,,,,,,,,,,,,,,,,,,4,0,4,0,0,1,1,1,,,,,,,space,1.12853598595,,,,2017_Jan_25_1106,59.6573294684,spr_backupper,001,Mi11,
,wurden,saftiges,beider,Feier,wurde,in,Tat,verbraucht,wurden,die,Umständen,keine,kann,ein,die,trotz,sich,Methode,in,eine,Studium,Ankunft,Rand,Kakao,Eimer,fuhren,wurden,in,Rand,Rummels,keine,"regnete,",wird,sind,Feier,mal,Sonne,Kleidung,immer,Bürgermeister,suchen,60,wurden,in,schlug,zum,sahen,Eimer,Tat,gebrauchter,sahen,beider,verbraucht,jede,nur,Kakao,damals,wussten,genau,jede,mal,die,trotz,Studie,Tropfen,Methode,dann,Ankunft,braunen,Essen,fuhren,60,Bürgermeister,die,Zirkus,dem,Tropfen,uns,Essen,nur,brauner,wegen,uns,wegen,die,schlug,suchen,saftigen,101,war,eine,sich,gebrauchte,das,Studium,war,Teilnehmer,uns,,,,,,,,,,,,,,,,,,,,,,,4,0,4,0,0,2,2,2,,,,,,,space,1.12090587616,,,,2017_Jan_25_1106,59.6573294684,spr_backupper,001,Mi11,
,aus,Fleisch,beteiligten,gedachte,dann,Größe,wissen,260.000,mit,er,können,Lust,schon,Hemd,Erlebnisse,dem,Berge,kann,Dänemark,große,habe,stand,der,gehören,roter,mit,unter,Größe,der,wurde,Lust,hat,mit,mit,gedachte,wieder,"unterging,",bei,auf,beschuldigten,die,Liter,mit,Dänemark,"sporadisch,",Mond,wir,rote,wissen,Kleidung,wir,beteiligter,260.000,Menge,kleinere,gehören,schnell,überwiegend,die,Menge,wieder,Masse,des,wurde,königlichen,kann,mit,stand,Zuckers,kann,mit,Liter,beschuldigten,Masse,werden,Mann,königliches,die,kann,kleinere,Zucker,des,durch,dem,Leinwand,"sporadisch,",die,Fleischs,hält,aus,große,Berge,Kleidung,Auto,las,der,wurden,durch,,,,,,,,,,,,,,,,,,,,,,,4,0,4,0,0,3,3,3,,,,,,,space,0.769268035889,,,,2017_Jan_25_1106,59.6573294684,spr_backupper,001,Mi11,
,"wertvollem,",wurden,Fahrer,man,mit,36,wir,Kilowattstunden,dauerhaftem,"trug,",Neuwahlen,auf,bei,aus,bei,bekannten,schmutzige,man,gelegentlich,Packung,ich,ein,Stadt,immer,Farbe,solchen,"regelmäßigem,",36,Stadt,schon,auf,uns,"reichlichem,","sämtlichem,",man,viel,war,ausreichendem,warmem,die,Wohnung,sprudelnden,"üblichem,",einen,obwohl,dauerte,den,Farbe,wir,landen,den,Fahrer,Kilowattstunden,alten,"Delikte,",immer,dank,"nicht,",richtige,alten,viel,mit,bekannten,jetzt,Bluts,man,"minimalem,",ein,sind,ich,solch,sprudelndes,die,mit,die,das,Blut,Stimmung,ich,"Delikte,",sind,schönen,Büschel,schönen,aus,obschon,Wohnung,wurden,nicht,"Japan,",Packung,schmutziger,landen,dem,ich,vierte,mit,Büschel,,,,,,,,,,,,,,,,,,,,,,,4,0,4,0,0,4,4,4,,,,,,,space,0.719043016434,,,,2017_Jan_25_1106,59.6573294684,spr_backupper,001,Mi11,
,klassischen,serviert.,wurden,der,"reichem,",würden,von,elektrische,feinem,war,vor,noch,minimalem,feinem,"frischem,",Skandal,Wäsche.,eine,einen,salzige,mehr,Glas,liegen,350,geschleudert.,unzureichenden,kaltem,hätten,liegen,immer,noch,die,purem,künftigem,den,Lärm,die,monatlichem,weichem,Störenfriede,des,Trinkwassers.,harten,gelegentlichen,sie,ungefähr,roten,geschleudert.,um,im,roten,wurden,elektrischer,Krams,deren,350,täglichem,was,"Zeit,",Kram,Lärm,einem,Skandals,"nachgewiesen,",hat,eine,sauberen,Glas,auf,leider,unzureichenden,Trinkwasser.,Störenfriede,einem,Tiere,Auto,hat,ziemlich,leider,derer,auf,Wetters,frischen,Wetter,seltenem,sie,des,serviert.,am,die,salziger,Wäsche.,im,Mann,mehr,Bundespräsident.,zusätzlichem,frisches,,,,,,,,,,,,,,,,,,,,,,,4,0,4,0,0,5,5,5,,,,,,,space,0.634176969528,,,,2017_Jan_25_1106,59.6573294684,spr_backupper,001,Mi11,
,Schmuck,nan,verschrottet.,Soldaten,goldenen,seiner,den,Energie.,Kunsteis,aus,Dezember,eine,täglichen,dichten,kaltem,wiedergewählt.,nan,große,Besucher.,Wurst,als,köstlichen,die,ml,nan,Helmen,Abduschen,seiner,die,ruhig,eine,Stimmung,Alkohol,Einkommen,Soldaten,um,Flut,Taschengeld,Untergrund,jeden.,Herrn,nan,Schaumstoff,Besucher.,defekt,drei,Planeten,nan,die,Müll.,Planet,verschrottet.,Energie.,aus,sie,ml,grünen,Tupperware,um,aus,um,Esslöffel,wiedergewählt.,dass,den,große,Kraftstoff,köstlicher,jeden,nichts,Helmen,nan,jeden.,Esslöffel,artgerecht,mehr,den,"vermiest,",nichts,sie,jeden,die,Grases,die,dichten,defekt,Herrn,nan,Hauptbahnhof.,er,Wurst,nan,Müll.,mehr,als,nan,schwarzem,Gras,,,,,,,,,,,,,,,,,,,,,,,4,0,4,0,0,6,6,6,,,,,,,space,0.755597114563,,,,2017_Jan_25_1106,59.6573294684,spr_backupper,001,Mi11,
,umgearbeitet.,nan,nan,des,Besatz,Frau,Problemen,nan,eingesprüht.,Japan.,stattfinden.,Sammlung,Einsatz,Stoff,Saft,nan,nan,Menge,nan,mit,einmal,Weins,Slums.,warme,nan,zur,gehärtet.,Frau,Slums.,diskutiert.,Sammlung,ziemlich,verdünnt.,haftbar.,des,jede,zurückgekehrt.,selber,liegen.,nan,Gantenbeins.,nan,gefertigt.,nan,war.,Tage.,ganz,nan,Probleme,nan,ganz,nan,nan,dem,überführt,warmer,Tee,ist.,Nadelhölzer,dem,jede,warmen,nan,das,Boden,Menge,fahren.,Wein,Fall,mitbringen.,zur,nan,nan,warmem,gehalten.,als,Boden,dass,mitbringen.,überführt,Fall,Wohnung.,zwängen.,Wohnung.,Gewebe,war.,Gantenbein.,nan,nan,trug.,mit,nan,nan,als,einmal,nan,Kaffee,zwängen.,,,,,,,,,,,,,,,,,,,,,,,4,0,4,0,0,7,7,7,,,,,,,space,0.693051099777,,,,2017_Jan_25_1106,59.6573294684,spr_backupper,001,Mi11,
,,,,,,,,,,,,,,,,,,,,,,,,,,,,,,,,,,,,,,,,,,,,,,,,,,,,,,,,,,,,,,,,,,,,,,,,,,,,,,,,,,,,,,,,,,,,,,,,,,,,,,,,,,,,,,,,,,,,,,,,,4,0,4,0,,,,,,,,,,,,,None,j,7.42550897598,2017_Jan_25_1106,59.6573294684,spr_backupper,001,Mi11,
,Die,Beträchtliche,Die,Bei,Das,Die,In,Die,Die,Die,Unter,Sie,Ihr,Er,Sie,Er,Dort,Mit,Wir,Ich,In,Bei,Am,In,Es,Die,Die,Die,Am,Fernab,Sie,Dass,Die,Manche,Bei,Man,Als,Jugendliche,Jungtiere,Außer,Die,Sie,Alle,Wir,Die,Der,Im,Es,In,Viele,Im,Die,Die,Wir,Es,In,Ich,Die,Jetzt,Wir,Man,Er,Er,In,Nicht,Mit,Wir,Bei,100,Außer,Die,Sie,Außer,Er,In,Wir,Nicht,Es,Außer,Es,100,Sie,Wir,Sie,Danach,Die,Die,Beträchtliche,Die,Die,Ich,Dort,Viele,Wir,In,Walter,Die,Wir,,,,,,,,,,,,,,,,,,,,,,,5,0,5,0,0,0,0,0,,,,,,None,space,0.82434296608,,,,2017_Jan_25_1106,59.6573294684,spr_backupper,001,Mi11,
,Stücke,Stücke,Autos,der,Tuch,Schuhe,der,Schule,Eislaufbahnen,"Uhr,",keinen,hatte,Blutdruck,hat,haben,wurde,türmen,dieser,hatten,nehme,meinem,unserer,äußersten,den,wurden,Kinder,Formen,Schuhe,äußeren,des,hatte,es,Lösung,Kreditnehmer,der,machte,die,können,sollten,den,Gäste,verbrauchen,Betten,hatten,Uhr,Flug,Fernrohr,wurden,der,Tonnen,Fernrohr,Autos,Schule,haben,waren,den,wurde,Teilnehmerinnen,ist,haben,machte,stellt,wurde,einer,ein,dieser,konnten,unserer,g,das,Kinder,verbrauchen,dem,stellt,diesem,übergaben,ein,hat,dem,waren,g,verlassen,mussten,verlassen,wurde,Uhr,Gäste,Stücke,Linie,Uhr,nehme,türmen,Tonnen,übergaben,meinem,Scheel,müden,mussten,,,,,,,,,,,,,,,,,,,,,,,5,0,5,0,0,1,1,1,,,,,,,space,0.525141000748,,,,2017_Jan_25_1106,59.6573294684,spr_backupper,001,Mi11,
,wurden,saftiges,beider,Feier,wurde,in,Tat,verbraucht,wurden,die,Umständen,keine,kann,ein,die,trotz,sich,Methode,in,eine,Studium,Ankunft,Rand,Kakao,Eimer,fuhren,wurden,in,Rand,Rummels,keine,"regnete,",wird,sind,Feier,mal,Sonne,Kleidung,immer,Bürgermeister,suchen,60,wurden,in,schlug,zum,sahen,Eimer,Tat,gebrauchter,sahen,beider,verbraucht,jede,nur,Kakao,damals,wussten,genau,jede,mal,die,trotz,Studie,Tropfen,Methode,dann,Ankunft,braunen,Essen,fuhren,60,Bürgermeister,die,Zirkus,dem,Tropfen,uns,Essen,nur,brauner,wegen,uns,wegen,die,schlug,suchen,saftigen,101,war,eine,sich,gebrauchte,das,Studium,war,Teilnehmer,uns,,,,,,,,,,,,,,,,,,,,,,,5,0,5,0,0,2,2,2,,,,,,,space,0.637099027634,,,,2017_Jan_25_1106,59.6573294684,spr_backupper,001,Mi11,
,aus,Fleisch,beteiligten,gedachte,dann,Größe,wissen,260.000,mit,er,können,Lust,schon,Hemd,Erlebnisse,dem,Berge,kann,Dänemark,große,habe,stand,der,gehören,roter,mit,unter,Größe,der,wurde,Lust,hat,mit,mit,gedachte,wieder,"unterging,",bei,auf,beschuldigten,die,Liter,mit,Dänemark,"sporadisch,",Mond,wir,rote,wissen,Kleidung,wir,beteiligter,260.000,Menge,kleinere,gehören,schnell,überwiegend,die,Menge,wieder,Masse,des,wurde,königlichen,kann,mit,stand,Zuckers,kann,mit,Liter,beschuldigten,Masse,werden,Mann,königliches,die,kann,kleinere,Zucker,des,durch,dem,Leinwand,"sporadisch,",die,Fleischs,hält,aus,große,Berge,Kleidung,Auto,las,der,wurden,durch,,,,,,,,,,,,,,,,,,,,,,,5,0,5,0,0,3,3,3,,,,,,,space,0.822432994843,,,,2017_Jan_25_1106,59.6573294684,spr_backupper,001,Mi11,
,"wertvollem,",wurden,Fahrer,man,mit,36,wir,Kilowattstunden,dauerhaftem,"trug,",Neuwahlen,auf,bei,aus,bei,bekannten,schmutzige,man,gelegentlich,Packung,ich,ein,Stadt,immer,Farbe,solchen,"regelmäßigem,",36,Stadt,schon,auf,uns,"reichlichem,","sämtlichem,",man,viel,war,ausreichendem,warmem,die,Wohnung,sprudelnden,"üblichem,",einen,obwohl,dauerte,den,Farbe,wir,landen,den,Fahrer,Kilowattstunden,alten,"Delikte,",immer,dank,"nicht,",richtige,alten,viel,mit,bekannten,jetzt,Bluts,man,"minimalem,",ein,sind,ich,solch,sprudelndes,die,mit,die,das,Blut,Stimmung,ich,"Delikte,",sind,schönen,Büschel,schönen,aus,obschon,Wohnung,wurden,nicht,"Japan,",Packung,schmutziger,landen,dem,ich,vierte,mit,Büschel,,,,,,,,,,,,,,,,,,,,,,,5,0,5,0,0,4,4,4,,,,,,,space,0.6941010952,,,,2017_Jan_25_1106,59.6573294684,spr_backupper,001,Mi11,
,klassischen,serviert.,wurden,der,"reichem,",würden,von,elektrische,feinem,war,vor,noch,minimalem,feinem,"frischem,",Skandal,Wäsche.,eine,einen,salzige,mehr,Glas,liegen,350,geschleudert.,unzureichenden,kaltem,hätten,liegen,immer,noch,die,purem,künftigem,den,Lärm,die,monatlichem,weichem,Störenfriede,des,Trinkwassers.,harten,gelegentlichen,sie,ungefähr,roten,geschleudert.,um,im,roten,wurden,elektrischer,Krams,deren,350,täglichem,was,"Zeit,",Kram,Lärm,einem,Skandals,"nachgewiesen,",hat,eine,sauberen,Glas,auf,leider,unzureichenden,Trinkwasser.,Störenfriede,einem,Tiere,Auto,hat,ziemlich,leider,derer,auf,Wetters,frischen,Wetter,seltenem,sie,des,serviert.,am,die,salziger,Wäsche.,im,Mann,mehr,Bundespräsident.,zusätzlichem,frisches,,,,,,,,,,,,,,,,,,,,,,,5,0,5,0,0,5,5,5,,,,,,,space,0.653050899506,,,,2017_Jan_25_1106,59.6573294684,spr_backupper,001,Mi11,
,Schmuck,nan,verschrottet.,Soldaten,goldenen,seiner,den,Energie.,Kunsteis,aus,Dezember,eine,täglichen,dichten,kaltem,wiedergewählt.,nan,große,Besucher.,Wurst,als,köstlichen,die,ml,nan,Helmen,Abduschen,seiner,die,ruhig,eine,Stimmung,Alkohol,Einkommen,Soldaten,um,Flut,Taschengeld,Untergrund,jeden.,Herrn,nan,Schaumstoff,Besucher.,defekt,drei,Planeten,nan,die,Müll.,Planet,verschrottet.,Energie.,aus,sie,ml,grünen,Tupperware,um,aus,um,Esslöffel,wiedergewählt.,dass,den,große,Kraftstoff,köstlicher,jeden,nichts,Helmen,nan,jeden.,Esslöffel,artgerecht,mehr,den,"vermiest,",nichts,sie,jeden,die,Grases,die,dichten,defekt,Herrn,nan,Hauptbahnhof.,er,Wurst,nan,Müll.,mehr,als,nan,schwarzem,Gras,,,,,,,,,,,,,,,,,,,,,,,5,0,5,0,0,6,6,6,,,,,,,space,0.544767856598,,,,2017_Jan_25_1106,59.6573294684,spr_backupper,001,Mi11,
,umgearbeitet.,nan,nan,des,Besatz,Frau,Problemen,nan,eingesprüht.,Japan.,stattfinden.,Sammlung,Einsatz,Stoff,Saft,nan,nan,Menge,nan,mit,einmal,Weins,Slums.,warme,nan,zur,gehärtet.,Frau,Slums.,diskutiert.,Sammlung,ziemlich,verdünnt.,haftbar.,des,jede,zurückgekehrt.,selber,liegen.,nan,Gantenbeins.,nan,gefertigt.,nan,war.,Tage.,ganz,nan,Probleme,nan,ganz,nan,nan,dem,überführt,warmer,Tee,ist.,Nadelhölzer,dem,jede,warmen,nan,das,Boden,Menge,fahren.,Wein,Fall,mitbringen.,zur,nan,nan,warmem,gehalten.,als,Boden,dass,mitbringen.,überführt,Fall,Wohnung.,zwängen.,Wohnung.,Gewebe,war.,Gantenbein.,nan,nan,trug.,mit,nan,nan,als,einmal,nan,Kaffee,zwängen.,,,,,,,,,,,,,,,,,,,,,,,5,0,5,0,0,7,7,7,,,,,,,space,0.637830972672,,,,2017_Jan_25_1106,59.6573294684,spr_backupper,001,Mi11,
,,,,,,,,,,,,,,,,,,,,,,,,,,,,,,,,,,,,,,,,,,,,,,,,,,,,,,,,,,,,,,,,,,,,,,,,,,,,,,,,,,,,,,,,,,,,,,,,,,,,,,,,,,,,,,,,,,,,,,,,,5,0,5,0,,,,,,,,,,,,,None,n,5.45691418648,2017_Jan_25_1106,59.6573294684,spr_backupper,001,Mi11,
,Die,Beträchtliche,Die,Bei,Das,Die,In,Die,Die,Die,Unter,Sie,Ihr,Er,Sie,Er,Dort,Mit,Wir,Ich,In,Bei,Am,In,Es,Die,Die,Die,Am,Fernab,Sie,Dass,Die,Manche,Bei,Man,Als,Jugendliche,Jungtiere,Außer,Die,Sie,Alle,Wir,Die,Der,Im,Es,In,Viele,Im,Die,Die,Wir,Es,In,Ich,Die,Jetzt,Wir,Man,Er,Er,In,Nicht,Mit,Wir,Bei,100,Außer,Die,Sie,Außer,Er,In,Wir,Nicht,Es,Außer,Es,100,Sie,Wir,Sie,Danach,Die,Die,Beträchtliche,Die,Die,Ich,Dort,Viele,Wir,In,Walter,Die,Wir,,,,,,,,,,,,,,,,,,,,,,,6,0,6,0,0,0,0,0,,,,,,None,space,0.791388034821,,,,2017_Jan_25_1106,59.6573294684,spr_backupper,001,Mi11,
,Stücke,Stücke,Autos,der,Tuch,Schuhe,der,Schule,Eislaufbahnen,"Uhr,",keinen,hatte,Blutdruck,hat,haben,wurde,türmen,dieser,hatten,nehme,meinem,unserer,äußersten,den,wurden,Kinder,Formen,Schuhe,äußeren,des,hatte,es,Lösung,Kreditnehmer,der,machte,die,können,sollten,den,Gäste,verbrauchen,Betten,hatten,Uhr,Flug,Fernrohr,wurden,der,Tonnen,Fernrohr,Autos,Schule,haben,waren,den,wurde,Teilnehmerinnen,ist,haben,machte,stellt,wurde,einer,ein,dieser,konnten,unserer,g,das,Kinder,verbrauchen,dem,stellt,diesem,übergaben,ein,hat,dem,waren,g,verlassen,mussten,verlassen,wurde,Uhr,Gäste,Stücke,Linie,Uhr,nehme,türmen,Tonnen,übergaben,meinem,Scheel,müden,mussten,,,,,,,,,,,,,,,,,,,,,,,6,0,6,0,0,1,1,1,,,,,,,space,1.42712497711,,,,2017_Jan_25_1106,59.6573294684,spr_backupper,001,Mi11,
,wurden,saftiges,beider,Feier,wurde,in,Tat,verbraucht,wurden,die,Umständen,keine,kann,ein,die,trotz,sich,Methode,in,eine,Studium,Ankunft,Rand,Kakao,Eimer,fuhren,wurden,in,Rand,Rummels,keine,"regnete,",wird,sind,Feier,mal,Sonne,Kleidung,immer,Bürgermeister,suchen,60,wurden,in,schlug,zum,sahen,Eimer,Tat,gebrauchter,sahen,beider,verbraucht,jede,nur,Kakao,damals,wussten,genau,jede,mal,die,trotz,Studie,Tropfen,Methode,dann,Ankunft,braunen,Essen,fuhren,60,Bürgermeister,die,Zirkus,dem,Tropfen,uns,Essen,nur,brauner,wegen,uns,wegen,die,schlug,suchen,saftigen,101,war,eine,sich,gebrauchte,das,Studium,war,Teilnehmer,uns,,,,,,,,,,,,,,,,,,,,,,,6,0,6,0,0,2,2,2,,,,,,,space,0.653631925583,,,,2017_Jan_25_1106,59.6573294684,spr_backupper,001,Mi11,
,aus,Fleisch,beteiligten,gedachte,dann,Größe,wissen,260.000,mit,er,können,Lust,schon,Hemd,Erlebnisse,dem,Berge,kann,Dänemark,große,habe,stand,der,gehören,roter,mit,unter,Größe,der,wurde,Lust,hat,mit,mit,gedachte,wieder,"unterging,",bei,auf,beschuldigten,die,Liter,mit,Dänemark,"sporadisch,",Mond,wir,rote,wissen,Kleidung,wir,beteiligter,260.000,Menge,kleinere,gehören,schnell,überwiegend,die,Menge,wieder,Masse,des,wurde,königlichen,kann,mit,stand,Zuckers,kann,mit,Liter,beschuldigten,Masse,werden,Mann,königliches,die,kann,kleinere,Zucker,des,durch,dem,Leinwand,"sporadisch,",die,Fleischs,hält,aus,große,Berge,Kleidung,Auto,las,der,wurden,durch,,,,,,,,,,,,,,,,,,,,,,,6,0,6,0,0,3,3,3,,,,,,,space,0.766147851944,,,,2017_Jan_25_1106,59.6573294684,spr_backupper,001,Mi11,
,"wertvollem,",wurden,Fahrer,man,mit,36,wir,Kilowattstunden,dauerhaftem,"trug,",Neuwahlen,auf,bei,aus,bei,bekannten,schmutzige,man,gelegentlich,Packung,ich,ein,Stadt,immer,Farbe,solchen,"regelmäßigem,",36,Stadt,schon,auf,uns,"reichlichem,","sämtlichem,",man,viel,war,ausreichendem,warmem,die,Wohnung,sprudelnden,"üblichem,",einen,obwohl,dauerte,den,Farbe,wir,landen,den,Fahrer,Kilowattstunden,alten,"Delikte,",immer,dank,"nicht,",richtige,alten,viel,mit,bekannten,jetzt,Bluts,man,"minimalem,",ein,sind,ich,solch,sprudelndes,die,mit,die,das,Blut,Stimmung,ich,"Delikte,",sind,schönen,Büschel,schönen,aus,obschon,Wohnung,wurden,nicht,"Japan,",Packung,schmutziger,landen,dem,ich,vierte,mit,Büschel,,,,,,,,,,,,,,,,,,,,,,,6,0,6,0,0,4,4,4,,,,,,,space,1.28906297684,,,,2017_Jan_25_1106,59.6573294684,spr_backupper,001,Mi11,
,klassischen,serviert.,wurden,der,"reichem,",würden,von,elektrische,feinem,war,vor,noch,minimalem,feinem,"frischem,",Skandal,Wäsche.,eine,einen,salzige,mehr,Glas,liegen,350,geschleudert.,unzureichenden,kaltem,hätten,liegen,immer,noch,die,purem,künftigem,den,Lärm,die,monatlichem,weichem,Störenfriede,des,Trinkwassers.,harten,gelegentlichen,sie,ungefähr,roten,geschleudert.,um,im,roten,wurden,elektrischer,Krams,deren,350,täglichem,was,"Zeit,",Kram,Lärm,einem,Skandals,"nachgewiesen,",hat,eine,sauberen,Glas,auf,leider,unzureichenden,Trinkwasser.,Störenfriede,einem,Tiere,Auto,hat,ziemlich,leider,derer,auf,Wetters,frischen,Wetter,seltenem,sie,des,serviert.,am,die,salziger,Wäsche.,im,Mann,mehr,Bundespräsident.,zusätzlichem,frisches,,,,,,,,,,,,,,,,,,,,,,,6,0,6,0,0,5,5,5,,,,,,,space,0.956521987915,,,,2017_Jan_25_1106,59.6573294684,spr_backupper,001,Mi11,
,Schmuck,nan,verschrottet.,Soldaten,goldenen,seiner,den,Energie.,Kunsteis,aus,Dezember,eine,täglichen,dichten,kaltem,wiedergewählt.,nan,große,Besucher.,Wurst,als,köstlichen,die,ml,nan,Helmen,Abduschen,seiner,die,ruhig,eine,Stimmung,Alkohol,Einkommen,Soldaten,um,Flut,Taschengeld,Untergrund,jeden.,Herrn,nan,Schaumstoff,Besucher.,defekt,drei,Planeten,nan,die,Müll.,Planet,verschrottet.,Energie.,aus,sie,ml,grünen,Tupperware,um,aus,um,Esslöffel,wiedergewählt.,dass,den,große,Kraftstoff,köstlicher,jeden,nichts,Helmen,nan,jeden.,Esslöffel,artgerecht,mehr,den,"vermiest,",nichts,sie,jeden,die,Grases,die,dichten,defekt,Herrn,nan,Hauptbahnhof.,er,Wurst,nan,Müll.,mehr,als,nan,schwarzem,Gras,,,,,,,,,,,,,,,,,,,,,,,6,0,6,0,0,6,6,6,,,,,,,space,0.786489009857,,,,2017_Jan_25_1106,59.6573294684,spr_backupper,001,Mi11,
,umgearbeitet.,nan,nan,des,Besatz,Frau,Problemen,nan,eingesprüht.,Japan.,stattfinden.,Sammlung,Einsatz,Stoff,Saft,nan,nan,Menge,nan,mit,einmal,Weins,Slums.,warme,nan,zur,gehärtet.,Frau,Slums.,diskutiert.,Sammlung,ziemlich,verdünnt.,haftbar.,des,jede,zurückgekehrt.,selber,liegen.,nan,Gantenbeins.,nan,gefertigt.,nan,war.,Tage.,ganz,nan,Probleme,nan,ganz,nan,nan,dem,überführt,warmer,Tee,ist.,Nadelhölzer,dem,jede,warmen,nan,das,Boden,Menge,fahren.,Wein,Fall,mitbringen.,zur,nan,nan,warmem,gehalten.,als,Boden,dass,mitbringen.,überführt,Fall,Wohnung.,zwängen.,Wohnung.,Gewebe,war.,Gantenbein.,nan,nan,trug.,mit,nan,nan,als,einmal,nan,Kaffee,zwängen.,,,,,,,,,,,,,,,,,,,,,,,6,0,6,0,0,7,7,7,,,,,,,space,1.56639003754,,,,2017_Jan_25_1106,59.6573294684,spr_backupper,001,Mi11,
,,,,,,,,,,,,,,,,,,,,,,,,,,,,,,,,,,,,,,,,,,,,,,,,,,,,,,,,,,,,,,,,,,,,,,,,,,,,,,,,,,,,,,,,,,,,,,,,,,,,,,,,,,,,,,,,,,,,,,,,,6,0,6,0,,,,,,,,,,,,,None,j,4.49561619759,2017_Jan_25_1106,59.6573294684,spr_backupper,001,Mi11,
,Die,Beträchtliche,Die,Bei,Das,Die,In,Die,Die,Die,Unter,Sie,Ihr,Er,Sie,Er,Dort,Mit,Wir,Ich,In,Bei,Am,In,Es,Die,Die,Die,Am,Fernab,Sie,Dass,Die,Manche,Bei,Man,Als,Jugendliche,Jungtiere,Außer,Die,Sie,Alle,Wir,Die,Der,Im,Es,In,Viele,Im,Die,Die,Wir,Es,In,Ich,Die,Jetzt,Wir,Man,Er,Er,In,Nicht,Mit,Wir,Bei,100,Außer,Die,Sie,Außer,Er,In,Wir,Nicht,Es,Außer,Es,100,Sie,Wir,Sie,Danach,Die,Die,Beträchtliche,Die,Die,Ich,Dort,Viele,Wir,In,Walter,Die,Wir,,,,,,,,,,,,,,,,,,,,,,,7,0,7,0,0,0,0,0,,,,,,None,space,0.667944908142,,,,2017_Jan_25_1106,59.6573294684,spr_backupper,001,Mi11,
,Stücke,Stücke,Autos,der,Tuch,Schuhe,der,Schule,Eislaufbahnen,"Uhr,",keinen,hatte,Blutdruck,hat,haben,wurde,türmen,dieser,hatten,nehme,meinem,unserer,äußersten,den,wurden,Kinder,Formen,Schuhe,äußeren,des,hatte,es,Lösung,Kreditnehmer,der,machte,die,können,sollten,den,Gäste,verbrauchen,Betten,hatten,Uhr,Flug,Fernrohr,wurden,der,Tonnen,Fernrohr,Autos,Schule,haben,waren,den,wurde,Teilnehmerinnen,ist,haben,machte,stellt,wurde,einer,ein,dieser,konnten,unserer,g,das,Kinder,verbrauchen,dem,stellt,diesem,übergaben,ein,hat,dem,waren,g,verlassen,mussten,verlassen,wurde,Uhr,Gäste,Stücke,Linie,Uhr,nehme,türmen,Tonnen,übergaben,meinem,Scheel,müden,mussten,,,,,,,,,,,,,,,,,,,,,,,7,0,7,0,0,1,1,1,,,,,,,space,0.604219913483,,,,2017_Jan_25_1106,59.6573294684,spr_backupper,001,Mi11,
,wurden,saftiges,beider,Feier,wurde,in,Tat,verbraucht,wurden,die,Umständen,keine,kann,ein,die,trotz,sich,Methode,in,eine,Studium,Ankunft,Rand,Kakao,Eimer,fuhren,wurden,in,Rand,Rummels,keine,"regnete,",wird,sind,Feier,mal,Sonne,Kleidung,immer,Bürgermeister,suchen,60,wurden,in,schlug,zum,sahen,Eimer,Tat,gebrauchter,sahen,beider,verbraucht,jede,nur,Kakao,damals,wussten,genau,jede,mal,die,trotz,Studie,Tropfen,Methode,dann,Ankunft,braunen,Essen,fuhren,60,Bürgermeister,die,Zirkus,dem,Tropfen,uns,Essen,nur,brauner,wegen,uns,wegen,die,schlug,suchen,saftigen,101,war,eine,sich,gebrauchte,das,Studium,war,Teilnehmer,uns,,,,,,,,,,,,,,,,,,,,,,,7,0,7,0,0,2,2,2,,,,,,,space,0.594814062119,,,,2017_Jan_25_1106,59.6573294684,spr_backupper,001,Mi11,
,aus,Fleisch,beteiligten,gedachte,dann,Größe,wissen,260.000,mit,er,können,Lust,schon,Hemd,Erlebnisse,dem,Berge,kann,Dänemark,große,habe,stand,der,gehören,roter,mit,unter,Größe,der,wurde,Lust,hat,mit,mit,gedachte,wieder,"unterging,",bei,auf,beschuldigten,die,Liter,mit,Dänemark,"sporadisch,",Mond,wir,rote,wissen,Kleidung,wir,beteiligter,260.000,Menge,kleinere,gehören,schnell,überwiegend,die,Menge,wieder,Masse,des,wurde,königlichen,kann,mit,stand,Zuckers,kann,mit,Liter,beschuldigten,Masse,werden,Mann,königliches,die,kann,kleinere,Zucker,des,durch,dem,Leinwand,"sporadisch,",die,Fleischs,hält,aus,große,Berge,Kleidung,Auto,las,der,wurden,durch,,,,,,,,,,,,,,,,,,,,,,,7,0,7,0,0,3,3,3,,,,,,,space,0.757989883423,,,,2017_Jan_25_1106,59.6573294684,spr_backupper,001,Mi11,
,"wertvollem,",wurden,Fahrer,man,mit,36,wir,Kilowattstunden,dauerhaftem,"trug,",Neuwahlen,auf,bei,aus,bei,bekannten,schmutzige,man,gelegentlich,Packung,ich,ein,Stadt,immer,Farbe,solchen,"regelmäßigem,",36,Stadt,schon,auf,uns,"reichlichem,","sämtlichem,",man,viel,war,ausreichendem,warmem,die,Wohnung,sprudelnden,"üblichem,",einen,obwohl,dauerte,den,Farbe,wir,landen,den,Fahrer,Kilowattstunden,alten,"Delikte,",immer,dank,"nicht,",richtige,alten,viel,mit,bekannten,jetzt,Bluts,man,"minimalem,",ein,sind,ich,solch,sprudelndes,die,mit,die,das,Blut,Stimmung,ich,"Delikte,",sind,schönen,Büschel,schönen,aus,obschon,Wohnung,wurden,nicht,"Japan,",Packung,schmutziger,landen,dem,ich,vierte,mit,Büschel,,,,,,,,,,,,,,,,,,,,,,,7,0,7,0,0,4,4,4,,,,,,,space,0.821583986282,,,,2017_Jan_25_1106,59.6573294684,spr_backupper,001,Mi11,
,klassischen,serviert.,wurden,der,"reichem,",würden,von,elektrische,feinem,war,vor,noch,minimalem,feinem,"frischem,",Skandal,Wäsche.,eine,einen,salzige,mehr,Glas,liegen,350,geschleudert.,unzureichenden,kaltem,hätten,liegen,immer,noch,die,purem,künftigem,den,Lärm,die,monatlichem,weichem,Störenfriede,des,Trinkwassers.,harten,gelegentlichen,sie,ungefähr,roten,geschleudert.,um,im,roten,wurden,elektrischer,Krams,deren,350,täglichem,was,"Zeit,",Kram,Lärm,einem,Skandals,"nachgewiesen,",hat,eine,sauberen,Glas,auf,leider,unzureichenden,Trinkwasser.,Störenfriede,einem,Tiere,Auto,hat,ziemlich,leider,derer,auf,Wetters,frischen,Wetter,seltenem,sie,des,serviert.,am,die,salziger,Wäsche.,im,Mann,mehr,Bundespräsident.,zusätzlichem,frisches,,,,,,,,,,,,,,,,,,,,,,,7,0,7,0,0,5,5,5,,,,,,,space,0.772109031677,,,,2017_Jan_25_1106,59.6573294684,spr_backupper,001,Mi11,
,Schmuck,nan,verschrottet.,Soldaten,goldenen,seiner,den,Energie.,Kunsteis,aus,Dezember,eine,täglichen,dichten,kaltem,wiedergewählt.,nan,große,Besucher.,Wurst,als,köstlichen,die,ml,nan,Helmen,Abduschen,seiner,die,ruhig,eine,Stimmung,Alkohol,Einkommen,Soldaten,um,Flut,Taschengeld,Untergrund,jeden.,Herrn,nan,Schaumstoff,Besucher.,defekt,drei,Planeten,nan,die,Müll.,Planet,verschrottet.,Energie.,aus,sie,ml,grünen,Tupperware,um,aus,um,Esslöffel,wiedergewählt.,dass,den,große,Kraftstoff,köstlicher,jeden,nichts,Helmen,nan,jeden.,Esslöffel,artgerecht,mehr,den,"vermiest,",nichts,sie,jeden,die,Grases,die,dichten,defekt,Herrn,nan,Hauptbahnhof.,er,Wurst,nan,Müll.,mehr,als,nan,schwarzem,Gras,,,,,,,,,,,,,,,,,,,,,,,7,0,7,0,0,6,6,6,,,,,,,space,1.9308822155,,,,2017_Jan_25_1106,59.6573294684,spr_backupper,001,Mi11,
,,,,,,,,,,,,,,,,,,,,,,,,,,,,,,,,,,,,,,,,,,,,,,,,,,,,,,,,,,,,,,,,,,,,,,,,,,,,,,,,,,,,,,,,,,,,,,,,,,,,,,,,,,,,,,,,,,,,,,,,,7,0,7,0,,,,,,,,,,,,,None,n,2.98186016083,2017_Jan_25_1106,59.6573294684,spr_backupper,001,Mi11,
,Die,Beträchtliche,Die,Bei,Das,Die,In,Die,Die,Die,Unter,Sie,Ihr,Er,Sie,Er,Dort,Mit,Wir,Ich,In,Bei,Am,In,Es,Die,Die,Die,Am,Fernab,Sie,Dass,Die,Manche,Bei,Man,Als,Jugendliche,Jungtiere,Außer,Die,Sie,Alle,Wir,Die,Der,Im,Es,In,Viele,Im,Die,Die,Wir,Es,In,Ich,Die,Jetzt,Wir,Man,Er,Er,In,Nicht,Mit,Wir,Bei,100,Außer,Die,Sie,Außer,Er,In,Wir,Nicht,Es,Außer,Es,100,Sie,Wir,Sie,Danach,Die,Die,Beträchtliche,Die,Die,Ich,Dort,Viele,Wir,In,Walter,Die,Wir,,,,,,,,,,,,,,,,,,,,,,,8,0,8,0,0,0,0,0,,,,,,None,space,1.23395109177,,,,2017_Jan_25_1106,59.6573294684,spr_backupper,001,Mi11,
,Stücke,Stücke,Autos,der,Tuch,Schuhe,der,Schule,Eislaufbahnen,"Uhr,",keinen,hatte,Blutdruck,hat,haben,wurde,türmen,dieser,hatten,nehme,meinem,unserer,äußersten,den,wurden,Kinder,Formen,Schuhe,äußeren,des,hatte,es,Lösung,Kreditnehmer,der,machte,die,können,sollten,den,Gäste,verbrauchen,Betten,hatten,Uhr,Flug,Fernrohr,wurden,der,Tonnen,Fernrohr,Autos,Schule,haben,waren,den,wurde,Teilnehmerinnen,ist,haben,machte,stellt,wurde,einer,ein,dieser,konnten,unserer,g,das,Kinder,verbrauchen,dem,stellt,diesem,übergaben,ein,hat,dem,waren,g,verlassen,mussten,verlassen,wurde,Uhr,Gäste,Stücke,Linie,Uhr,nehme,türmen,Tonnen,übergaben,meinem,Scheel,müden,mussten,,,,,,,,,,,,,,,,,,,,,,,8,0,8,0,0,1,1,1,,,,,,,space,0.705032110214,,,,2017_Jan_25_1106,59.6573294684,spr_backupper,001,Mi11,
,wurden,saftiges,beider,Feier,wurde,in,Tat,verbraucht,wurden,die,Umständen,keine,kann,ein,die,trotz,sich,Methode,in,eine,Studium,Ankunft,Rand,Kakao,Eimer,fuhren,wurden,in,Rand,Rummels,keine,"regnete,",wird,sind,Feier,mal,Sonne,Kleidung,immer,Bürgermeister,suchen,60,wurden,in,schlug,zum,sahen,Eimer,Tat,gebrauchter,sahen,beider,verbraucht,jede,nur,Kakao,damals,wussten,genau,jede,mal,die,trotz,Studie,Tropfen,Methode,dann,Ankunft,braunen,Essen,fuhren,60,Bürgermeister,die,Zirkus,dem,Tropfen,uns,Essen,nur,brauner,wegen,uns,wegen,die,schlug,suchen,saftigen,101,war,eine,sich,gebrauchte,das,Studium,war,Teilnehmer,uns,,,,,,,,,,,,,,,,,,,,,,,8,0,8,0,0,2,2,2,,,,,,,space,0.672049999237,,,,2017_Jan_25_1106,59.6573294684,spr_backupper,001,Mi11,
,aus,Fleisch,beteiligten,gedachte,dann,Größe,wissen,260.000,mit,er,können,Lust,schon,Hemd,Erlebnisse,dem,Berge,kann,Dänemark,große,habe,stand,der,gehören,roter,mit,unter,Größe,der,wurde,Lust,hat,mit,mit,gedachte,wieder,"unterging,",bei,auf,beschuldigten,die,Liter,mit,Dänemark,"sporadisch,",Mond,wir,rote,wissen,Kleidung,wir,beteiligter,260.000,Menge,kleinere,gehören,schnell,überwiegend,die,Menge,wieder,Masse,des,wurde,königlichen,kann,mit,stand,Zuckers,kann,mit,Liter,beschuldigten,Masse,werden,Mann,königliches,die,kann,kleinere,Zucker,des,durch,dem,Leinwand,"sporadisch,",die,Fleischs,hält,aus,große,Berge,Kleidung,Auto,las,der,wurden,durch,,,,,,,,,,,,,,,,,,,,,,,8,0,8,0,0,3,3,3,,,,,,,space,0.63756108284,,,,2017_Jan_25_1106,59.6573294684,spr_backupper,001,Mi11,
,"wertvollem,",wurden,Fahrer,man,mit,36,wir,Kilowattstunden,dauerhaftem,"trug,",Neuwahlen,auf,bei,aus,bei,bekannten,schmutzige,man,gelegentlich,Packung,ich,ein,Stadt,immer,Farbe,solchen,"regelmäßigem,",36,Stadt,schon,auf,uns,"reichlichem,","sämtlichem,",man,viel,war,ausreichendem,warmem,die,Wohnung,sprudelnden,"üblichem,",einen,obwohl,dauerte,den,Farbe,wir,landen,den,Fahrer,Kilowattstunden,alten,"Delikte,",immer,dank,"nicht,",richtige,alten,viel,mit,bekannten,jetzt,Bluts,man,"minimalem,",ein,sind,ich,solch,sprudelndes,die,mit,die,das,Blut,Stimmung,ich,"Delikte,",sind,schönen,Büschel,schönen,aus,obschon,Wohnung,wurden,nicht,"Japan,",Packung,schmutziger,landen,dem,ich,vierte,mit,Büschel,,,,,,,,,,,,,,,,,,,,,,,8,0,8,0,0,4,4,4,,,,,,,space,1.39027094841,,,,2017_Jan_25_1106,59.6573294684,spr_backupper,001,Mi11,
,klassischen,serviert.,wurden,der,"reichem,",würden,von,elektrische,feinem,war,vor,noch,minimalem,feinem,"frischem,",Skandal,Wäsche.,eine,einen,salzige,mehr,Glas,liegen,350,geschleudert.,unzureichenden,kaltem,hätten,liegen,immer,noch,die,purem,künftigem,den,Lärm,die,monatlichem,weichem,Störenfriede,des,Trinkwassers.,harten,gelegentlichen,sie,ungefähr,roten,geschleudert.,um,im,roten,wurden,elektrischer,Krams,deren,350,täglichem,was,"Zeit,",Kram,Lärm,einem,Skandals,"nachgewiesen,",hat,eine,sauberen,Glas,auf,leider,unzureichenden,Trinkwasser.,Störenfriede,einem,Tiere,Auto,hat,ziemlich,leider,derer,auf,Wetters,frischen,Wetter,seltenem,sie,des,serviert.,am,die,salziger,Wäsche.,im,Mann,mehr,Bundespräsident.,zusätzlichem,frisches,,,,,,,,,,,,,,,,,,,,,,,8,0,8,0,0,5,5,5,,,,,,,space,1.17079401016,,,,2017_Jan_25_1106,59.6573294684,spr_backupper,001,Mi11,
,,,,,,,,,,,,,,,,,,,,,,,,,,,,,,,,,,,,,,,,,,,,,,,,,,,,,,,,,,,,,,,,,,,,,,,,,,,,,,,,,,,,,,,,,,,,,,,,,,,,,,,,,,,,,,,,,,,,,,,,,8,0,8,0,,,,,,,,,,,,,None,n,3.43488717079,2017_Jan_25_1106,59.6573294684,spr_backupper,001,Mi11,
,Die,Beträchtliche,Die,Bei,Das,Die,In,Die,Die,Die,Unter,Sie,Ihr,Er,Sie,Er,Dort,Mit,Wir,Ich,In,Bei,Am,In,Es,Die,Die,Die,Am,Fernab,Sie,Dass,Die,Manche,Bei,Man,Als,Jugendliche,Jungtiere,Außer,Die,Sie,Alle,Wir,Die,Der,Im,Es,In,Viele,Im,Die,Die,Wir,Es,In,Ich,Die,Jetzt,Wir,Man,Er,Er,In,Nicht,Mit,Wir,Bei,100,Außer,Die,Sie,Außer,Er,In,Wir,Nicht,Es,Außer,Es,100,Sie,Wir,Sie,Danach,Die,Die,Beträchtliche,Die,Die,Ich,Dort,Viele,Wir,In,Walter,Die,Wir,,,,,,,,,,,,,,,,,,,,,,,9,0,9,0,0,0,0,0,,,,,,None,space,0.854176998138,,,,2017_Jan_25_1106,59.6573294684,spr_backupper,001,Mi11,
,Stücke,Stücke,Autos,der,Tuch,Schuhe,der,Schule,Eislaufbahnen,"Uhr,",keinen,hatte,Blutdruck,hat,haben,wurde,türmen,dieser,hatten,nehme,meinem,unserer,äußersten,den,wurden,Kinder,Formen,Schuhe,äußeren,des,hatte,es,Lösung,Kreditnehmer,der,machte,die,können,sollten,den,Gäste,verbrauchen,Betten,hatten,Uhr,Flug,Fernrohr,wurden,der,Tonnen,Fernrohr,Autos,Schule,haben,waren,den,wurde,Teilnehmerinnen,ist,haben,machte,stellt,wurde,einer,ein,dieser,konnten,unserer,g,das,Kinder,verbrauchen,dem,stellt,diesem,übergaben,ein,hat,dem,waren,g,verlassen,mussten,verlassen,wurde,Uhr,Gäste,Stücke,Linie,Uhr,nehme,türmen,Tonnen,übergaben,meinem,Scheel,müden,mussten,,,,,,,,,,,,,,,,,,,,,,,9,0,9,0,0,1,1,1,,,,,,,space,2.76071405411,,,,2017_Jan_25_1106,59.6573294684,spr_backupper,001,Mi11,
,wurden,saftiges,beider,Feier,wurde,in,Tat,verbraucht,wurden,die,Umständen,keine,kann,ein,die,trotz,sich,Methode,in,eine,Studium,Ankunft,Rand,Kakao,Eimer,fuhren,wurden,in,Rand,Rummels,keine,"regnete,",wird,sind,Feier,mal,Sonne,Kleidung,immer,Bürgermeister,suchen,60,wurden,in,schlug,zum,sahen,Eimer,Tat,gebrauchter,sahen,beider,verbraucht,jede,nur,Kakao,damals,wussten,genau,jede,mal,die,trotz,Studie,Tropfen,Methode,dann,Ankunft,braunen,Essen,fuhren,60,Bürgermeister,die,Zirkus,dem,Tropfen,uns,Essen,nur,brauner,wegen,uns,wegen,die,schlug,suchen,saftigen,101,war,eine,sich,gebrauchte,das,Studium,war,Teilnehmer,uns,,,,,,,,,,,,,,,,,,,,,,,9,0,9,0,0,2,2,2,,,,,,,space,0.672053098679,,,,2017_Jan_25_1106,59.6573294684,spr_backupper,001,Mi11,
,aus,Fleisch,beteiligten,gedachte,dann,Größe,wissen,260.000,mit,er,können,Lust,schon,Hemd,Erlebnisse,dem,Berge,kann,Dänemark,große,habe,stand,der,gehören,roter,mit,unter,Größe,der,wurde,Lust,hat,mit,mit,gedachte,wieder,"unterging,",bei,auf,beschuldigten,die,Liter,mit,Dänemark,"sporadisch,",Mond,wir,rote,wissen,Kleidung,wir,beteiligter,260.000,Menge,kleinere,gehören,schnell,überwiegend,die,Menge,wieder,Masse,des,wurde,königlichen,kann,mit,stand,Zuckers,kann,mit,Liter,beschuldigten,Masse,werden,Mann,königliches,die,kann,kleinere,Zucker,des,durch,dem,Leinwand,"sporadisch,",die,Fleischs,hält,aus,große,Berge,Kleidung,Auto,las,der,wurden,durch,,,,,,,,,,,,,,,,,,,,,,,9,0,9,0,0,3,3,3,,,,,,,space,0.795722007751,,,,2017_Jan_25_1106,59.6573294684,spr_backupper,001,Mi11,
,"wertvollem,",wurden,Fahrer,man,mit,36,wir,Kilowattstunden,dauerhaftem,"trug,",Neuwahlen,auf,bei,aus,bei,bekannten,schmutzige,man,gelegentlich,Packung,ich,ein,Stadt,immer,Farbe,solchen,"regelmäßigem,",36,Stadt,schon,auf,uns,"reichlichem,","sämtlichem,",man,viel,war,ausreichendem,warmem,die,Wohnung,sprudelnden,"üblichem,",einen,obwohl,dauerte,den,Farbe,wir,landen,den,Fahrer,Kilowattstunden,alten,"Delikte,",immer,dank,"nicht,",richtige,alten,viel,mit,bekannten,jetzt,Bluts,man,"minimalem,",ein,sind,ich,solch,sprudelndes,die,mit,die,das,Blut,Stimmung,ich,"Delikte,",sind,schönen,Büschel,schönen,aus,obschon,Wohnung,wurden,nicht,"Japan,",Packung,schmutziger,landen,dem,ich,vierte,mit,Büschel,,,,,,,,,,,,,,,,,,,,,,,9,0,9,0,0,4,4,4,,,,,,,space,0.569552898407,,,,2017_Jan_25_1106,59.6573294684,spr_backupper,001,Mi11,
,klassischen,serviert.,wurden,der,"reichem,",würden,von,elektrische,feinem,war,vor,noch,minimalem,feinem,"frischem,",Skandal,Wäsche.,eine,einen,salzige,mehr,Glas,liegen,350,geschleudert.,unzureichenden,kaltem,hätten,liegen,immer,noch,die,purem,künftigem,den,Lärm,die,monatlichem,weichem,Störenfriede,des,Trinkwassers.,harten,gelegentlichen,sie,ungefähr,roten,geschleudert.,um,im,roten,wurden,elektrischer,Krams,deren,350,täglichem,was,"Zeit,",Kram,Lärm,einem,Skandals,"nachgewiesen,",hat,eine,sauberen,Glas,auf,leider,unzureichenden,Trinkwasser.,Störenfriede,einem,Tiere,Auto,hat,ziemlich,leider,derer,auf,Wetters,frischen,Wetter,seltenem,sie,des,serviert.,am,die,salziger,Wäsche.,im,Mann,mehr,Bundespräsident.,zusätzlichem,frisches,,,,,,,,,,,,,,,,,,,,,,,9,0,9,0,0,5,5,5,,,,,,,space,0.915636062622,,,,2017_Jan_25_1106,59.6573294684,spr_backupper,001,Mi11,
,Schmuck,nan,verschrottet.,Soldaten,goldenen,seiner,den,Energie.,Kunsteis,aus,Dezember,eine,täglichen,dichten,kaltem,wiedergewählt.,nan,große,Besucher.,Wurst,als,köstlichen,die,ml,nan,Helmen,Abduschen,seiner,die,ruhig,eine,Stimmung,Alkohol,Einkommen,Soldaten,um,Flut,Taschengeld,Untergrund,jeden.,Herrn,nan,Schaumstoff,Besucher.,defekt,drei,Planeten,nan,die,Müll.,Planet,verschrottet.,Energie.,aus,sie,ml,grünen,Tupperware,um,aus,um,Esslöffel,wiedergewählt.,dass,den,große,Kraftstoff,köstlicher,jeden,nichts,Helmen,nan,jeden.,Esslöffel,artgerecht,mehr,den,"vermiest,",nichts,sie,jeden,die,Grases,die,dichten,defekt,Herrn,nan,Hauptbahnhof.,er,Wurst,nan,Müll.,mehr,als,nan,schwarzem,Gras,,,,,,,,,,,,,,,,,,,,,,,9,0,9,0,0,6,6,6,,,,,,,space,0.648020982742,,,,2017_Jan_25_1106,59.6573294684,spr_backupper,001,Mi11,
,umgearbeitet.,nan,nan,des,Besatz,Frau,Problemen,nan,eingesprüht.,Japan.,stattfinden.,Sammlung,Einsatz,Stoff,Saft,nan,nan,Menge,nan,mit,einmal,Weins,Slums.,warme,nan,zur,gehärtet.,Frau,Slums.,diskutiert.,Sammlung,ziemlich,verdünnt.,haftbar.,des,jede,zurückgekehrt.,selber,liegen.,nan,Gantenbeins.,nan,gefertigt.,nan,war.,Tage.,ganz,nan,Probleme,nan,ganz,nan,nan,dem,überführt,warmer,Tee,ist.,Nadelhölzer,dem,jede,warmen,nan,das,Boden,Menge,fahren.,Wein,Fall,mitbringen.,zur,nan,nan,warmem,gehalten.,als,Boden,dass,mitbringen.,überführt,Fall,Wohnung.,zwängen.,Wohnung.,Gewebe,war.,Gantenbein.,nan,nan,trug.,mit,nan,nan,als,einmal,nan,Kaffee,zwängen.,,,,,,,,,,,,,,,,,,,,,,,9,0,9,0,0,7,7,7,,,,,,,space,0.663601160049,,,,2017_Jan_25_1106,59.6573294684,spr_backupper,001,Mi11,
,nan,nan,nan,zweiten,rekonstruiert.,gepasst,im,nan,nan,nan,nan,dumme,sinken.,gefertigt.,besprochen.,nan,nan,dunkler,nan,an,Rilke,schon,nan,Milch.,nan,Schule.,nan,gepasst.,nan,nan,dummer,vermiest.,nan,nan,zweiten,Menge,nan,kaufen.,nan,nan,nan,nan,nan,nan,nan,nan,deutlich.,nan,im,nan,deutlich.,nan,nan,Haus,wurden.,Milch.,wieder,nan,umzusetzen.,Haus,Menge,Honigs,nan,Medikament,berührt.,dunkle,nan,schon,genug.,nan,Schule.,nan,nan,Honig,nan,gerne.,berührt.,es,nan,wurden.,genug.,nan,nan,nan,wiederhergestellt.,nan,nan,nan,nan,nan,an,nan,nan,gerne.,Rilke.,nan,wiederbelebt.,nan,,,,,,,,,,,,,,,,,,,,,,,9,0,9,0,0,8,8,8,,,,,,,space,1.33511805534,,,,2017_Jan_25_1106,59.6573294684,spr_backupper,001,Mi11,
,,,,,,,,,,,,,,,,,,,,,,,,,,,,,,,,,,,,,,,,,,,,,,,,,,,,,,,,,,,,,,,,,,,,,,,,,,,,,,,,,,,,,,,,,,,,,,,,,,,,,,,,,,,,,,,,,,,,,,,,,9,0,9,0,,,,,,,,,,,,,None,j,4.00534701347,2017_Jan_25_1106,59.6573294684,spr_backupper,001,Mi11,
,Die,Beträchtliche,Die,Bei,Das,Die,In,Die,Die,Die,Unter,Sie,Ihr,Er,Sie,Er,Dort,Mit,Wir,Ich,In,Bei,Am,In,Es,Die,Die,Die,Am,Fernab,Sie,Dass,Die,Manche,Bei,Man,Als,Jugendliche,Jungtiere,Außer,Die,Sie,Alle,Wir,Die,Der,Im,Es,In,Viele,Im,Die,Die,Wir,Es,In,Ich,Die,Jetzt,Wir,Man,Er,Er,In,Nicht,Mit,Wir,Bei,100,Außer,Die,Sie,Außer,Er,In,Wir,Nicht,Es,Außer,Es,100,Sie,Wir,Sie,Danach,Die,Die,Beträchtliche,Die,Die,Ich,Dort,Viele,Wir,In,Walter,Die,Wir,,,,,,,,,,,,,,,,,,,,,,,10,0,10,0,0,0,0,0,,,,,,None,space,0.896265029907,,,,2017_Jan_25_1106,59.6573294684,spr_backupper,001,Mi11,
,Stücke,Stücke,Autos,der,Tuch,Schuhe,der,Schule,Eislaufbahnen,"Uhr,",keinen,hatte,Blutdruck,hat,haben,wurde,türmen,dieser,hatten,nehme,meinem,unserer,äußersten,den,wurden,Kinder,Formen,Schuhe,äußeren,des,hatte,es,Lösung,Kreditnehmer,der,machte,die,können,sollten,den,Gäste,verbrauchen,Betten,hatten,Uhr,Flug,Fernrohr,wurden,der,Tonnen,Fernrohr,Autos,Schule,haben,waren,den,wurde,Teilnehmerinnen,ist,haben,machte,stellt,wurde,einer,ein,dieser,konnten,unserer,g,das,Kinder,verbrauchen,dem,stellt,diesem,übergaben,ein,hat,dem,waren,g,verlassen,mussten,verlassen,wurde,Uhr,Gäste,Stücke,Linie,Uhr,nehme,türmen,Tonnen,übergaben,meinem,Scheel,müden,mussten,,,,,,,,,,,,,,,,,,,,,,,10,0,10,0,0,1,1,1,,,,,,,space,0.690171003342,,,,2017_Jan_25_1106,59.6573294684,spr_backupper,001,Mi11,
,wurden,saftiges,beider,Feier,wurde,in,Tat,verbraucht,wurden,die,Umständen,keine,kann,ein,die,trotz,sich,Methode,in,eine,Studium,Ankunft,Rand,Kakao,Eimer,fuhren,wurden,in,Rand,Rummels,keine,"regnete,",wird,sind,Feier,mal,Sonne,Kleidung,immer,Bürgermeister,suchen,60,wurden,in,schlug,zum,sahen,Eimer,Tat,gebrauchter,sahen,beider,verbraucht,jede,nur,Kakao,damals,wussten,genau,jede,mal,die,trotz,Studie,Tropfen,Methode,dann,Ankunft,braunen,Essen,fuhren,60,Bürgermeister,die,Zirkus,dem,Tropfen,uns,Essen,nur,brauner,wegen,uns,wegen,die,schlug,suchen,saftigen,101,war,eine,sich,gebrauchte,das,Studium,war,Teilnehmer,uns,,,,,,,,,,,,,,,,,,,,,,,10,0,10,0,0,2,2,2,,,,,,,space,0.500951051712,,,,2017_Jan_25_1106,59.6573294684,spr_backupper,001,Mi11,
,aus,Fleisch,beteiligten,gedachte,dann,Größe,wissen,260.000,mit,er,können,Lust,schon,Hemd,Erlebnisse,dem,Berge,kann,Dänemark,große,habe,stand,der,gehören,roter,mit,unter,Größe,der,wurde,Lust,hat,mit,mit,gedachte,wieder,"unterging,",bei,auf,beschuldigten,die,Liter,mit,Dänemark,"sporadisch,",Mond,wir,rote,wissen,Kleidung,wir,beteiligter,260.000,Menge,kleinere,gehören,schnell,überwiegend,die,Menge,wieder,Masse,des,wurde,königlichen,kann,mit,stand,Zuckers,kann,mit,Liter,beschuldigten,Masse,werden,Mann,königliches,die,kann,kleinere,Zucker,des,durch,dem,Leinwand,"sporadisch,",die,Fleischs,hält,aus,große,Berge,Kleidung,Auto,las,der,wurden,durch,,,,,,,,,,,,,,,,,,,,,,,10,0,10,0,0,3,3,3,,,,,,,space,0.487076997757,,,,2017_Jan_25_1106,59.6573294684,spr_backupper,001,Mi11,
,"wertvollem,",wurden,Fahrer,man,mit,36,wir,Kilowattstunden,dauerhaftem,"trug,",Neuwahlen,auf,bei,aus,bei,bekannten,schmutzige,man,gelegentlich,Packung,ich,ein,Stadt,immer,Farbe,solchen,"regelmäßigem,",36,Stadt,schon,auf,uns,"reichlichem,","sämtlichem,",man,viel,war,ausreichendem,warmem,die,Wohnung,sprudelnden,"üblichem,",einen,obwohl,dauerte,den,Farbe,wir,landen,den,Fahrer,Kilowattstunden,alten,"Delikte,",immer,dank,"nicht,",richtige,alten,viel,mit,bekannten,jetzt,Bluts,man,"minimalem,",ein,sind,ich,solch,sprudelndes,die,mit,die,das,Blut,Stimmung,ich,"Delikte,",sind,schönen,Büschel,schönen,aus,obschon,Wohnung,wurden,nicht,"Japan,",Packung,schmutziger,landen,dem,ich,vierte,mit,Büschel,,,,,,,,,,,,,,,,,,,,,,,10,0,10,0,0,4,4,4,,,,,,,space,0.493294000626,,,,2017_Jan_25_1106,59.6573294684,spr_backupper,001,Mi11,
,klassischen,serviert.,wurden,der,"reichem,",würden,von,elektrische,feinem,war,vor,noch,minimalem,feinem,"frischem,",Skandal,Wäsche.,eine,einen,salzige,mehr,Glas,liegen,350,geschleudert.,unzureichenden,kaltem,hätten,liegen,immer,noch,die,purem,künftigem,den,Lärm,die,monatlichem,weichem,Störenfriede,des,Trinkwassers.,harten,gelegentlichen,sie,ungefähr,roten,geschleudert.,um,im,roten,wurden,elektrischer,Krams,deren,350,täglichem,was,"Zeit,",Kram,Lärm,einem,Skandals,"nachgewiesen,",hat,eine,sauberen,Glas,auf,leider,unzureichenden,Trinkwasser.,Störenfriede,einem,Tiere,Auto,hat,ziemlich,leider,derer,auf,Wetters,frischen,Wetter,seltenem,sie,des,serviert.,am,die,salziger,Wäsche.,im,Mann,mehr,Bundespräsident.,zusätzlichem,frisches,,,,,,,,,,,,,,,,,,,,,,,10,0,10,0,0,5,5,5,,,,,,,space,0.622117996216,,,,2017_Jan_25_1106,59.6573294684,spr_backupper,001,Mi11,
,Schmuck,nan,verschrottet.,Soldaten,goldenen,seiner,den,Energie.,Kunsteis,aus,Dezember,eine,täglichen,dichten,kaltem,wiedergewählt.,nan,große,Besucher.,Wurst,als,köstlichen,die,ml,nan,Helmen,Abduschen,seiner,die,ruhig,eine,Stimmung,Alkohol,Einkommen,Soldaten,um,Flut,Taschengeld,Untergrund,jeden.,Herrn,nan,Schaumstoff,Besucher.,defekt,drei,Planeten,nan,die,Müll.,Planet,verschrottet.,Energie.,aus,sie,ml,grünen,Tupperware,um,aus,um,Esslöffel,wiedergewählt.,dass,den,große,Kraftstoff,köstlicher,jeden,nichts,Helmen,nan,jeden.,Esslöffel,artgerecht,mehr,den,"vermiest,",nichts,sie,jeden,die,Grases,die,dichten,defekt,Herrn,nan,Hauptbahnhof.,er,Wurst,nan,Müll.,mehr,als,nan,schwarzem,Gras,,,,,,,,,,,,,,,,,,,,,,,10,0,10,0,0,6,6,6,,,,,,,space,0.561622142792,,,,2017_Jan_25_1106,59.6573294684,spr_backupper,001,Mi11,
,umgearbeitet.,nan,nan,des,Besatz,Frau,Problemen,nan,eingesprüht.,Japan.,stattfinden.,Sammlung,Einsatz,Stoff,Saft,nan,nan,Menge,nan,mit,einmal,Weins,Slums.,warme,nan,zur,gehärtet.,Frau,Slums.,diskutiert.,Sammlung,ziemlich,verdünnt.,haftbar.,des,jede,zurückgekehrt.,selber,liegen.,nan,Gantenbeins.,nan,gefertigt.,nan,war.,Tage.,ganz,nan,Probleme,nan,ganz,nan,nan,dem,überführt,warmer,Tee,ist.,Nadelhölzer,dem,jede,warmen,nan,das,Boden,Menge,fahren.,Wein,Fall,mitbringen.,zur,nan,nan,warmem,gehalten.,als,Boden,dass,mitbringen.,überführt,Fall,Wohnung.,zwängen.,Wohnung.,Gewebe,war.,Gantenbein.,nan,nan,trug.,mit,nan,nan,als,einmal,nan,Kaffee,zwängen.,,,,,,,,,,,,,,,,,,,,,,,10,0,10,0,0,7,7,7,,,,,,,space,0.939893007278,,,,2017_Jan_25_1106,59.6573294684,spr_backupper,001,Mi11,
,,,,,,,,,,,,,,,,,,,,,,,,,,,,,,,,,,,,,,,,,,,,,,,,,,,,,,,,,,,,,,,,,,,,,,,,,,,,,,,,,,,,,,,,,,,,,,,,,,,,,,,,,,,,,,,,,,,,,,,,,10,0,10,0,,,,,,,,,,,,,None,j,3.78718614578,2017_Jan_25_1106,59.6573294684,spr_backupper,001,Mi11,
,Die,Beträchtliche,Die,Bei,Das,Die,In,Die,Die,Die,Unter,Sie,Ihr,Er,Sie,Er,Dort,Mit,Wir,Ich,In,Bei,Am,In,Es,Die,Die,Die,Am,Fernab,Sie,Dass,Die,Manche,Bei,Man,Als,Jugendliche,Jungtiere,Außer,Die,Sie,Alle,Wir,Die,Der,Im,Es,In,Viele,Im,Die,Die,Wir,Es,In,Ich,Die,Jetzt,Wir,Man,Er,Er,In,Nicht,Mit,Wir,Bei,100,Außer,Die,Sie,Außer,Er,In,Wir,Nicht,Es,Außer,Es,100,Sie,Wir,Sie,Danach,Die,Die,Beträchtliche,Die,Die,Ich,Dort,Viele,Wir,In,Walter,Die,Wir,,,,,,,,,,,,,,,,,,,,,,,11,0,11,0,0,0,0,0,,,,,,None,space,2.60175204277,,,,2017_Jan_25_1106,59.6573294684,spr_backupper,001,Mi11,
,Stücke,Stücke,Autos,der,Tuch,Schuhe,der,Schule,Eislaufbahnen,"Uhr,",keinen,hatte,Blutdruck,hat,haben,wurde,türmen,dieser,hatten,nehme,meinem,unserer,äußersten,den,wurden,Kinder,Formen,Schuhe,äußeren,des,hatte,es,Lösung,Kreditnehmer,der,machte,die,können,sollten,den,Gäste,verbrauchen,Betten,hatten,Uhr,Flug,Fernrohr,wurden,der,Tonnen,Fernrohr,Autos,Schule,haben,waren,den,wurde,Teilnehmerinnen,ist,haben,machte,stellt,wurde,einer,ein,dieser,konnten,unserer,g,das,Kinder,verbrauchen,dem,stellt,diesem,übergaben,ein,hat,dem,waren,g,verlassen,mussten,verlassen,wurde,Uhr,Gäste,Stücke,Linie,Uhr,nehme,türmen,Tonnen,übergaben,meinem,Scheel,müden,mussten,,,,,,,,,,,,,,,,,,,,,,,11,0,11,0,0,1,1,1,,,,,,,space,2.35187983513,,,,2017_Jan_25_1106,59.6573294684,spr_backupper,001,Mi11,
,wurden,saftiges,beider,Feier,wurde,in,Tat,verbraucht,wurden,die,Umständen,keine,kann,ein,die,trotz,sich,Methode,in,eine,Studium,Ankunft,Rand,Kakao,Eimer,fuhren,wurden,in,Rand,Rummels,keine,"regnete,",wird,sind,Feier,mal,Sonne,Kleidung,immer,Bürgermeister,suchen,60,wurden,in,schlug,zum,sahen,Eimer,Tat,gebrauchter,sahen,beider,verbraucht,jede,nur,Kakao,damals,wussten,genau,jede,mal,die,trotz,Studie,Tropfen,Methode,dann,Ankunft,braunen,Essen,fuhren,60,Bürgermeister,die,Zirkus,dem,Tropfen,uns,Essen,nur,brauner,wegen,uns,wegen,die,schlug,suchen,saftigen,101,war,eine,sich,gebrauchte,das,Studium,war,Teilnehmer,uns,,,,,,,,,,,,,,,,,,,,,,,11,0,11,0,0,2,2,2,,,,,,,space,0.543825149536,,,,2017_Jan_25_1106,59.6573294684,spr_backupper,001,Mi11,
,aus,Fleisch,beteiligten,gedachte,dann,Größe,wissen,260.000,mit,er,können,Lust,schon,Hemd,Erlebnisse,dem,Berge,kann,Dänemark,große,habe,stand,der,gehören,roter,mit,unter,Größe,der,wurde,Lust,hat,mit,mit,gedachte,wieder,"unterging,",bei,auf,beschuldigten,die,Liter,mit,Dänemark,"sporadisch,",Mond,wir,rote,wissen,Kleidung,wir,beteiligter,260.000,Menge,kleinere,gehören,schnell,überwiegend,die,Menge,wieder,Masse,des,wurde,königlichen,kann,mit,stand,Zuckers,kann,mit,Liter,beschuldigten,Masse,werden,Mann,königliches,die,kann,kleinere,Zucker,des,durch,dem,Leinwand,"sporadisch,",die,Fleischs,hält,aus,große,Berge,Kleidung,Auto,las,der,wurden,durch,,,,,,,,,,,,,,,,,,,,,,,11,0,11,0,0,3,3,3,,,,,,,space,0.429176092148,,,,2017_Jan_25_1106,59.6573294684,spr_backupper,001,Mi11,
,"wertvollem,",wurden,Fahrer,man,mit,36,wir,Kilowattstunden,dauerhaftem,"trug,",Neuwahlen,auf,bei,aus,bei,bekannten,schmutzige,man,gelegentlich,Packung,ich,ein,Stadt,immer,Farbe,solchen,"regelmäßigem,",36,Stadt,schon,auf,uns,"reichlichem,","sämtlichem,",man,viel,war,ausreichendem,warmem,die,Wohnung,sprudelnden,"üblichem,",einen,obwohl,dauerte,den,Farbe,wir,landen,den,Fahrer,Kilowattstunden,alten,"Delikte,",immer,dank,"nicht,",richtige,alten,viel,mit,bekannten,jetzt,Bluts,man,"minimalem,",ein,sind,ich,solch,sprudelndes,die,mit,die,das,Blut,Stimmung,ich,"Delikte,",sind,schönen,Büschel,schönen,aus,obschon,Wohnung,wurden,nicht,"Japan,",Packung,schmutziger,landen,dem,ich,vierte,mit,Büschel,,,,,,,,,,,,,,,,,,,,,,,11,0,11,0,0,4,4,4,,,,,,,space,0.363175153732,,,,2017_Jan_25_1106,59.6573294684,spr_backupper,001,Mi11,
,klassischen,serviert.,wurden,der,"reichem,",würden,von,elektrische,feinem,war,vor,noch,minimalem,feinem,"frischem,",Skandal,Wäsche.,eine,einen,salzige,mehr,Glas,liegen,350,geschleudert.,unzureichenden,kaltem,hätten,liegen,immer,noch,die,purem,künftigem,den,Lärm,die,monatlichem,weichem,Störenfriede,des,Trinkwassers.,harten,gelegentlichen,sie,ungefähr,roten,geschleudert.,um,im,roten,wurden,elektrischer,Krams,deren,350,täglichem,was,"Zeit,",Kram,Lärm,einem,Skandals,"nachgewiesen,",hat,eine,sauberen,Glas,auf,leider,unzureichenden,Trinkwasser.,Störenfriede,einem,Tiere,Auto,hat,ziemlich,leider,derer,auf,Wetters,frischen,Wetter,seltenem,sie,des,serviert.,am,die,salziger,Wäsche.,im,Mann,mehr,Bundespräsident.,zusätzlichem,frisches,,,,,,,,,,,,,,,,,,,,,,,11,0,11,0,0,5,5,5,,,,,,,space,0.419476032257,,,,2017_Jan_25_1106,59.6573294684,spr_backupper,001,Mi11,
,Schmuck,nan,verschrottet.,Soldaten,goldenen,seiner,den,Energie.,Kunsteis,aus,Dezember,eine,täglichen,dichten,kaltem,wiedergewählt.,nan,große,Besucher.,Wurst,als,köstlichen,die,ml,nan,Helmen,Abduschen,seiner,die,ruhig,eine,Stimmung,Alkohol,Einkommen,Soldaten,um,Flut,Taschengeld,Untergrund,jeden.,Herrn,nan,Schaumstoff,Besucher.,defekt,drei,Planeten,nan,die,Müll.,Planet,verschrottet.,Energie.,aus,sie,ml,grünen,Tupperware,um,aus,um,Esslöffel,wiedergewählt.,dass,den,große,Kraftstoff,köstlicher,jeden,nichts,Helmen,nan,jeden.,Esslöffel,artgerecht,mehr,den,"vermiest,",nichts,sie,jeden,die,Grases,die,dichten,defekt,Herrn,nan,Hauptbahnhof.,er,Wurst,nan,Müll.,mehr,als,nan,schwarzem,Gras,,,,,,,,,,,,,,,,,,,,,,,11,0,11,0,0,6,6,6,,,,,,,space,0.821999073029,,,,2017_Jan_25_1106,59.6573294684,spr_backupper,001,Mi11,
,umgearbeitet.,nan,nan,des,Besatz,Frau,Problemen,nan,eingesprüht.,Japan.,stattfinden.,Sammlung,Einsatz,Stoff,Saft,nan,nan,Menge,nan,mit,einmal,Weins,Slums.,warme,nan,zur,gehärtet.,Frau,Slums.,diskutiert.,Sammlung,ziemlich,verdünnt.,haftbar.,des,jede,zurückgekehrt.,selber,liegen.,nan,Gantenbeins.,nan,gefertigt.,nan,war.,Tage.,ganz,nan,Probleme,nan,ganz,nan,nan,dem,überführt,warmer,Tee,ist.,Nadelhölzer,dem,jede,warmen,nan,das,Boden,Menge,fahren.,Wein,Fall,mitbringen.,zur,nan,nan,warmem,gehalten.,als,Boden,dass,mitbringen.,überführt,Fall,Wohnung.,zwängen.,Wohnung.,Gewebe,war.,Gantenbein.,nan,nan,trug.,mit,nan,nan,als,einmal,nan,Kaffee,zwängen.,,,,,,,,,,,,,,,,,,,,,,,11,0,11,0,0,7,7,7,,,,,,,space,0.537652015686,,,,2017_Jan_25_1106,59.6573294684,spr_backupper,001,Mi11,
,nan,nan,nan,zweiten,rekonstruiert.,gepasst,im,nan,nan,nan,nan,dumme,sinken.,gefertigt.,besprochen.,nan,nan,dunkler,nan,an,Rilke,schon,nan,Milch.,nan,Schule.,nan,gepasst.,nan,nan,dummer,vermiest.,nan,nan,zweiten,Menge,nan,kaufen.,nan,nan,nan,nan,nan,nan,nan,nan,deutlich.,nan,im,nan,deutlich.,nan,nan,Haus,wurden.,Milch.,wieder,nan,umzusetzen.,Haus,Menge,Honigs,nan,Medikament,berührt.,dunkle,nan,schon,genug.,nan,Schule.,nan,nan,Honig,nan,gerne.,berührt.,es,nan,wurden.,genug.,nan,nan,nan,wiederhergestellt.,nan,nan,nan,nan,nan,an,nan,nan,gerne.,Rilke.,nan,wiederbelebt.,nan,,,,,,,,,,,,,,,,,,,,,,,11,0,11,0,0,8,8,8,,,,,,,space,0.864794015884,,,,2017_Jan_25_1106,59.6573294684,spr_backupper,001,Mi11,
,nan,nan,nan,Weltkriegs.,nan,haben.,Landkreis.,nan,nan,nan,nan,Sprüche.,nan,nan,nan,nan,nan,Materie,nan,den,gelesen.,auf,nan,nan,nan,nan,nan,nan,nan,nan,Sprüche.,nan,nan,nan,Weltkriegs.,heiße,nan,nan,nan,nan,nan,nan,nan,nan,nan,nan,nan,nan,Landkreis.,nan,nan,nan,nan,geschafft.,nan,nan,fit.,nan,nan,geschafft.,heißer,her.,nan,nicht,nan,Materie,nan,auf,nan,nan,nan,nan,nan,her.,nan,nan,nan,regnete.,nan,nan,nan,nan,nan,nan,nan,nan,nan,nan,nan,nan,den,nan,nan,nan,nan,nan,nan,nan,,,,,,,,,,,,,,,,,,,,,,,11,0,11,0,0,9,9,9,,,,,,,space,0.964833974838,,,,2017_Jan_25_1106,59.6573294684,spr_backupper,001,Mi11,
,nan,nan,nan,nan,nan,nan,nan,nan,nan,nan,nan,nan,nan,nan,nan,nan,nan,erzeugen.,nan,See.,nan,dem,nan,nan,nan,nan,nan,nan,nan,nan,nan,nan,nan,nan,nan,Luft.,nan,nan,nan,nan,nan,nan,nan,nan,nan,nan,nan,nan,nan,nan,nan,nan,nan,nan,nan,nan,nan,nan,nan,nan,Luft.,nan,nan,wirkt.,nan,erzeugen.,nan,dem,nan,nan,nan,nan,nan,nan,nan,nan,nan,nan,nan,nan,nan,nan,nan,nan,nan,nan,nan,nan,nan,nan,See.,nan,nan,nan,nan,nan,nan,nan,,,,,,,,,,,,,,,,,,,,,,,11,0,11,0,0,10,10,10,,,,,,,space,0.359409093857,,,,2017_Jan_25_1106,59.6573294684,spr_backupper,001,Mi11,
,nan,nan,nan,nan,nan,nan,nan,nan,nan,nan,nan,nan,nan,nan,nan,nan,nan,nan,nan,nan,nan,Tisch.,nan,nan,nan,nan,nan,nan,nan,nan,nan,nan,nan,nan,nan,nan,nan,nan,nan,nan,nan,nan,nan,nan,nan,nan,nan,nan,nan,nan,nan,nan,nan,nan,nan,nan,nan,nan,nan,nan,nan,nan,nan,nan,nan,nan,nan,Tisch.,nan,nan,nan,nan,nan,nan,nan,nan,nan,nan,nan,nan,nan,nan,nan,nan,nan,nan,nan,nan,nan,nan,nan,nan,nan,nan,nan,nan,nan,nan,,,,,,,,,,,,,,,,,,,,,,,11,0,11,0,0,11,11,11,,,,,,,space,0.584634780884,,,,2017_Jan_25_1106,59.6573294684,spr_backupper,001,Mi11,
,,,,,,,,,,,,,,,,,,,,,,,,,,,,,,,,,,,,,,,,,,,,,,,,,,,,,,,,,,,,,,,,,,,,,,,,,,,,,,,,,,,,,,,,,,,,,,,,,,,,,,,,,,,,,,,,,,,,,,,,,11,0,11,0,,,,,,,,,,,,,None,n,5.57078504562,2017_Jan_25_1106,59.6573294684,spr_backupper,001,Mi11,
,Die,Beträchtliche,Die,Bei,Das,Die,In,Die,Die,Die,Unter,Sie,Ihr,Er,Sie,Er,Dort,Mit,Wir,Ich,In,Bei,Am,In,Es,Die,Die,Die,Am,Fernab,Sie,Dass,Die,Manche,Bei,Man,Als,Jugendliche,Jungtiere,Außer,Die,Sie,Alle,Wir,Die,Der,Im,Es,In,Viele,Im,Die,Die,Wir,Es,In,Ich,Die,Jetzt,Wir,Man,Er,Er,In,Nicht,Mit,Wir,Bei,100,Außer,Die,Sie,Außer,Er,In,Wir,Nicht,Es,Außer,Es,100,Sie,Wir,Sie,Danach,Die,Die,Beträchtliche,Die,Die,Ich,Dort,Viele,Wir,In,Walter,Die,Wir,,,,,,,,,,,,,,,,,,,,,,,12,0,12,0,0,0,0,0,,,,,,None,space,0.850980043411,,,,2017_Jan_25_1106,59.6573294684,spr_backupper,001,Mi11,
,Stücke,Stücke,Autos,der,Tuch,Schuhe,der,Schule,Eislaufbahnen,"Uhr,",keinen,hatte,Blutdruck,hat,haben,wurde,türmen,dieser,hatten,nehme,meinem,unserer,äußersten,den,wurden,Kinder,Formen,Schuhe,äußeren,des,hatte,es,Lösung,Kreditnehmer,der,machte,die,können,sollten,den,Gäste,verbrauchen,Betten,hatten,Uhr,Flug,Fernrohr,wurden,der,Tonnen,Fernrohr,Autos,Schule,haben,waren,den,wurde,Teilnehmerinnen,ist,haben,machte,stellt,wurde,einer,ein,dieser,konnten,unserer,g,das,Kinder,verbrauchen,dem,stellt,diesem,übergaben,ein,hat,dem,waren,g,verlassen,mussten,verlassen,wurde,Uhr,Gäste,Stücke,Linie,Uhr,nehme,türmen,Tonnen,übergaben,meinem,Scheel,müden,mussten,,,,,,,,,,,,,,,,,,,,,,,12,0,12,0,0,1,1,1,,,,,,,space,2.47711992264,,,,2017_Jan_25_1106,59.6573294684,spr_backupper,001,Mi11,
,wurden,saftiges,beider,Feier,wurde,in,Tat,verbraucht,wurden,die,Umständen,keine,kann,ein,die,trotz,sich,Methode,in,eine,Studium,Ankunft,Rand,Kakao,Eimer,fuhren,wurden,in,Rand,Rummels,keine,"regnete,",wird,sind,Feier,mal,Sonne,Kleidung,immer,Bürgermeister,suchen,60,wurden,in,schlug,zum,sahen,Eimer,Tat,gebrauchter,sahen,beider,verbraucht,jede,nur,Kakao,damals,wussten,genau,jede,mal,die,trotz,Studie,Tropfen,Methode,dann,Ankunft,braunen,Essen,fuhren,60,Bürgermeister,die,Zirkus,dem,Tropfen,uns,Essen,nur,brauner,wegen,uns,wegen,die,schlug,suchen,saftigen,101,war,eine,sich,gebrauchte,das,Studium,war,Teilnehmer,uns,,,,,,,,,,,,,,,,,,,,,,,12,0,12,0,0,2,2,2,,,,,,,space,1.54368710518,,,,2017_Jan_25_1106,59.6573294684,spr_backupper,001,Mi11,
,aus,Fleisch,beteiligten,gedachte,dann,Größe,wissen,260.000,mit,er,können,Lust,schon,Hemd,Erlebnisse,dem,Berge,kann,Dänemark,große,habe,stand,der,gehören,roter,mit,unter,Größe,der,wurde,Lust,hat,mit,mit,gedachte,wieder,"unterging,",bei,auf,beschuldigten,die,Liter,mit,Dänemark,"sporadisch,",Mond,wir,rote,wissen,Kleidung,wir,beteiligter,260.000,Menge,kleinere,gehören,schnell,überwiegend,die,Menge,wieder,Masse,des,wurde,königlichen,kann,mit,stand,Zuckers,kann,mit,Liter,beschuldigten,Masse,werden,Mann,königliches,die,kann,kleinere,Zucker,des,durch,dem,Leinwand,"sporadisch,",die,Fleischs,hält,aus,große,Berge,Kleidung,Auto,las,der,wurden,durch,,,,,,,,,,,,,,,,,,,,,,,12,0,12,0,0,3,3,3,,,,,,,space,0.973552942276,,,,2017_Jan_25_1106,59.6573294684,spr_backupper,001,Mi11,
,"wertvollem,",wurden,Fahrer,man,mit,36,wir,Kilowattstunden,dauerhaftem,"trug,",Neuwahlen,auf,bei,aus,bei,bekannten,schmutzige,man,gelegentlich,Packung,ich,ein,Stadt,immer,Farbe,solchen,"regelmäßigem,",36,Stadt,schon,auf,uns,"reichlichem,","sämtlichem,",man,viel,war,ausreichendem,warmem,die,Wohnung,sprudelnden,"üblichem,",einen,obwohl,dauerte,den,Farbe,wir,landen,den,Fahrer,Kilowattstunden,alten,"Delikte,",immer,dank,"nicht,",richtige,alten,viel,mit,bekannten,jetzt,Bluts,man,"minimalem,",ein,sind,ich,solch,sprudelndes,die,mit,die,das,Blut,Stimmung,ich,"Delikte,",sind,schönen,Büschel,schönen,aus,obschon,Wohnung,wurden,nicht,"Japan,",Packung,schmutziger,landen,dem,ich,vierte,mit,Büschel,,,,,,,,,,,,,,,,,,,,,,,12,0,12,0,0,4,4,4,,,,,,,space,0.896962165833,,,,2017_Jan_25_1106,59.6573294684,spr_backupper,001,Mi11,
,klassischen,serviert.,wurden,der,"reichem,",würden,von,elektrische,feinem,war,vor,noch,minimalem,feinem,"frischem,",Skandal,Wäsche.,eine,einen,salzige,mehr,Glas,liegen,350,geschleudert.,unzureichenden,kaltem,hätten,liegen,immer,noch,die,purem,künftigem,den,Lärm,die,monatlichem,weichem,Störenfriede,des,Trinkwassers.,harten,gelegentlichen,sie,ungefähr,roten,geschleudert.,um,im,roten,wurden,elektrischer,Krams,deren,350,täglichem,was,"Zeit,",Kram,Lärm,einem,Skandals,"nachgewiesen,",hat,eine,sauberen,Glas,auf,leider,unzureichenden,Trinkwasser.,Störenfriede,einem,Tiere,Auto,hat,ziemlich,leider,derer,auf,Wetters,frischen,Wetter,seltenem,sie,des,serviert.,am,die,salziger,Wäsche.,im,Mann,mehr,Bundespräsident.,zusätzlichem,frisches,,,,,,,,,,,,,,,,,,,,,,,12,0,12,0,0,5,5,5,,,,,,,space,0.714370965958,,,,2017_Jan_25_1106,59.6573294684,spr_backupper,001,Mi11,
,Schmuck,nan,verschrottet.,Soldaten,goldenen,seiner,den,Energie.,Kunsteis,aus,Dezember,eine,täglichen,dichten,kaltem,wiedergewählt.,nan,große,Besucher.,Wurst,als,köstlichen,die,ml,nan,Helmen,Abduschen,seiner,die,ruhig,eine,Stimmung,Alkohol,Einkommen,Soldaten,um,Flut,Taschengeld,Untergrund,jeden.,Herrn,nan,Schaumstoff,Besucher.,defekt,drei,Planeten,nan,die,Müll.,Planet,verschrottet.,Energie.,aus,sie,ml,grünen,Tupperware,um,aus,um,Esslöffel,wiedergewählt.,dass,den,große,Kraftstoff,köstlicher,jeden,nichts,Helmen,nan,jeden.,Esslöffel,artgerecht,mehr,den,"vermiest,",nichts,sie,jeden,die,Grases,die,dichten,defekt,Herrn,nan,Hauptbahnhof.,er,Wurst,nan,Müll.,mehr,als,nan,schwarzem,Gras,,,,,,,,,,,,,,,,,,,,,,,12,0,12,0,0,6,6,6,,,,,,,space,0.604823112488,,,,2017_Jan_25_1106,59.6573294684,spr_backupper,001,Mi11,
,umgearbeitet.,nan,nan,des,Besatz,Frau,Problemen,nan,eingesprüht.,Japan.,stattfinden.,Sammlung,Einsatz,Stoff,Saft,nan,nan,Menge,nan,mit,einmal,Weins,Slums.,warme,nan,zur,gehärtet.,Frau,Slums.,diskutiert.,Sammlung,ziemlich,verdünnt.,haftbar.,des,jede,zurückgekehrt.,selber,liegen.,nan,Gantenbeins.,nan,gefertigt.,nan,war.,Tage.,ganz,nan,Probleme,nan,ganz,nan,nan,dem,überführt,warmer,Tee,ist.,Nadelhölzer,dem,jede,warmen,nan,das,Boden,Menge,fahren.,Wein,Fall,mitbringen.,zur,nan,nan,warmem,gehalten.,als,Boden,dass,mitbringen.,überführt,Fall,Wohnung.,zwängen.,Wohnung.,Gewebe,war.,Gantenbein.,nan,nan,trug.,mit,nan,nan,als,einmal,nan,Kaffee,zwängen.,,,,,,,,,,,,,,,,,,,,,,,12,0,12,0,0,7,7,7,,,,,,,space,0.52513718605,,,,2017_Jan_25_1106,59.6573294684,spr_backupper,001,Mi11,
,nan,nan,nan,zweiten,rekonstruiert.,gepasst,im,nan,nan,nan,nan,dumme,sinken.,gefertigt.,besprochen.,nan,nan,dunkler,nan,an,Rilke,schon,nan,Milch.,nan,Schule.,nan,gepasst.,nan,nan,dummer,vermiest.,nan,nan,zweiten,Menge,nan,kaufen.,nan,nan,nan,nan,nan,nan,nan,nan,deutlich.,nan,im,nan,deutlich.,nan,nan,Haus,wurden.,Milch.,wieder,nan,umzusetzen.,Haus,Menge,Honigs,nan,Medikament,berührt.,dunkle,nan,schon,genug.,nan,Schule.,nan,nan,Honig,nan,gerne.,berührt.,es,nan,wurden.,genug.,nan,nan,nan,wiederhergestellt.,nan,nan,nan,nan,nan,an,nan,nan,gerne.,Rilke.,nan,wiederbelebt.,nan,,,,,,,,,,,,,,,,,,,,,,,12,0,12,0,0,8,8,8,,,,,,,space,0.704624891281,,,,2017_Jan_25_1106,59.6573294684,spr_backupper,001,Mi11,
,nan,nan,nan,Weltkriegs.,nan,haben.,Landkreis.,nan,nan,nan,nan,Sprüche.,nan,nan,nan,nan,nan,Materie,nan,den,gelesen.,auf,nan,nan,nan,nan,nan,nan,nan,nan,Sprüche.,nan,nan,nan,Weltkriegs.,heiße,nan,nan,nan,nan,nan,nan,nan,nan,nan,nan,nan,nan,Landkreis.,nan,nan,nan,nan,geschafft.,nan,nan,fit.,nan,nan,geschafft.,heißer,her.,nan,nicht,nan,Materie,nan,auf,nan,nan,nan,nan,nan,her.,nan,nan,nan,regnete.,nan,nan,nan,nan,nan,nan,nan,nan,nan,nan,nan,nan,den,nan,nan,nan,nan,nan,nan,nan,,,,,,,,,,,,,,,,,,,,,,,12,0,12,0,0,9,9,9,,,,,,,space,1.51881098747,,,,2017_Jan_25_1106,59.6573294684,spr_backupper,001,Mi11,
,,,,,,,,,,,,,,,,,,,,,,,,,,,,,,,,,,,,,,,,,,,,,,,,,,,,,,,,,,,,,,,,,,,,,,,,,,,,,,,,,,,,,,,,,,,,,,,,,,,,,,,,,,,,,,,,,,,,,,,,,12,0,12,0,,,,,,,,,,,,,None,j,9.08368301392,2017_Jan_25_1106,59.6573294684,spr_backupper,001,Mi11,
,Die,Beträchtliche,Die,Bei,Das,Die,In,Die,Die,Die,Unter,Sie,Ihr,Er,Sie,Er,Dort,Mit,Wir,Ich,In,Bei,Am,In,Es,Die,Die,Die,Am,Fernab,Sie,Dass,Die,Manche,Bei,Man,Als,Jugendliche,Jungtiere,Außer,Die,Sie,Alle,Wir,Die,Der,Im,Es,In,Viele,Im,Die,Die,Wir,Es,In,Ich,Die,Jetzt,Wir,Man,Er,Er,In,Nicht,Mit,Wir,Bei,100,Außer,Die,Sie,Außer,Er,In,Wir,Nicht,Es,Außer,Es,100,Sie,Wir,Sie,Danach,Die,Die,Beträchtliche,Die,Die,Ich,Dort,Viele,Wir,In,Walter,Die,Wir,,,,,,,,,,,,,,,,,,,,,,,13,0,13,0,0,0,0,0,,,,,,None,space,1.21067786217,,,,2017_Jan_25_1106,59.6573294684,spr_backupper,001,Mi11,
,Stücke,Stücke,Autos,der,Tuch,Schuhe,der,Schule,Eislaufbahnen,"Uhr,",keinen,hatte,Blutdruck,hat,haben,wurde,türmen,dieser,hatten,nehme,meinem,unserer,äußersten,den,wurden,Kinder,Formen,Schuhe,äußeren,des,hatte,es,Lösung,Kreditnehmer,der,machte,die,können,sollten,den,Gäste,verbrauchen,Betten,hatten,Uhr,Flug,Fernrohr,wurden,der,Tonnen,Fernrohr,Autos,Schule,haben,waren,den,wurde,Teilnehmerinnen,ist,haben,machte,stellt,wurde,einer,ein,dieser,konnten,unserer,g,das,Kinder,verbrauchen,dem,stellt,diesem,übergaben,ein,hat,dem,waren,g,verlassen,mussten,verlassen,wurde,Uhr,Gäste,Stücke,Linie,Uhr,nehme,türmen,Tonnen,übergaben,meinem,Scheel,müden,mussten,,,,,,,,,,,,,,,,,,,,,,,13,0,13,0,0,1,1,1,,,,,,,space,0.627202033997,,,,2017_Jan_25_1106,59.6573294684,spr_backupper,001,Mi11,
,wurden,saftiges,beider,Feier,wurde,in,Tat,verbraucht,wurden,die,Umständen,keine,kann,ein,die,trotz,sich,Methode,in,eine,Studium,Ankunft,Rand,Kakao,Eimer,fuhren,wurden,in,Rand,Rummels,keine,"regnete,",wird,sind,Feier,mal,Sonne,Kleidung,immer,Bürgermeister,suchen,60,wurden,in,schlug,zum,sahen,Eimer,Tat,gebrauchter,sahen,beider,verbraucht,jede,nur,Kakao,damals,wussten,genau,jede,mal,die,trotz,Studie,Tropfen,Methode,dann,Ankunft,braunen,Essen,fuhren,60,Bürgermeister,die,Zirkus,dem,Tropfen,uns,Essen,nur,brauner,wegen,uns,wegen,die,schlug,suchen,saftigen,101,war,eine,sich,gebrauchte,das,Studium,war,Teilnehmer,uns,,,,,,,,,,,,,,,,,,,,,,,13,0,13,0,0,2,2,2,,,,,,,space,1.38624787331,,,,2017_Jan_25_1106,59.6573294684,spr_backupper,001,Mi11,
,aus,Fleisch,beteiligten,gedachte,dann,Größe,wissen,260.000,mit,er,können,Lust,schon,Hemd,Erlebnisse,dem,Berge,kann,Dänemark,große,habe,stand,der,gehören,roter,mit,unter,Größe,der,wurde,Lust,hat,mit,mit,gedachte,wieder,"unterging,",bei,auf,beschuldigten,die,Liter,mit,Dänemark,"sporadisch,",Mond,wir,rote,wissen,Kleidung,wir,beteiligter,260.000,Menge,kleinere,gehören,schnell,überwiegend,die,Menge,wieder,Masse,des,wurde,königlichen,kann,mit,stand,Zuckers,kann,mit,Liter,beschuldigten,Masse,werden,Mann,königliches,die,kann,kleinere,Zucker,des,durch,dem,Leinwand,"sporadisch,",die,Fleischs,hält,aus,große,Berge,Kleidung,Auto,las,der,wurden,durch,,,,,,,,,,,,,,,,,,,,,,,13,0,13,0,0,3,3,3,,,,,,,space,1.40738797188,,,,2017_Jan_25_1106,59.6573294684,spr_backupper,001,Mi11,
,"wertvollem,",wurden,Fahrer,man,mit,36,wir,Kilowattstunden,dauerhaftem,"trug,",Neuwahlen,auf,bei,aus,bei,bekannten,schmutzige,man,gelegentlich,Packung,ich,ein,Stadt,immer,Farbe,solchen,"regelmäßigem,",36,Stadt,schon,auf,uns,"reichlichem,","sämtlichem,",man,viel,war,ausreichendem,warmem,die,Wohnung,sprudelnden,"üblichem,",einen,obwohl,dauerte,den,Farbe,wir,landen,den,Fahrer,Kilowattstunden,alten,"Delikte,",immer,dank,"nicht,",richtige,alten,viel,mit,bekannten,jetzt,Bluts,man,"minimalem,",ein,sind,ich,solch,sprudelndes,die,mit,die,das,Blut,Stimmung,ich,"Delikte,",sind,schönen,Büschel,schönen,aus,obschon,Wohnung,wurden,nicht,"Japan,",Packung,schmutziger,landen,dem,ich,vierte,mit,Büschel,,,,,,,,,,,,,,,,,,,,,,,13,0,13,0,0,4,4,4,,,,,,,space,1.02677106857,,,,2017_Jan_25_1106,59.6573294684,spr_backupper,001,Mi11,
,klassischen,serviert.,wurden,der,"reichem,",würden,von,elektrische,feinem,war,vor,noch,minimalem,feinem,"frischem,",Skandal,Wäsche.,eine,einen,salzige,mehr,Glas,liegen,350,geschleudert.,unzureichenden,kaltem,hätten,liegen,immer,noch,die,purem,künftigem,den,Lärm,die,monatlichem,weichem,Störenfriede,des,Trinkwassers.,harten,gelegentlichen,sie,ungefähr,roten,geschleudert.,um,im,roten,wurden,elektrischer,Krams,deren,350,täglichem,was,"Zeit,",Kram,Lärm,einem,Skandals,"nachgewiesen,",hat,eine,sauberen,Glas,auf,leider,unzureichenden,Trinkwasser.,Störenfriede,einem,Tiere,Auto,hat,ziemlich,leider,derer,auf,Wetters,frischen,Wetter,seltenem,sie,des,serviert.,am,die,salziger,Wäsche.,im,Mann,mehr,Bundespräsident.,zusätzlichem,frisches,,,,,,,,,,,,,,,,,,,,,,,13,0,13,0,0,5,5,5,,,,,,,space,0.588060855865,,,,2017_Jan_25_1106,59.6573294684,spr_backupper,001,Mi11,
