text,sent48,sent9,sent8,sent15,sent3,sent2,sent1,sent14,sent7,sent6,sent5,sent4,sent57,sent56,sent55,sent54,sent53,sent52,sent51,sent50,sent13,sent12,sent11,sent10,sent17,sent16,sent59,sent58,sent93,sent92,sent91,sent90,sent97,sent96,sent95,sent94,sent98,sent22,sent23,sent20,sent21,sent26,sent27,sent24,sent25,sent28,sent29,sent68,sent69,sent66,sent67,sent64,sent65,sent62,sent63,sent60,sent61,sent31,sent30,sent33,sent32,sent35,sent34,sent37,sent36,sent39,sent38,sent79,sent78,sent75,sent74,sent77,sent76,sent71,sent70,sent73,sent72,sent19,sent49,sent18,sent44,sent45,sent84,sent85,sent86,sent87,sent80,sent81,sent82,sent83,sent40,sent41,sent42,sent43,sent88,sent89,sent46,sent47,intros.thisRepN,intros.thisTrialN,intros.thisN,intros.thisIndex,trials.thisRepN,trials.thisTrialN,trials.thisN,trials.thisIndex,testWords.thisRepN,testWords.thisTrialN,testWords.thisN,testWords.thisIndex,test1,test3,test2,test5,test4,test7,test6,test9,test8,test10,realTrials.thisRepN,realTrials.thisTrialN,realTrials.thisN,realTrials.thisIndex,words.thisRepN,words.thisTrialN,words.thisN,words.thisIndex,key_resp_3.keys,key_resp_3.rt,key_resp_8.keys,key_resp_10.keys,key_resp_10.rt,key_resp_6.keys,key_resp_6.rt,wordRead.keys,wordRead.rt,key_resp_5.keys,questAnswer.keys,questAnswer.rt,date,frameRate,expName,session,participant,
"Vielen Dank, dass Sie an diesem Experiment teilnehmen. Vor dem eigentlichen Experiment sehen Sie nun zuerst eine kurze Erläuterung, und Sie absolvieren ein kurze Übungsphase.

Das Experiment dauert insgesamt nicht mehr als 45 Minuten.",,,,,,,,,,,,,,,,,,,,,,,,,,,,,,,,,,,,,,,,,,,,,,,,,,,,,,,,,,,,,,,,,,,,,,,,,,,,,,,,,,,,,,,,,,,,,,,,,,,0,0,0,0,,,,,,,,,,,,,,,,,,,,,,,,,,,,,,,,,,,,,,,2017_Feb_01_1635,59.8723557936,spr_backupper,001,Mi12,
"In diesem Experiment lesen Sie deutsche Sätze, indem Sie sich von Wort zu Wort mit der Leertaste durch den Satz klicken.",,,,,,,,,,,,,,,,,,,,,,,,,,,,,,,,,,,,,,,,,,,,,,,,,,,,,,,,,,,,,,,,,,,,,,,,,,,,,,,,,,,,,,,,,,,,,,,,,,,0,1,1,1,,,,,,,,,,,,,,,,,,,,,,,,,,,,,,,,,,,,,,,2017_Feb_01_1635,59.8723557936,spr_backupper,001,Mi12,
"Sie sehen dabei immer nur das aktuelle Wort. Die Lesegeschwindigkeit bestimmen Sie vollständig selber. Vor jedem Satz sehen Sie in der Bildschirmmitte für zwei Sekunden ein + an der Stelle, an der dann die Wörter erscheinen.",,,,,,,,,,,,,,,,,,,,,,,,,,,,,,,,,,,,,,,,,,,,,,,,,,,,,,,,,,,,,,,,,,,,,,,,,,,,,,,,,,,,,,,,,,,,,,,,,,,0,2,2,2,,,,,,,,,,,,,,,,,,,,,,,,,,,,,,,,,,,,,,,2017_Feb_01_1635,59.8723557936,spr_backupper,001,Mi12,
"Nach jedem Satz wird Ihnen eine Ja/Nein-Verständnisfrage zum zuvor gelesenen Satz gestellt, die Sie mit der J-Taste für "Ja" und der N-Taste für "Nein" beantworten. Antworten Sie möglichst spontan und ohne lange Nachzudenken.",,,,,,,,,,,,,,,,,,,,,,,,,,,,,,,,,,,,,,,,,,,,,,,,,,,,,,,,,,,,,,,,,,,,,,,,,,,,,,,,,,,,,,,,,,,,,,,,,,,0,3,3,3,,,,,,,,,,,,,,,,,,,,,,,,,,,,,,,,,,,,,,,2017_Feb_01_1635,59.8723557936,spr_backupper,001,Mi12,
"Unterbrechen Sie das Experiment bitte auf keinen Fall, stellen Sie den ExperimentatorInnen nach dem Experimentbeginn keine Fragen, und lassen Sie sich nicht durch Umgebungsgeräusche ablenken.",,,,,,,,,,,,,,,,,,,,,,,,,,,,,,,,,,,,,,,,,,,,,,,,,,,,,,,,,,,,,,,,,,,,,,,,,,,,,,,,,,,,,,,,,,,,,,,,,,,0,4,4,4,,,,,,,,,,,,,,,,,,,,,,,,,,,,,,,,,,,,,,,2017_Feb_01_1635,59.8723557936,spr_backupper,001,Mi12,
"Im nächsten Schritt beantworten Sie bitte eine Frage zu Ihren Deutschkenntnissen. Danach beginnt eine Übungseinheit, mit der Sie sich an die Art der Durchführung dieses Experiments gewöhnen können.",,,,,,,,,,,,,,,,,,,,,,,,,,,,,,,,,,,,,,,,,,,,,,,,,,,,,,,,,,,,,,,,,,,,,,,,,,,,,,,,,,,,,,,,,,,,,,,,,,,0,5,5,5,,,,,,,,,,,,,,,,,,,,,,,,,,,,,,,,,,,,,,,2017_Feb_01_1635,59.8723557936,spr_backupper,001,Mi12,
,,,,,,,,,,,,,,,,,,,,,,,,,,,,,,,,,,,,,,,,,,,,,,,,,,,,,,,,,,,,,,,,,,,,,,,,,,,,,,,,,,,,,,,,,,,,,,,,,,,,,,,,,,,,,,,,,,,,,,,,,,,,,,,,,j,9.44128918648,,,,,,,,,,,2017_Feb_01_1635,59.8723557936,spr_backupper,001,Mi12,
,,,,,,,,,,,,,,,,,,,,,,,,,,,,,,,,,,,,,,,,,,,,,,,,,,,,,,,,,,,,,,,,,,,,,,,,,,,,,,,,,,,,,,,,,,,,,,,,,,,,,,,0,0,0,0,,,,,,,,,,,,,,,,,,,,,,,,,None,,,,,,,,,,2017_Feb_01_1635,59.8723557936,spr_backupper,001,Mi12,
,,,,,,,,,,,,,,,,,,,,,,,,,,,,,,,,,,,,,,,,,,,,,,,,,,,,,,,,,,,,,,,,,,,,,,,,,,,,,,,,,,,,,,,,,,,,,,,,,,,,,,,1,0,1,0,,,,,,,,,,,,,,,,,,,,,,,,,None,,,,,,,,,,2017_Feb_01_1635,59.8723557936,spr_backupper,001,Mi12,
,,,,,,,,,,,,,,,,,,,,,,,,,,,,,,,,,,,,,,,,,,,,,,,,,,,,,,,,,,,,,,,,,,,,,,,,,,,,,,,,,,,,,,,,,,,,,,,,,,,,,,,2,0,2,0,,,,,,,,,,,,,,,,,,,,,,,,,None,,,,,,,,,,2017_Feb_01_1635,59.8723557936,spr_backupper,001,Mi12,
,,,,,,,,,,,,,,,,,,,,,,,,,,,,,,,,,,,,,,,,,,,,,,,,,,,,,,,,,,,,,,,,,,,,,,,,,,,,,,,,,,,,,,,,,,,,,,,,,,,,,,,3,0,3,0,,,,,,,,,,,,,,,,,,,,,,,,,None,,,,,,,,,,2017_Feb_01_1635,59.8723557936,spr_backupper,001,Mi12,
,,,,,,,,,,,,,,,,,,,,,,,,,,,,,,,,,,,,,,,,,,,,,,,,,,,,,,,,,,,,,,,,,,,,,,,,,,,,,,,,,,,,,,,,,,,,,,,,,,,,,,,4,0,4,0,,,,,,,,,,,,,,,,,,,,,,,,,None,,,,,,,,,,2017_Feb_01_1635,59.8723557936,spr_backupper,001,Mi12,
,,,,,,,,,,,,,,,,,,,,,,,,,,,,,,,,,,,,,,,,,,,,,,,,,,,,,,,,,,,,,,,,,,,,,,,,,,,,,,,,,,,,,,,,,,,,,,,,,,,,,,,5,0,5,0,,,,,,,,,,,,,,,,,,,,,,,,,None,,,,,,,,,,2017_Feb_01_1635,59.8723557936,spr_backupper,001,Mi12,
,,,,,,,,,,,,,,,,,,,,,,,,,,,,,,,,,,,,,,,,,,,,,,,,,,,,,,,,,,,,,,,,,,,,,,,,,,,,,,,,,,,,,,,,,,,,,,,,,,,,,,,6,0,6,0,,,,,,,,,,,,,,,,,,,,,,,,,None,,,,,,,,,,2017_Feb_01_1635,59.8723557936,spr_backupper,001,Mi12,
,,,,,,,,,,,,,,,,,,,,,,,,,,,,,,,,,,,,,,,,,,,,,,,,,,,,,,,,,,,,,,,,,,,,,,,,,,,,,,,,,,,,,,,,,,,,,,,,,,,,,,,7,0,7,0,,,,,,,,,,,,,,,,,,,,,,,,,None,,,,,,,,,,2017_Feb_01_1635,59.8723557936,spr_backupper,001,Mi12,
,,,,,,,,,,,,,,,,,,,,,,,,,,,,,,,,,,,,,,,,,,,,,,,,,,,,,,,,,,,,,,,,,,,,,,,,,,,,,,,,,,,,,,,,,,,,,,,,,,,,,,,8,0,8,0,,,,,,,,,,,,,,,,,,,,,,,,,None,,,,,,,,,,2017_Feb_01_1635,59.8723557936,spr_backupper,001,Mi12,
,,,,,,,,,,,,,,,,,,,,,,,,,,,,,,,,,,,,,,,,,,,,,,,,,,,,,,,,,,,,,,,,,,,,,,,,,,,,,,,,,,,,,,,,,,,,,,,,,,,,,,,9,0,9,0,,,,,,,,,,,,,,,,,,,,,,,,,None,,,,,,,,,,2017_Feb_01_1635,59.8723557936,spr_backupper,001,Mi12,
,,,,,,,,,,,,,,,,,,,,,,,,,,,,,,,,,,,,,,,,,,,,,,,,,,,,,,,,,,,,,,,,,,,,,,,,,,,,,,,,,,,,,,,,,,,,,,,,,,,,,,,,,,,,,,,,,,,,,,,,,,,,,,,,,,,,space,5.16602683067,,,,,,,,2017_Feb_01_1635,59.8723557936,spr_backupper,001,Mi12,
,Bei,Dass,Die,Die,Sie,Mit,Manche,Es,Es,Man,Die,In,In,Die,Die,Wir,Er,Die,Im,Es,Wir,Bei,Die,Wir,Sie,Außer,Sie,Mit,Am,Es,Ich,Die,Alle,Außer,Dort,Die,Die,In,In,Beträchtliche,Er,Wir,In,Walter,Im,Außer,Dort,Bei,Nicht,In,Wir,Beträchtliche,Die,In,Außer,Sie,Jugendliche,Als,Ich,Ich,Ihr,Sie,Die,Am,100,Er,Sie,Viele,Das,Es,100,Bei,Er,Man,Die,Der,In,Die,Nicht,Er,Die,Wir,Die,Jetzt,Unter,Wir,Wir,Die,Wir,Die,Viele,Die,Fernab,Die,Jungtiere,Sie,Die,Danach,,,,,,,,,,,,,,,,,,,,,,,0,0,0,0,0,0,0,0,,,,,,space,1.14063191414,space,1.03517794609,,,,2017_Feb_01_1635,59.8723557936,spr_backupper,001,Mi12,
,der,es,Schule,Lösung,verbrauchen,dieser,Kreditnehmer,waren,wurden,machte,Schuhe,den,den,müden,Stücke,konnten,stellt,Eislaufbahnen,Fernrohr,hat,hatten,unserer,Formen,mussten,haben,dem,verlassen,dieser,äußersten,wurden,nehme,"Uhr,",Betten,den,türmen,Uhr,Autos,der,meinem,Stücke,stellt,übergaben,diesem,Scheel,Fernrohr,das,türmen,der,ein,einer,hatten,Stücke,Gäste,der,dem,verbrauchen,können,die,nehme,wurde,Blutdruck,hatte,Autos,äußeren,g,hat,verlassen,Tonnen,Tuch,waren,g,unserer,wurde,machte,Schuhe,Flug,meinem,Linie,ein,wurde,Kinder,haben,Schule,ist,keinen,mussten,übergaben,Teilnehmerinnen,haben,Kinder,Tonnen,Uhr,des,Gäste,sollten,hatte,Uhr,wurde,,,,,,,,,,,,,,,,,,,,,,,0,0,0,0,0,1,1,1,,,,,,,,space,0.923320055008,,,,2017_Feb_01_1635,59.8723557936,spr_backupper,001,Mi12,
,Feier,"regnete,",verbraucht,wird,60,Methode,sind,nur,Eimer,mal,in,Kakao,Kakao,Teilnehmer,wurden,dann,die,wurden,sahen,uns,in,Ankunft,wurden,uns,die,Bürgermeister,wegen,Methode,Rand,Eimer,eine,die,wurden,Bürgermeister,sich,schlug,beider,Tat,Studium,saftigen,die,dem,Zirkus,war,sahen,Essen,sich,Feier,Tropfen,Studie,in,saftiges,suchen,Tat,Essen,60,Kleidung,Sonne,eine,damals,kann,keine,beider,Rand,braunen,ein,wegen,gebrauchte,wurde,nur,brauner,Ankunft,trotz,mal,in,zum,Studium,101,Tropfen,trotz,fuhren,jede,verbraucht,genau,Umständen,uns,das,wussten,jede,fuhren,gebrauchter,schlug,Rummels,suchen,immer,keine,war,die,,,,,,,,,,,,,,,,,,,,,,,0,0,0,0,0,2,2,2,,,,,,,,space,0.620834112167,,,,2017_Feb_01_1635,59.8723557936,spr_backupper,001,Mi12,
,gedachte,hat,260.000,mit,Liter,kann,mit,kleinere,rote,wieder,Größe,gehören,gehören,wurden,aus,mit,Masse,mit,wir,die,Dänemark,stand,unter,durch,Erlebnisse,beschuldigten,des,kann,der,roter,große,er,mit,beschuldigten,Berge,"sporadisch,",beteiligten,wissen,las,Fleischs,Masse,Mann,werden,der,wir,kann,Berge,gedachte,königlichen,wurde,Dänemark,Fleisch,die,wissen,kann,Liter,bei,"unterging,",große,schnell,schon,Lust,beteiligter,der,Zuckers,Hemd,dem,Kleidung,dann,kleinere,Zucker,stand,des,wieder,Größe,Mond,habe,hält,königliches,dem,mit,Menge,260.000,die,können,durch,Auto,überwiegend,Menge,mit,Kleidung,"sporadisch,",wurde,die,auf,Lust,aus,Leinwand,,,,,,,,,,,,,,,,,,,,,,,0,0,0,0,0,3,3,3,,,,,,,,space,0.517737865448,,,,2017_Feb_01_1635,59.8723557936,spr_backupper,001,Mi12,
,man,uns,Kilowattstunden,"reichlichem,",sprudelndes,man,"sämtlichem,","Delikte,",Farbe,viel,36,immer,immer,mit,"wertvollem,","minimalem,",mit,dauerhaftem,den,Stimmung,gelegentlich,ein,"regelmäßigem,",Büschel,bei,die,schönen,man,Stadt,Farbe,Packung,"trug,","üblichem,",die,schmutziger,obwohl,Fahrer,wir,ich,wurden,mit,das,die,vierte,den,ich,schmutzige,man,Bluts,jetzt,einen,wurden,Wohnung,wir,ich,sprudelnden,ausreichendem,war,Packung,dank,bei,auf,Fahrer,Stadt,sind,aus,schönen,landen,mit,"Delikte,",sind,ein,bekannten,viel,36,dauerte,ich,nicht,Blut,bekannten,solch,alten,Kilowattstunden,richtige,Neuwahlen,Büschel,dem,"nicht,",alten,solchen,landen,obschon,schon,Wohnung,warmem,auf,"Japan,",aus,,,,,,,,,,,,,,,,,,,,,,,0,0,0,0,0,4,4,4,,,,,,,,space,0.844382047653,,,,2017_Feb_01_1635,59.8723557936,spr_backupper,001,Mi12,
,den,die,elektrischer,purem,Trinkwasser.,eine,künftigem,deren,geschleudert.,Lärm,hätten,350,350,zusätzlichem,klassischen,sauberen,einem,feinem,roten,ziemlich,einen,Glas,kaltem,frischen,"frischem,",Störenfriede,Wetters,eine,liegen,geschleudert.,salziger,war,harten,Störenfriede,Wäsche.,sie,wurden,um,mehr,serviert.,einem,Auto,Tiere,Bundespräsident.,roten,leider,Wäsche.,der,hat,"nachgewiesen,",gelegentlichen,serviert.,des,von,leider,Trinkwassers.,monatlichem,die,salzige,täglichem,minimalem,noch,wurden,liegen,auf,feinem,Wetter,im,"reichem,",derer,auf,Glas,Skandals,Lärm,würden,ungefähr,mehr,am,hat,Skandal,unzureichenden,Krams,elektrische,"Zeit,",vor,frisches,Mann,was,Kram,unzureichenden,im,sie,immer,des,weichem,noch,die,seltenem,,,,,,,,,,,,,,,,,,,,,,,0,0,0,0,0,5,5,5,,,,,,,,space,0.915562868118,,,,2017_Feb_01_1635,59.8723557936,spr_backupper,001,Mi12,
,Soldaten,Stimmung,Energie.,Alkohol,nan,große,Einkommen,sie,nan,um,seiner,ml,ml,schwarzem,Schmuck,Kraftstoff,Esslöffel,Kunsteis,Planeten,"vermiest,",Besucher.,köstlicher,Abduschen,Grases,kaltem,jeden.,die,große,die,nan,Wurst,aus,Schaumstoff,jeden.,nan,defekt,verschrottet.,die,als,nan,Esslöffel,mehr,artgerecht,nan,Planet,nichts,nan,Soldaten,den,dass,Besucher.,nan,Herrn,den,nichts,nan,Taschengeld,Flut,Wurst,grünen,täglichen,eine,verschrottet.,die,jeden,dichten,die,Müll.,goldenen,sie,jeden,köstlichen,wiedergewählt.,um,seiner,drei,als,Hauptbahnhof.,den,wiedergewählt.,Helmen,aus,Energie.,um,Dezember,Gras,mehr,Tupperware,aus,Helmen,Müll.,defekt,ruhig,Herrn,Untergrund,eine,er,dichten,,,,,,,,,,,,,,,,,,,,,,,0,0,0,0,0,6,6,6,,,,,,,,space,1.12439608574,,,,2017_Feb_01_1635,59.8723557936,spr_backupper,001,Mi12,
,des,ziemlich,nan,verdünnt.,nan,Menge,haftbar.,überführt,nan,jede,Frau,warmer,warme,Kaffee,umgearbeitet.,fahren.,warmen,eingesprüht.,ganz,dass,nan,Wein,gehärtet.,zwängen.,Saft,nan,Wohnung.,Menge,Slums.,nan,mit,Japan.,gefertigt.,nan,nan,war.,nan,Probleme,einmal,nan,warmem,als,gehalten.,nan,ganz,mitbringen.,nan,des,Boden,das,nan,nan,Gantenbeins.,Problemen,mitbringen.,nan,selber,zurückgekehrt.,mit,Tee,Einsatz,Sammlung,nan,Slums.,Fall,Stoff,Wohnung.,nan,Besatz,überführt,Fall,Weins,nan,jede,Frau,Tage.,einmal,nan,Boden,nan,zur,dem,nan,Nadelhölzer,stattfinden.,zwängen.,als,ist.,dem,zur,nan,war.,diskutiert.,Gantenbein.,liegen.,Sammlung,trug.,Gewebe,,,,,,,,,,,,,,,,,,,,,,,0,0,0,0,0,7,7,7,,,,,,,,space,0.984699010849,,,,2017_Feb_01_1635,59.8723557936,spr_backupper,001,Mi12,
,,,,,,,,,,,,,,,,,,,,,,,,,,,,,,,,,,,,,,,,,,,,,,,,,,,,,,,,,,,,,,,,,,,,,,,,,,,,,,,,,,,,,,,,,,,,,,,,,,,,,,,,,,,,,,,,,,,,,,,,,0,0,0,0,,,,,,,,,,,,,,None,j,12.0166068077,2017_Feb_01_1635,59.8723557936,spr_backupper,001,Mi12,
,Bei,Dass,Die,Die,Sie,Mit,Manche,Es,Es,Man,Die,In,In,Die,Die,Wir,Er,Die,Im,Es,Wir,Bei,Die,Wir,Sie,Außer,Sie,Mit,Am,Es,Ich,Die,Alle,Außer,Dort,Die,Die,In,In,Beträchtliche,Er,Wir,In,Walter,Im,Außer,Dort,Bei,Nicht,In,Wir,Beträchtliche,Die,In,Außer,Sie,Jugendliche,Als,Ich,Ich,Ihr,Sie,Die,Am,100,Er,Sie,Viele,Das,Es,100,Bei,Er,Man,Die,Der,In,Die,Nicht,Er,Die,Wir,Die,Jetzt,Unter,Wir,Wir,Die,Wir,Die,Viele,Die,Fernab,Die,Jungtiere,Sie,Die,Danach,,,,,,,,,,,,,,,,,,,,,,,1,0,1,0,0,0,0,0,,,,,,space,0.687234163284,space,0.437615156174,,,,2017_Feb_01_1635,59.8723557936,spr_backupper,001,Mi12,
,der,es,Schule,Lösung,verbrauchen,dieser,Kreditnehmer,waren,wurden,machte,Schuhe,den,den,müden,Stücke,konnten,stellt,Eislaufbahnen,Fernrohr,hat,hatten,unserer,Formen,mussten,haben,dem,verlassen,dieser,äußersten,wurden,nehme,"Uhr,",Betten,den,türmen,Uhr,Autos,der,meinem,Stücke,stellt,übergaben,diesem,Scheel,Fernrohr,das,türmen,der,ein,einer,hatten,Stücke,Gäste,der,dem,verbrauchen,können,die,nehme,wurde,Blutdruck,hatte,Autos,äußeren,g,hat,verlassen,Tonnen,Tuch,waren,g,unserer,wurde,machte,Schuhe,Flug,meinem,Linie,ein,wurde,Kinder,haben,Schule,ist,keinen,mussten,übergaben,Teilnehmerinnen,haben,Kinder,Tonnen,Uhr,des,Gäste,sollten,hatte,Uhr,wurde,,,,,,,,,,,,,,,,,,,,,,,1,0,1,0,0,1,1,1,,,,,,,,space,0.614782094955,,,,2017_Feb_01_1635,59.8723557936,spr_backupper,001,Mi12,
,Feier,"regnete,",verbraucht,wird,60,Methode,sind,nur,Eimer,mal,in,Kakao,Kakao,Teilnehmer,wurden,dann,die,wurden,sahen,uns,in,Ankunft,wurden,uns,die,Bürgermeister,wegen,Methode,Rand,Eimer,eine,die,wurden,Bürgermeister,sich,schlug,beider,Tat,Studium,saftigen,die,dem,Zirkus,war,sahen,Essen,sich,Feier,Tropfen,Studie,in,saftiges,suchen,Tat,Essen,60,Kleidung,Sonne,eine,damals,kann,keine,beider,Rand,braunen,ein,wegen,gebrauchte,wurde,nur,brauner,Ankunft,trotz,mal,in,zum,Studium,101,Tropfen,trotz,fuhren,jede,verbraucht,genau,Umständen,uns,das,wussten,jede,fuhren,gebrauchter,schlug,Rummels,suchen,immer,keine,war,die,,,,,,,,,,,,,,,,,,,,,,,1,0,1,0,0,2,2,2,,,,,,,,space,0.849641084671,,,,2017_Feb_01_1635,59.8723557936,spr_backupper,001,Mi12,
,gedachte,hat,260.000,mit,Liter,kann,mit,kleinere,rote,wieder,Größe,gehören,gehören,wurden,aus,mit,Masse,mit,wir,die,Dänemark,stand,unter,durch,Erlebnisse,beschuldigten,des,kann,der,roter,große,er,mit,beschuldigten,Berge,"sporadisch,",beteiligten,wissen,las,Fleischs,Masse,Mann,werden,der,wir,kann,Berge,gedachte,königlichen,wurde,Dänemark,Fleisch,die,wissen,kann,Liter,bei,"unterging,",große,schnell,schon,Lust,beteiligter,der,Zuckers,Hemd,dem,Kleidung,dann,kleinere,Zucker,stand,des,wieder,Größe,Mond,habe,hält,königliches,dem,mit,Menge,260.000,die,können,durch,Auto,überwiegend,Menge,mit,Kleidung,"sporadisch,",wurde,die,auf,Lust,aus,Leinwand,,,,,,,,,,,,,,,,,,,,,,,1,0,1,0,0,3,3,3,,,,,,,,space,0.648515939713,,,,2017_Feb_01_1635,59.8723557936,spr_backupper,001,Mi12,
,man,uns,Kilowattstunden,"reichlichem,",sprudelndes,man,"sämtlichem,","Delikte,",Farbe,viel,36,immer,immer,mit,"wertvollem,","minimalem,",mit,dauerhaftem,den,Stimmung,gelegentlich,ein,"regelmäßigem,",Büschel,bei,die,schönen,man,Stadt,Farbe,Packung,"trug,","üblichem,",die,schmutziger,obwohl,Fahrer,wir,ich,wurden,mit,das,die,vierte,den,ich,schmutzige,man,Bluts,jetzt,einen,wurden,Wohnung,wir,ich,sprudelnden,ausreichendem,war,Packung,dank,bei,auf,Fahrer,Stadt,sind,aus,schönen,landen,mit,"Delikte,",sind,ein,bekannten,viel,36,dauerte,ich,nicht,Blut,bekannten,solch,alten,Kilowattstunden,richtige,Neuwahlen,Büschel,dem,"nicht,",alten,solchen,landen,obschon,schon,Wohnung,warmem,auf,"Japan,",aus,,,,,,,,,,,,,,,,,,,,,,,1,0,1,0,0,4,4,4,,,,,,,,space,0.628941059113,,,,2017_Feb_01_1635,59.8723557936,spr_backupper,001,Mi12,
,den,die,elektrischer,purem,Trinkwasser.,eine,künftigem,deren,geschleudert.,Lärm,hätten,350,350,zusätzlichem,klassischen,sauberen,einem,feinem,roten,ziemlich,einen,Glas,kaltem,frischen,"frischem,",Störenfriede,Wetters,eine,liegen,geschleudert.,salziger,war,harten,Störenfriede,Wäsche.,sie,wurden,um,mehr,serviert.,einem,Auto,Tiere,Bundespräsident.,roten,leider,Wäsche.,der,hat,"nachgewiesen,",gelegentlichen,serviert.,des,von,leider,Trinkwassers.,monatlichem,die,salzige,täglichem,minimalem,noch,wurden,liegen,auf,feinem,Wetter,im,"reichem,",derer,auf,Glas,Skandals,Lärm,würden,ungefähr,mehr,am,hat,Skandal,unzureichenden,Krams,elektrische,"Zeit,",vor,frisches,Mann,was,Kram,unzureichenden,im,sie,immer,des,weichem,noch,die,seltenem,,,,,,,,,,,,,,,,,,,,,,,1,0,1,0,0,5,5,5,,,,,,,,space,0.553874015808,,,,2017_Feb_01_1635,59.8723557936,spr_backupper,001,Mi12,
,Soldaten,Stimmung,Energie.,Alkohol,nan,große,Einkommen,sie,nan,um,seiner,ml,ml,schwarzem,Schmuck,Kraftstoff,Esslöffel,Kunsteis,Planeten,"vermiest,",Besucher.,köstlicher,Abduschen,Grases,kaltem,jeden.,die,große,die,nan,Wurst,aus,Schaumstoff,jeden.,nan,defekt,verschrottet.,die,als,nan,Esslöffel,mehr,artgerecht,nan,Planet,nichts,nan,Soldaten,den,dass,Besucher.,nan,Herrn,den,nichts,nan,Taschengeld,Flut,Wurst,grünen,täglichen,eine,verschrottet.,die,jeden,dichten,die,Müll.,goldenen,sie,jeden,köstlichen,wiedergewählt.,um,seiner,drei,als,Hauptbahnhof.,den,wiedergewählt.,Helmen,aus,Energie.,um,Dezember,Gras,mehr,Tupperware,aus,Helmen,Müll.,defekt,ruhig,Herrn,Untergrund,eine,er,dichten,,,,,,,,,,,,,,,,,,,,,,,1,0,1,0,0,6,6,6,,,,,,,,space,0.637875080109,,,,2017_Feb_01_1635,59.8723557936,spr_backupper,001,Mi12,
,des,ziemlich,nan,verdünnt.,nan,Menge,haftbar.,überführt,nan,jede,Frau,warmer,warme,Kaffee,umgearbeitet.,fahren.,warmen,eingesprüht.,ganz,dass,nan,Wein,gehärtet.,zwängen.,Saft,nan,Wohnung.,Menge,Slums.,nan,mit,Japan.,gefertigt.,nan,nan,war.,nan,Probleme,einmal,nan,warmem,als,gehalten.,nan,ganz,mitbringen.,nan,des,Boden,das,nan,nan,Gantenbeins.,Problemen,mitbringen.,nan,selber,zurückgekehrt.,mit,Tee,Einsatz,Sammlung,nan,Slums.,Fall,Stoff,Wohnung.,nan,Besatz,überführt,Fall,Weins,nan,jede,Frau,Tage.,einmal,nan,Boden,nan,zur,dem,nan,Nadelhölzer,stattfinden.,zwängen.,als,ist.,dem,zur,nan,war.,diskutiert.,Gantenbein.,liegen.,Sammlung,trug.,Gewebe,,,,,,,,,,,,,,,,,,,,,,,1,0,1,0,0,7,7,7,,,,,,,,space,0.584657907486,,,,2017_Feb_01_1635,59.8723557936,spr_backupper,001,Mi12,
,zweiten,vermiest.,nan,nan,nan,dunkler,nan,wurden.,nan,Menge,gepasst.,Milch.,Milch.,wiederbelebt.,nan,nan,Honigs,nan,deutlich.,es,nan,schon,nan,nan,besprochen.,nan,nan,dunkle,nan,nan,an,nan,nan,nan,nan,nan,nan,im,Rilke.,nan,Honig,gerne.,nan,nan,deutlich.,nan,nan,zweiten,berührt.,Medikament,nan,nan,nan,im,nan,nan,kaufen.,nan,an,wieder,sinken.,dummer,nan,nan,genug.,gefertigt.,nan,nan,rekonstruiert.,wurden.,genug.,schon,nan,Menge,gepasst,nan,Rilke,nan,berührt.,nan,Schule.,Haus,nan,umzusetzen.,nan,nan,gerne.,nan,Haus,Schule.,nan,nan,nan,nan,nan,dumme,nan,wiederhergestellt.,,,,,,,,,,,,,,,,,,,,,,,1,0,1,0,0,8,8,8,,,,,,,,space,0.436773061752,,,,2017_Feb_01_1635,59.8723557936,spr_backupper,001,Mi12,
,Weltkriegs.,nan,nan,nan,nan,Materie,nan,nan,nan,heiße,nan,nan,nan,nan,nan,nan,her.,nan,nan,regnete.,nan,auf,nan,nan,nan,nan,nan,Materie,nan,nan,den,nan,nan,nan,nan,nan,nan,Landkreis.,nan,nan,her.,nan,nan,nan,nan,nan,nan,Weltkriegs.,nan,nicht,nan,nan,nan,Landkreis.,nan,nan,nan,nan,den,fit.,nan,Sprüche.,nan,nan,nan,nan,nan,nan,nan,nan,nan,auf,nan,heißer,haben.,nan,gelesen.,nan,nan,nan,nan,geschafft.,nan,nan,nan,nan,nan,nan,geschafft.,nan,nan,nan,nan,nan,nan,Sprüche.,nan,nan,,,,,,,,,,,,,,,,,,,,,,,1,0,1,0,0,9,9,9,,,,,,,,space,0.571186065674,,,,2017_Feb_01_1635,59.8723557936,spr_backupper,001,Mi12,
,nan,nan,nan,nan,nan,erzeugen.,nan,nan,nan,Luft.,nan,nan,nan,nan,nan,nan,nan,nan,nan,nan,nan,dem,nan,nan,nan,nan,nan,erzeugen.,nan,nan,See.,nan,nan,nan,nan,nan,nan,nan,nan,nan,nan,nan,nan,nan,nan,nan,nan,nan,nan,wirkt.,nan,nan,nan,nan,nan,nan,nan,nan,See.,nan,nan,nan,nan,nan,nan,nan,nan,nan,nan,nan,nan,dem,nan,Luft.,nan,nan,nan,nan,nan,nan,nan,nan,nan,nan,nan,nan,nan,nan,nan,nan,nan,nan,nan,nan,nan,nan,nan,nan,,,,,,,,,,,,,,,,,,,,,,,1,0,1,0,0,10,10,10,,,,,,,,space,0.473886966705,,,,2017_Feb_01_1635,59.8723557936,spr_backupper,001,Mi12,
,,,,,,,,,,,,,,,,,,,,,,,,,,,,,,,,,,,,,,,,,,,,,,,,,,,,,,,,,,,,,,,,,,,,,,,,,,,,,,,,,,,,,,,,,,,,,,,,,,,,,,,,,,,,,,,,,,,,,,,,,1,0,1,0,,,,,,,,,,,,,,None,n,6.91821408272,2017_Feb_01_1635,59.8723557936,spr_backupper,001,Mi12,
,Bei,Dass,Die,Die,Sie,Mit,Manche,Es,Es,Man,Die,In,In,Die,Die,Wir,Er,Die,Im,Es,Wir,Bei,Die,Wir,Sie,Außer,Sie,Mit,Am,Es,Ich,Die,Alle,Außer,Dort,Die,Die,In,In,Beträchtliche,Er,Wir,In,Walter,Im,Außer,Dort,Bei,Nicht,In,Wir,Beträchtliche,Die,In,Außer,Sie,Jugendliche,Als,Ich,Ich,Ihr,Sie,Die,Am,100,Er,Sie,Viele,Das,Es,100,Bei,Er,Man,Die,Der,In,Die,Nicht,Er,Die,Wir,Die,Jetzt,Unter,Wir,Wir,Die,Wir,Die,Viele,Die,Fernab,Die,Jungtiere,Sie,Die,Danach,,,,,,,,,,,,,,,,,,,,,,,2,0,2,0,0,0,0,0,,,,,,space,0.805194139481,space,2.10525584221,,,,2017_Feb_01_1635,59.8723557936,spr_backupper,001,Mi12,
,der,es,Schule,Lösung,verbrauchen,dieser,Kreditnehmer,waren,wurden,machte,Schuhe,den,den,müden,Stücke,konnten,stellt,Eislaufbahnen,Fernrohr,hat,hatten,unserer,Formen,mussten,haben,dem,verlassen,dieser,äußersten,wurden,nehme,"Uhr,",Betten,den,türmen,Uhr,Autos,der,meinem,Stücke,stellt,übergaben,diesem,Scheel,Fernrohr,das,türmen,der,ein,einer,hatten,Stücke,Gäste,der,dem,verbrauchen,können,die,nehme,wurde,Blutdruck,hatte,Autos,äußeren,g,hat,verlassen,Tonnen,Tuch,waren,g,unserer,wurde,machte,Schuhe,Flug,meinem,Linie,ein,wurde,Kinder,haben,Schule,ist,keinen,mussten,übergaben,Teilnehmerinnen,haben,Kinder,Tonnen,Uhr,des,Gäste,sollten,hatte,Uhr,wurde,,,,,,,,,,,,,,,,,,,,,,,2,0,2,0,0,1,1,1,,,,,,,,space,0.48711180687,,,,2017_Feb_01_1635,59.8723557936,spr_backupper,001,Mi12,
,Feier,"regnete,",verbraucht,wird,60,Methode,sind,nur,Eimer,mal,in,Kakao,Kakao,Teilnehmer,wurden,dann,die,wurden,sahen,uns,in,Ankunft,wurden,uns,die,Bürgermeister,wegen,Methode,Rand,Eimer,eine,die,wurden,Bürgermeister,sich,schlug,beider,Tat,Studium,saftigen,die,dem,Zirkus,war,sahen,Essen,sich,Feier,Tropfen,Studie,in,saftiges,suchen,Tat,Essen,60,Kleidung,Sonne,eine,damals,kann,keine,beider,Rand,braunen,ein,wegen,gebrauchte,wurde,nur,brauner,Ankunft,trotz,mal,in,zum,Studium,101,Tropfen,trotz,fuhren,jede,verbraucht,genau,Umständen,uns,das,wussten,jede,fuhren,gebrauchter,schlug,Rummels,suchen,immer,keine,war,die,,,,,,,,,,,,,,,,,,,,,,,2,0,2,0,0,2,2,2,,,,,,,,space,0.720893859863,,,,2017_Feb_01_1635,59.8723557936,spr_backupper,001,Mi12,
,gedachte,hat,260.000,mit,Liter,kann,mit,kleinere,rote,wieder,Größe,gehören,gehören,wurden,aus,mit,Masse,mit,wir,die,Dänemark,stand,unter,durch,Erlebnisse,beschuldigten,des,kann,der,roter,große,er,mit,beschuldigten,Berge,"sporadisch,",beteiligten,wissen,las,Fleischs,Masse,Mann,werden,der,wir,kann,Berge,gedachte,königlichen,wurde,Dänemark,Fleisch,die,wissen,kann,Liter,bei,"unterging,",große,schnell,schon,Lust,beteiligter,der,Zuckers,Hemd,dem,Kleidung,dann,kleinere,Zucker,stand,des,wieder,Größe,Mond,habe,hält,königliches,dem,mit,Menge,260.000,die,können,durch,Auto,überwiegend,Menge,mit,Kleidung,"sporadisch,",wurde,die,auf,Lust,aus,Leinwand,,,,,,,,,,,,,,,,,,,,,,,2,0,2,0,0,3,3,3,,,,,,,,space,0.571144104004,,,,2017_Feb_01_1635,59.8723557936,spr_backupper,001,Mi12,
,man,uns,Kilowattstunden,"reichlichem,",sprudelndes,man,"sämtlichem,","Delikte,",Farbe,viel,36,immer,immer,mit,"wertvollem,","minimalem,",mit,dauerhaftem,den,Stimmung,gelegentlich,ein,"regelmäßigem,",Büschel,bei,die,schönen,man,Stadt,Farbe,Packung,"trug,","üblichem,",die,schmutziger,obwohl,Fahrer,wir,ich,wurden,mit,das,die,vierte,den,ich,schmutzige,man,Bluts,jetzt,einen,wurden,Wohnung,wir,ich,sprudelnden,ausreichendem,war,Packung,dank,bei,auf,Fahrer,Stadt,sind,aus,schönen,landen,mit,"Delikte,",sind,ein,bekannten,viel,36,dauerte,ich,nicht,Blut,bekannten,solch,alten,Kilowattstunden,richtige,Neuwahlen,Büschel,dem,"nicht,",alten,solchen,landen,obschon,schon,Wohnung,warmem,auf,"Japan,",aus,,,,,,,,,,,,,,,,,,,,,,,2,0,2,0,0,4,4,4,,,,,,,,space,0.69303393364,,,,2017_Feb_01_1635,59.8723557936,spr_backupper,001,Mi12,
,den,die,elektrischer,purem,Trinkwasser.,eine,künftigem,deren,geschleudert.,Lärm,hätten,350,350,zusätzlichem,klassischen,sauberen,einem,feinem,roten,ziemlich,einen,Glas,kaltem,frischen,"frischem,",Störenfriede,Wetters,eine,liegen,geschleudert.,salziger,war,harten,Störenfriede,Wäsche.,sie,wurden,um,mehr,serviert.,einem,Auto,Tiere,Bundespräsident.,roten,leider,Wäsche.,der,hat,"nachgewiesen,",gelegentlichen,serviert.,des,von,leider,Trinkwassers.,monatlichem,die,salzige,täglichem,minimalem,noch,wurden,liegen,auf,feinem,Wetter,im,"reichem,",derer,auf,Glas,Skandals,Lärm,würden,ungefähr,mehr,am,hat,Skandal,unzureichenden,Krams,elektrische,"Zeit,",vor,frisches,Mann,was,Kram,unzureichenden,im,sie,immer,des,weichem,noch,die,seltenem,,,,,,,,,,,,,,,,,,,,,,,2,0,2,0,0,5,5,5,,,,,,,,space,0.616641998291,,,,2017_Feb_01_1635,59.8723557936,spr_backupper,001,Mi12,
,,,,,,,,,,,,,,,,,,,,,,,,,,,,,,,,,,,,,,,,,,,,,,,,,,,,,,,,,,,,,,,,,,,,,,,,,,,,,,,,,,,,,,,,,,,,,,,,,,,,,,,,,,,,,,,,,,,,,,,,,2,0,2,0,,,,,,,,,,,,,,None,j,9.1187210083,2017_Feb_01_1635,59.8723557936,spr_backupper,001,Mi12,
,Bei,Dass,Die,Die,Sie,Mit,Manche,Es,Es,Man,Die,In,In,Die,Die,Wir,Er,Die,Im,Es,Wir,Bei,Die,Wir,Sie,Außer,Sie,Mit,Am,Es,Ich,Die,Alle,Außer,Dort,Die,Die,In,In,Beträchtliche,Er,Wir,In,Walter,Im,Außer,Dort,Bei,Nicht,In,Wir,Beträchtliche,Die,In,Außer,Sie,Jugendliche,Als,Ich,Ich,Ihr,Sie,Die,Am,100,Er,Sie,Viele,Das,Es,100,Bei,Er,Man,Die,Der,In,Die,Nicht,Er,Die,Wir,Die,Jetzt,Unter,Wir,Wir,Die,Wir,Die,Viele,Die,Fernab,Die,Jungtiere,Sie,Die,Danach,,,,,,,,,,,,,,,,,,,,,,,3,0,3,0,0,0,0,0,,,,,,space,0.670959949493,space,0.0327830314636,,,,2017_Feb_01_1635,59.8723557936,spr_backupper,001,Mi12,
,der,es,Schule,Lösung,verbrauchen,dieser,Kreditnehmer,waren,wurden,machte,Schuhe,den,den,müden,Stücke,konnten,stellt,Eislaufbahnen,Fernrohr,hat,hatten,unserer,Formen,mussten,haben,dem,verlassen,dieser,äußersten,wurden,nehme,"Uhr,",Betten,den,türmen,Uhr,Autos,der,meinem,Stücke,stellt,übergaben,diesem,Scheel,Fernrohr,das,türmen,der,ein,einer,hatten,Stücke,Gäste,der,dem,verbrauchen,können,die,nehme,wurde,Blutdruck,hatte,Autos,äußeren,g,hat,verlassen,Tonnen,Tuch,waren,g,unserer,wurde,machte,Schuhe,Flug,meinem,Linie,ein,wurde,Kinder,haben,Schule,ist,keinen,mussten,übergaben,Teilnehmerinnen,haben,Kinder,Tonnen,Uhr,des,Gäste,sollten,hatte,Uhr,wurde,,,,,,,,,,,,,,,,,,,,,,,3,0,3,0,0,1,1,1,,,,,,,,space,1.10734701157,,,,2017_Feb_01_1635,59.8723557936,spr_backupper,001,Mi12,
,Feier,"regnete,",verbraucht,wird,60,Methode,sind,nur,Eimer,mal,in,Kakao,Kakao,Teilnehmer,wurden,dann,die,wurden,sahen,uns,in,Ankunft,wurden,uns,die,Bürgermeister,wegen,Methode,Rand,Eimer,eine,die,wurden,Bürgermeister,sich,schlug,beider,Tat,Studium,saftigen,die,dem,Zirkus,war,sahen,Essen,sich,Feier,Tropfen,Studie,in,saftiges,suchen,Tat,Essen,60,Kleidung,Sonne,eine,damals,kann,keine,beider,Rand,braunen,ein,wegen,gebrauchte,wurde,nur,brauner,Ankunft,trotz,mal,in,zum,Studium,101,Tropfen,trotz,fuhren,jede,verbraucht,genau,Umständen,uns,das,wussten,jede,fuhren,gebrauchter,schlug,Rummels,suchen,immer,keine,war,die,,,,,,,,,,,,,,,,,,,,,,,3,0,3,0,0,2,2,2,,,,,,,,space,0.674400091171,,,,2017_Feb_01_1635,59.8723557936,spr_backupper,001,Mi12,
,gedachte,hat,260.000,mit,Liter,kann,mit,kleinere,rote,wieder,Größe,gehören,gehören,wurden,aus,mit,Masse,mit,wir,die,Dänemark,stand,unter,durch,Erlebnisse,beschuldigten,des,kann,der,roter,große,er,mit,beschuldigten,Berge,"sporadisch,",beteiligten,wissen,las,Fleischs,Masse,Mann,werden,der,wir,kann,Berge,gedachte,königlichen,wurde,Dänemark,Fleisch,die,wissen,kann,Liter,bei,"unterging,",große,schnell,schon,Lust,beteiligter,der,Zuckers,Hemd,dem,Kleidung,dann,kleinere,Zucker,stand,des,wieder,Größe,Mond,habe,hält,königliches,dem,mit,Menge,260.000,die,können,durch,Auto,überwiegend,Menge,mit,Kleidung,"sporadisch,",wurde,die,auf,Lust,aus,Leinwand,,,,,,,,,,,,,,,,,,,,,,,3,0,3,0,0,3,3,3,,,,,,,,space,0.772171020508,,,,2017_Feb_01_1635,59.8723557936,spr_backupper,001,Mi12,
,man,uns,Kilowattstunden,"reichlichem,",sprudelndes,man,"sämtlichem,","Delikte,",Farbe,viel,36,immer,immer,mit,"wertvollem,","minimalem,",mit,dauerhaftem,den,Stimmung,gelegentlich,ein,"regelmäßigem,",Büschel,bei,die,schönen,man,Stadt,Farbe,Packung,"trug,","üblichem,",die,schmutziger,obwohl,Fahrer,wir,ich,wurden,mit,das,die,vierte,den,ich,schmutzige,man,Bluts,jetzt,einen,wurden,Wohnung,wir,ich,sprudelnden,ausreichendem,war,Packung,dank,bei,auf,Fahrer,Stadt,sind,aus,schönen,landen,mit,"Delikte,",sind,ein,bekannten,viel,36,dauerte,ich,nicht,Blut,bekannten,solch,alten,Kilowattstunden,richtige,Neuwahlen,Büschel,dem,"nicht,",alten,solchen,landen,obschon,schon,Wohnung,warmem,auf,"Japan,",aus,,,,,,,,,,,,,,,,,,,,,,,3,0,3,0,0,4,4,4,,,,,,,,space,0.947806119919,,,,2017_Feb_01_1635,59.8723557936,spr_backupper,001,Mi12,
,den,die,elektrischer,purem,Trinkwasser.,eine,künftigem,deren,geschleudert.,Lärm,hätten,350,350,zusätzlichem,klassischen,sauberen,einem,feinem,roten,ziemlich,einen,Glas,kaltem,frischen,"frischem,",Störenfriede,Wetters,eine,liegen,geschleudert.,salziger,war,harten,Störenfriede,Wäsche.,sie,wurden,um,mehr,serviert.,einem,Auto,Tiere,Bundespräsident.,roten,leider,Wäsche.,der,hat,"nachgewiesen,",gelegentlichen,serviert.,des,von,leider,Trinkwassers.,monatlichem,die,salzige,täglichem,minimalem,noch,wurden,liegen,auf,feinem,Wetter,im,"reichem,",derer,auf,Glas,Skandals,Lärm,würden,ungefähr,mehr,am,hat,Skandal,unzureichenden,Krams,elektrische,"Zeit,",vor,frisches,Mann,was,Kram,unzureichenden,im,sie,immer,des,weichem,noch,die,seltenem,,,,,,,,,,,,,,,,,,,,,,,3,0,3,0,0,5,5,5,,,,,,,,space,0.790811061859,,,,2017_Feb_01_1635,59.8723557936,spr_backupper,001,Mi12,
,Soldaten,Stimmung,Energie.,Alkohol,nan,große,Einkommen,sie,nan,um,seiner,ml,ml,schwarzem,Schmuck,Kraftstoff,Esslöffel,Kunsteis,Planeten,"vermiest,",Besucher.,köstlicher,Abduschen,Grases,kaltem,jeden.,die,große,die,nan,Wurst,aus,Schaumstoff,jeden.,nan,defekt,verschrottet.,die,als,nan,Esslöffel,mehr,artgerecht,nan,Planet,nichts,nan,Soldaten,den,dass,Besucher.,nan,Herrn,den,nichts,nan,Taschengeld,Flut,Wurst,grünen,täglichen,eine,verschrottet.,die,jeden,dichten,die,Müll.,goldenen,sie,jeden,köstlichen,wiedergewählt.,um,seiner,drei,als,Hauptbahnhof.,den,wiedergewählt.,Helmen,aus,Energie.,um,Dezember,Gras,mehr,Tupperware,aus,Helmen,Müll.,defekt,ruhig,Herrn,Untergrund,eine,er,dichten,,,,,,,,,,,,,,,,,,,,,,,3,0,3,0,0,6,6,6,,,,,,,,space,0.720887899399,,,,2017_Feb_01_1635,59.8723557936,spr_backupper,001,Mi12,
,des,ziemlich,nan,verdünnt.,nan,Menge,haftbar.,überführt,nan,jede,Frau,warmer,warme,Kaffee,umgearbeitet.,fahren.,warmen,eingesprüht.,ganz,dass,nan,Wein,gehärtet.,zwängen.,Saft,nan,Wohnung.,Menge,Slums.,nan,mit,Japan.,gefertigt.,nan,nan,war.,nan,Probleme,einmal,nan,warmem,als,gehalten.,nan,ganz,mitbringen.,nan,des,Boden,das,nan,nan,Gantenbeins.,Problemen,mitbringen.,nan,selber,zurückgekehrt.,mit,Tee,Einsatz,Sammlung,nan,Slums.,Fall,Stoff,Wohnung.,nan,Besatz,überführt,Fall,Weins,nan,jede,Frau,Tage.,einmal,nan,Boden,nan,zur,dem,nan,Nadelhölzer,stattfinden.,zwängen.,als,ist.,dem,zur,nan,war.,diskutiert.,Gantenbein.,liegen.,Sammlung,trug.,Gewebe,,,,,,,,,,,,,,,,,,,,,,,3,0,3,0,0,7,7,7,,,,,,,,space,0.736770868301,,,,2017_Feb_01_1635,59.8723557936,spr_backupper,001,Mi12,
,zweiten,vermiest.,nan,nan,nan,dunkler,nan,wurden.,nan,Menge,gepasst.,Milch.,Milch.,wiederbelebt.,nan,nan,Honigs,nan,deutlich.,es,nan,schon,nan,nan,besprochen.,nan,nan,dunkle,nan,nan,an,nan,nan,nan,nan,nan,nan,im,Rilke.,nan,Honig,gerne.,nan,nan,deutlich.,nan,nan,zweiten,berührt.,Medikament,nan,nan,nan,im,nan,nan,kaufen.,nan,an,wieder,sinken.,dummer,nan,nan,genug.,gefertigt.,nan,nan,rekonstruiert.,wurden.,genug.,schon,nan,Menge,gepasst,nan,Rilke,nan,berührt.,nan,Schule.,Haus,nan,umzusetzen.,nan,nan,gerne.,nan,Haus,Schule.,nan,nan,nan,nan,nan,dumme,nan,wiederhergestellt.,,,,,,,,,,,,,,,,,,,,,,,3,0,3,0,0,8,8,8,,,,,,,,space,0.607115030289,,,,2017_Feb_01_1635,59.8723557936,spr_backupper,001,Mi12,
,,,,,,,,,,,,,,,,,,,,,,,,,,,,,,,,,,,,,,,,,,,,,,,,,,,,,,,,,,,,,,,,,,,,,,,,,,,,,,,,,,,,,,,,,,,,,,,,,,,,,,,,,,,,,,,,,,,,,,,,,3,0,3,0,,,,,,,,,,,,,,None,n,4.45089793205,2017_Feb_01_1635,59.8723557936,spr_backupper,001,Mi12,
,Bei,Dass,Die,Die,Sie,Mit,Manche,Es,Es,Man,Die,In,In,Die,Die,Wir,Er,Die,Im,Es,Wir,Bei,Die,Wir,Sie,Außer,Sie,Mit,Am,Es,Ich,Die,Alle,Außer,Dort,Die,Die,In,In,Beträchtliche,Er,Wir,In,Walter,Im,Außer,Dort,Bei,Nicht,In,Wir,Beträchtliche,Die,In,Außer,Sie,Jugendliche,Als,Ich,Ich,Ihr,Sie,Die,Am,100,Er,Sie,Viele,Das,Es,100,Bei,Er,Man,Die,Der,In,Die,Nicht,Er,Die,Wir,Die,Jetzt,Unter,Wir,Wir,Die,Wir,Die,Viele,Die,Fernab,Die,Jungtiere,Sie,Die,Danach,,,,,,,,,,,,,,,,,,,,,,,4,0,4,0,0,0,0,0,,,,,,None,,space,0.152647972107,,,,2017_Feb_01_1635,59.8723557936,spr_backupper,001,Mi12,
,der,es,Schule,Lösung,verbrauchen,dieser,Kreditnehmer,waren,wurden,machte,Schuhe,den,den,müden,Stücke,konnten,stellt,Eislaufbahnen,Fernrohr,hat,hatten,unserer,Formen,mussten,haben,dem,verlassen,dieser,äußersten,wurden,nehme,"Uhr,",Betten,den,türmen,Uhr,Autos,der,meinem,Stücke,stellt,übergaben,diesem,Scheel,Fernrohr,das,türmen,der,ein,einer,hatten,Stücke,Gäste,der,dem,verbrauchen,können,die,nehme,wurde,Blutdruck,hatte,Autos,äußeren,g,hat,verlassen,Tonnen,Tuch,waren,g,unserer,wurde,machte,Schuhe,Flug,meinem,Linie,ein,wurde,Kinder,haben,Schule,ist,keinen,mussten,übergaben,Teilnehmerinnen,haben,Kinder,Tonnen,Uhr,des,Gäste,sollten,hatte,Uhr,wurde,,,,,,,,,,,,,,,,,,,,,,,4,0,4,0,0,1,1,1,,,,,,,,space,0.817190170288,,,,2017_Feb_01_1635,59.8723557936,spr_backupper,001,Mi12,
,Feier,"regnete,",verbraucht,wird,60,Methode,sind,nur,Eimer,mal,in,Kakao,Kakao,Teilnehmer,wurden,dann,die,wurden,sahen,uns,in,Ankunft,wurden,uns,die,Bürgermeister,wegen,Methode,Rand,Eimer,eine,die,wurden,Bürgermeister,sich,schlug,beider,Tat,Studium,saftigen,die,dem,Zirkus,war,sahen,Essen,sich,Feier,Tropfen,Studie,in,saftiges,suchen,Tat,Essen,60,Kleidung,Sonne,eine,damals,kann,keine,beider,Rand,braunen,ein,wegen,gebrauchte,wurde,nur,brauner,Ankunft,trotz,mal,in,zum,Studium,101,Tropfen,trotz,fuhren,jede,verbraucht,genau,Umständen,uns,das,wussten,jede,fuhren,gebrauchter,schlug,Rummels,suchen,immer,keine,war,die,,,,,,,,,,,,,,,,,,,,,,,4,0,4,0,0,2,2,2,,,,,,,,space,0.983165979385,,,,2017_Feb_01_1635,59.8723557936,spr_backupper,001,Mi12,
,gedachte,hat,260.000,mit,Liter,kann,mit,kleinere,rote,wieder,Größe,gehören,gehören,wurden,aus,mit,Masse,mit,wir,die,Dänemark,stand,unter,durch,Erlebnisse,beschuldigten,des,kann,der,roter,große,er,mit,beschuldigten,Berge,"sporadisch,",beteiligten,wissen,las,Fleischs,Masse,Mann,werden,der,wir,kann,Berge,gedachte,königlichen,wurde,Dänemark,Fleisch,die,wissen,kann,Liter,bei,"unterging,",große,schnell,schon,Lust,beteiligter,der,Zuckers,Hemd,dem,Kleidung,dann,kleinere,Zucker,stand,des,wieder,Größe,Mond,habe,hält,königliches,dem,mit,Menge,260.000,die,können,durch,Auto,überwiegend,Menge,mit,Kleidung,"sporadisch,",wurde,die,auf,Lust,aus,Leinwand,,,,,,,,,,,,,,,,,,,,,,,4,0,4,0,0,3,3,3,,,,,,,,space,0.700323104858,,,,2017_Feb_01_1635,59.8723557936,spr_backupper,001,Mi12,
,man,uns,Kilowattstunden,"reichlichem,",sprudelndes,man,"sämtlichem,","Delikte,",Farbe,viel,36,immer,immer,mit,"wertvollem,","minimalem,",mit,dauerhaftem,den,Stimmung,gelegentlich,ein,"regelmäßigem,",Büschel,bei,die,schönen,man,Stadt,Farbe,Packung,"trug,","üblichem,",die,schmutziger,obwohl,Fahrer,wir,ich,wurden,mit,das,die,vierte,den,ich,schmutzige,man,Bluts,jetzt,einen,wurden,Wohnung,wir,ich,sprudelnden,ausreichendem,war,Packung,dank,bei,auf,Fahrer,Stadt,sind,aus,schönen,landen,mit,"Delikte,",sind,ein,bekannten,viel,36,dauerte,ich,nicht,Blut,bekannten,solch,alten,Kilowattstunden,richtige,Neuwahlen,Büschel,dem,"nicht,",alten,solchen,landen,obschon,schon,Wohnung,warmem,auf,"Japan,",aus,,,,,,,,,,,,,,,,,,,,,,,4,0,4,0,0,4,4,4,,,,,,,,space,1.8881418705,,,,2017_Feb_01_1635,59.8723557936,spr_backupper,001,Mi12,
,den,die,elektrischer,purem,Trinkwasser.,eine,künftigem,deren,geschleudert.,Lärm,hätten,350,350,zusätzlichem,klassischen,sauberen,einem,feinem,roten,ziemlich,einen,Glas,kaltem,frischen,"frischem,",Störenfriede,Wetters,eine,liegen,geschleudert.,salziger,war,harten,Störenfriede,Wäsche.,sie,wurden,um,mehr,serviert.,einem,Auto,Tiere,Bundespräsident.,roten,leider,Wäsche.,der,hat,"nachgewiesen,",gelegentlichen,serviert.,des,von,leider,Trinkwassers.,monatlichem,die,salzige,täglichem,minimalem,noch,wurden,liegen,auf,feinem,Wetter,im,"reichem,",derer,auf,Glas,Skandals,Lärm,würden,ungefähr,mehr,am,hat,Skandal,unzureichenden,Krams,elektrische,"Zeit,",vor,frisches,Mann,was,Kram,unzureichenden,im,sie,immer,des,weichem,noch,die,seltenem,,,,,,,,,,,,,,,,,,,,,,,4,0,4,0,0,5,5,5,,,,,,,,space,0.805647850037,,,,2017_Feb_01_1635,59.8723557936,spr_backupper,001,Mi12,
,Soldaten,Stimmung,Energie.,Alkohol,nan,große,Einkommen,sie,nan,um,seiner,ml,ml,schwarzem,Schmuck,Kraftstoff,Esslöffel,Kunsteis,Planeten,"vermiest,",Besucher.,köstlicher,Abduschen,Grases,kaltem,jeden.,die,große,die,nan,Wurst,aus,Schaumstoff,jeden.,nan,defekt,verschrottet.,die,als,nan,Esslöffel,mehr,artgerecht,nan,Planet,nichts,nan,Soldaten,den,dass,Besucher.,nan,Herrn,den,nichts,nan,Taschengeld,Flut,Wurst,grünen,täglichen,eine,verschrottet.,die,jeden,dichten,die,Müll.,goldenen,sie,jeden,köstlichen,wiedergewählt.,um,seiner,drei,als,Hauptbahnhof.,den,wiedergewählt.,Helmen,aus,Energie.,um,Dezember,Gras,mehr,Tupperware,aus,Helmen,Müll.,defekt,ruhig,Herrn,Untergrund,eine,er,dichten,,,,,,,,,,,,,,,,,,,,,,,4,0,4,0,0,6,6,6,,,,,,,,space,0.710385084152,,,,2017_Feb_01_1635,59.8723557936,spr_backupper,001,Mi12,
,des,ziemlich,nan,verdünnt.,nan,Menge,haftbar.,überführt,nan,jede,Frau,warmer,warme,Kaffee,umgearbeitet.,fahren.,warmen,eingesprüht.,ganz,dass,nan,Wein,gehärtet.,zwängen.,Saft,nan,Wohnung.,Menge,Slums.,nan,mit,Japan.,gefertigt.,nan,nan,war.,nan,Probleme,einmal,nan,warmem,als,gehalten.,nan,ganz,mitbringen.,nan,des,Boden,das,nan,nan,Gantenbeins.,Problemen,mitbringen.,nan,selber,zurückgekehrt.,mit,Tee,Einsatz,Sammlung,nan,Slums.,Fall,Stoff,Wohnung.,nan,Besatz,überführt,Fall,Weins,nan,jede,Frau,Tage.,einmal,nan,Boden,nan,zur,dem,nan,Nadelhölzer,stattfinden.,zwängen.,als,ist.,dem,zur,nan,war.,diskutiert.,Gantenbein.,liegen.,Sammlung,trug.,Gewebe,,,,,,,,,,,,,,,,,,,,,,,4,0,4,0,0,7,7,7,,,,,,,,space,0.51814198494,,,,2017_Feb_01_1635,59.8723557936,spr_backupper,001,Mi12,
,zweiten,vermiest.,nan,nan,nan,dunkler,nan,wurden.,nan,Menge,gepasst.,Milch.,Milch.,wiederbelebt.,nan,nan,Honigs,nan,deutlich.,es,nan,schon,nan,nan,besprochen.,nan,nan,dunkle,nan,nan,an,nan,nan,nan,nan,nan,nan,im,Rilke.,nan,Honig,gerne.,nan,nan,deutlich.,nan,nan,zweiten,berührt.,Medikament,nan,nan,nan,im,nan,nan,kaufen.,nan,an,wieder,sinken.,dummer,nan,nan,genug.,gefertigt.,nan,nan,rekonstruiert.,wurden.,genug.,schon,nan,Menge,gepasst,nan,Rilke,nan,berührt.,nan,Schule.,Haus,nan,umzusetzen.,nan,nan,gerne.,nan,Haus,Schule.,nan,nan,nan,nan,nan,dumme,nan,wiederhergestellt.,,,,,,,,,,,,,,,,,,,,,,,4,0,4,0,0,8,8,8,,,,,,,,space,0.718426942825,,,,2017_Feb_01_1635,59.8723557936,spr_backupper,001,Mi12,
,,,,,,,,,,,,,,,,,,,,,,,,,,,,,,,,,,,,,,,,,,,,,,,,,,,,,,,,,,,,,,,,,,,,,,,,,,,,,,,,,,,,,,,,,,,,,,,,,,,,,,,,,,,,,,,,,,,,,,,,,4,0,4,0,,,,,,,,,,,,,,None,j,4.68966794014,2017_Feb_01_1635,59.8723557936,spr_backupper,001,Mi12,
,Bei,Dass,Die,Die,Sie,Mit,Manche,Es,Es,Man,Die,In,In,Die,Die,Wir,Er,Die,Im,Es,Wir,Bei,Die,Wir,Sie,Außer,Sie,Mit,Am,Es,Ich,Die,Alle,Außer,Dort,Die,Die,In,In,Beträchtliche,Er,Wir,In,Walter,Im,Außer,Dort,Bei,Nicht,In,Wir,Beträchtliche,Die,In,Außer,Sie,Jugendliche,Als,Ich,Ich,Ihr,Sie,Die,Am,100,Er,Sie,Viele,Das,Es,100,Bei,Er,Man,Die,Der,In,Die,Nicht,Er,Die,Wir,Die,Jetzt,Unter,Wir,Wir,Die,Wir,Die,Viele,Die,Fernab,Die,Jungtiere,Sie,Die,Danach,,,,,,,,,,,,,,,,,,,,,,,5,0,5,0,0,0,0,0,,,,,,space,0.636680841446,space,0.571059942245,,,,2017_Feb_01_1635,59.8723557936,spr_backupper,001,Mi12,
,der,es,Schule,Lösung,verbrauchen,dieser,Kreditnehmer,waren,wurden,machte,Schuhe,den,den,müden,Stücke,konnten,stellt,Eislaufbahnen,Fernrohr,hat,hatten,unserer,Formen,mussten,haben,dem,verlassen,dieser,äußersten,wurden,nehme,"Uhr,",Betten,den,türmen,Uhr,Autos,der,meinem,Stücke,stellt,übergaben,diesem,Scheel,Fernrohr,das,türmen,der,ein,einer,hatten,Stücke,Gäste,der,dem,verbrauchen,können,die,nehme,wurde,Blutdruck,hatte,Autos,äußeren,g,hat,verlassen,Tonnen,Tuch,waren,g,unserer,wurde,machte,Schuhe,Flug,meinem,Linie,ein,wurde,Kinder,haben,Schule,ist,keinen,mussten,übergaben,Teilnehmerinnen,haben,Kinder,Tonnen,Uhr,des,Gäste,sollten,hatte,Uhr,wurde,,,,,,,,,,,,,,,,,,,,,,,5,0,5,0,0,1,1,1,,,,,,,,space,0.499120950699,,,,2017_Feb_01_1635,59.8723557936,spr_backupper,001,Mi12,
,Feier,"regnete,",verbraucht,wird,60,Methode,sind,nur,Eimer,mal,in,Kakao,Kakao,Teilnehmer,wurden,dann,die,wurden,sahen,uns,in,Ankunft,wurden,uns,die,Bürgermeister,wegen,Methode,Rand,Eimer,eine,die,wurden,Bürgermeister,sich,schlug,beider,Tat,Studium,saftigen,die,dem,Zirkus,war,sahen,Essen,sich,Feier,Tropfen,Studie,in,saftiges,suchen,Tat,Essen,60,Kleidung,Sonne,eine,damals,kann,keine,beider,Rand,braunen,ein,wegen,gebrauchte,wurde,nur,brauner,Ankunft,trotz,mal,in,zum,Studium,101,Tropfen,trotz,fuhren,jede,verbraucht,genau,Umständen,uns,das,wussten,jede,fuhren,gebrauchter,schlug,Rummels,suchen,immer,keine,war,die,,,,,,,,,,,,,,,,,,,,,,,5,0,5,0,0,2,2,2,,,,,,,,space,0.554142951965,,,,2017_Feb_01_1635,59.8723557936,spr_backupper,001,Mi12,
,gedachte,hat,260.000,mit,Liter,kann,mit,kleinere,rote,wieder,Größe,gehören,gehören,wurden,aus,mit,Masse,mit,wir,die,Dänemark,stand,unter,durch,Erlebnisse,beschuldigten,des,kann,der,roter,große,er,mit,beschuldigten,Berge,"sporadisch,",beteiligten,wissen,las,Fleischs,Masse,Mann,werden,der,wir,kann,Berge,gedachte,königlichen,wurde,Dänemark,Fleisch,die,wissen,kann,Liter,bei,"unterging,",große,schnell,schon,Lust,beteiligter,der,Zuckers,Hemd,dem,Kleidung,dann,kleinere,Zucker,stand,des,wieder,Größe,Mond,habe,hält,königliches,dem,mit,Menge,260.000,die,können,durch,Auto,überwiegend,Menge,mit,Kleidung,"sporadisch,",wurde,die,auf,Lust,aus,Leinwand,,,,,,,,,,,,,,,,,,,,,,,5,0,5,0,0,3,3,3,,,,,,,,space,0.705254077911,,,,2017_Feb_01_1635,59.8723557936,spr_backupper,001,Mi12,
,man,uns,Kilowattstunden,"reichlichem,",sprudelndes,man,"sämtlichem,","Delikte,",Farbe,viel,36,immer,immer,mit,"wertvollem,","minimalem,",mit,dauerhaftem,den,Stimmung,gelegentlich,ein,"regelmäßigem,",Büschel,bei,die,schönen,man,Stadt,Farbe,Packung,"trug,","üblichem,",die,schmutziger,obwohl,Fahrer,wir,ich,wurden,mit,das,die,vierte,den,ich,schmutzige,man,Bluts,jetzt,einen,wurden,Wohnung,wir,ich,sprudelnden,ausreichendem,war,Packung,dank,bei,auf,Fahrer,Stadt,sind,aus,schönen,landen,mit,"Delikte,",sind,ein,bekannten,viel,36,dauerte,ich,nicht,Blut,bekannten,solch,alten,Kilowattstunden,richtige,Neuwahlen,Büschel,dem,"nicht,",alten,solchen,landen,obschon,schon,Wohnung,warmem,auf,"Japan,",aus,,,,,,,,,,,,,,,,,,,,,,,5,0,5,0,0,4,4,4,,,,,,,,space,0.493715047836,,,,2017_Feb_01_1635,59.8723557936,spr_backupper,001,Mi12,
,den,die,elektrischer,purem,Trinkwasser.,eine,künftigem,deren,geschleudert.,Lärm,hätten,350,350,zusätzlichem,klassischen,sauberen,einem,feinem,roten,ziemlich,einen,Glas,kaltem,frischen,"frischem,",Störenfriede,Wetters,eine,liegen,geschleudert.,salziger,war,harten,Störenfriede,Wäsche.,sie,wurden,um,mehr,serviert.,einem,Auto,Tiere,Bundespräsident.,roten,leider,Wäsche.,der,hat,"nachgewiesen,",gelegentlichen,serviert.,des,von,leider,Trinkwassers.,monatlichem,die,salzige,täglichem,minimalem,noch,wurden,liegen,auf,feinem,Wetter,im,"reichem,",derer,auf,Glas,Skandals,Lärm,würden,ungefähr,mehr,am,hat,Skandal,unzureichenden,Krams,elektrische,"Zeit,",vor,frisches,Mann,was,Kram,unzureichenden,im,sie,immer,des,weichem,noch,die,seltenem,,,,,,,,,,,,,,,,,,,,,,,5,0,5,0,0,5,5,5,,,,,,,,space,0.544283866882,,,,2017_Feb_01_1635,59.8723557936,spr_backupper,001,Mi12,
,Soldaten,Stimmung,Energie.,Alkohol,nan,große,Einkommen,sie,nan,um,seiner,ml,ml,schwarzem,Schmuck,Kraftstoff,Esslöffel,Kunsteis,Planeten,"vermiest,",Besucher.,köstlicher,Abduschen,Grases,kaltem,jeden.,die,große,die,nan,Wurst,aus,Schaumstoff,jeden.,nan,defekt,verschrottet.,die,als,nan,Esslöffel,mehr,artgerecht,nan,Planet,nichts,nan,Soldaten,den,dass,Besucher.,nan,Herrn,den,nichts,nan,Taschengeld,Flut,Wurst,grünen,täglichen,eine,verschrottet.,die,jeden,dichten,die,Müll.,goldenen,sie,jeden,köstlichen,wiedergewählt.,um,seiner,drei,als,Hauptbahnhof.,den,wiedergewählt.,Helmen,aus,Energie.,um,Dezember,Gras,mehr,Tupperware,aus,Helmen,Müll.,defekt,ruhig,Herrn,Untergrund,eine,er,dichten,,,,,,,,,,,,,,,,,,,,,,,5,0,5,0,0,6,6,6,,,,,,,,space,0.56970000267,,,,2017_Feb_01_1635,59.8723557936,spr_backupper,001,Mi12,
,des,ziemlich,nan,verdünnt.,nan,Menge,haftbar.,überführt,nan,jede,Frau,warmer,warme,Kaffee,umgearbeitet.,fahren.,warmen,eingesprüht.,ganz,dass,nan,Wein,gehärtet.,zwängen.,Saft,nan,Wohnung.,Menge,Slums.,nan,mit,Japan.,gefertigt.,nan,nan,war.,nan,Probleme,einmal,nan,warmem,als,gehalten.,nan,ganz,mitbringen.,nan,des,Boden,das,nan,nan,Gantenbeins.,Problemen,mitbringen.,nan,selber,zurückgekehrt.,mit,Tee,Einsatz,Sammlung,nan,Slums.,Fall,Stoff,Wohnung.,nan,Besatz,überführt,Fall,Weins,nan,jede,Frau,Tage.,einmal,nan,Boden,nan,zur,dem,nan,Nadelhölzer,stattfinden.,zwängen.,als,ist.,dem,zur,nan,war.,diskutiert.,Gantenbein.,liegen.,Sammlung,trug.,Gewebe,,,,,,,,,,,,,,,,,,,,,,,5,0,5,0,0,7,7,7,,,,,,,,space,0.47061920166,,,,2017_Feb_01_1635,59.8723557936,spr_backupper,001,Mi12,
,zweiten,vermiest.,nan,nan,nan,dunkler,nan,wurden.,nan,Menge,gepasst.,Milch.,Milch.,wiederbelebt.,nan,nan,Honigs,nan,deutlich.,es,nan,schon,nan,nan,besprochen.,nan,nan,dunkle,nan,nan,an,nan,nan,nan,nan,nan,nan,im,Rilke.,nan,Honig,gerne.,nan,nan,deutlich.,nan,nan,zweiten,berührt.,Medikament,nan,nan,nan,im,nan,nan,kaufen.,nan,an,wieder,sinken.,dummer,nan,nan,genug.,gefertigt.,nan,nan,rekonstruiert.,wurden.,genug.,schon,nan,Menge,gepasst,nan,Rilke,nan,berührt.,nan,Schule.,Haus,nan,umzusetzen.,nan,nan,gerne.,nan,Haus,Schule.,nan,nan,nan,nan,nan,dumme,nan,wiederhergestellt.,,,,,,,,,,,,,,,,,,,,,,,5,0,5,0,0,8,8,8,,,,,,,,space,0.465434074402,,,,2017_Feb_01_1635,59.8723557936,spr_backupper,001,Mi12,
,Weltkriegs.,nan,nan,nan,nan,Materie,nan,nan,nan,heiße,nan,nan,nan,nan,nan,nan,her.,nan,nan,regnete.,nan,auf,nan,nan,nan,nan,nan,Materie,nan,nan,den,nan,nan,nan,nan,nan,nan,Landkreis.,nan,nan,her.,nan,nan,nan,nan,nan,nan,Weltkriegs.,nan,nicht,nan,nan,nan,Landkreis.,nan,nan,nan,nan,den,fit.,nan,Sprüche.,nan,nan,nan,nan,nan,nan,nan,nan,nan,auf,nan,heißer,haben.,nan,gelesen.,nan,nan,nan,nan,geschafft.,nan,nan,nan,nan,nan,nan,geschafft.,nan,nan,nan,nan,nan,nan,Sprüche.,nan,nan,,,,,,,,,,,,,,,,,,,,,,,5,0,5,0,0,9,9,9,,,,,,,,space,0.489582777023,,,,2017_Feb_01_1635,59.8723557936,spr_backupper,001,Mi12,
,nan,nan,nan,nan,nan,erzeugen.,nan,nan,nan,Luft.,nan,nan,nan,nan,nan,nan,nan,nan,nan,nan,nan,dem,nan,nan,nan,nan,nan,erzeugen.,nan,nan,See.,nan,nan,nan,nan,nan,nan,nan,nan,nan,nan,nan,nan,nan,nan,nan,nan,nan,nan,wirkt.,nan,nan,nan,nan,nan,nan,nan,nan,See.,nan,nan,nan,nan,nan,nan,nan,nan,nan,nan,nan,nan,dem,nan,Luft.,nan,nan,nan,nan,nan,nan,nan,nan,nan,nan,nan,nan,nan,nan,nan,nan,nan,nan,nan,nan,nan,nan,nan,nan,,,,,,,,,,,,,,,,,,,,,,,5,0,5,0,0,10,10,10,,,,,,,,space,0.570703029633,,,,2017_Feb_01_1635,59.8723557936,spr_backupper,001,Mi12,
,,,,,,,,,,,,,,,,,,,,,,,,,,,,,,,,,,,,,,,,,,,,,,,,,,,,,,,,,,,,,,,,,,,,,,,,,,,,,,,,,,,,,,,,,,,,,,,,,,,,,,,,,,,,,,,,,,,,,,,,,5,0,5,0,,,,,,,,,,,,,,None,n,3.97286891937,2017_Feb_01_1635,59.8723557936,spr_backupper,001,Mi12,
,Bei,Dass,Die,Die,Sie,Mit,Manche,Es,Es,Man,Die,In,In,Die,Die,Wir,Er,Die,Im,Es,Wir,Bei,Die,Wir,Sie,Außer,Sie,Mit,Am,Es,Ich,Die,Alle,Außer,Dort,Die,Die,In,In,Beträchtliche,Er,Wir,In,Walter,Im,Außer,Dort,Bei,Nicht,In,Wir,Beträchtliche,Die,In,Außer,Sie,Jugendliche,Als,Ich,Ich,Ihr,Sie,Die,Am,100,Er,Sie,Viele,Das,Es,100,Bei,Er,Man,Die,Der,In,Die,Nicht,Er,Die,Wir,Die,Jetzt,Unter,Wir,Wir,Die,Wir,Die,Viele,Die,Fernab,Die,Jungtiere,Sie,Die,Danach,,,,,,,,,,,,,,,,,,,,,,,6,0,6,0,0,0,0,0,,,,,,space,0.554520130157,space,0.465065002441,,,,2017_Feb_01_1635,59.8723557936,spr_backupper,001,Mi12,
,der,es,Schule,Lösung,verbrauchen,dieser,Kreditnehmer,waren,wurden,machte,Schuhe,den,den,müden,Stücke,konnten,stellt,Eislaufbahnen,Fernrohr,hat,hatten,unserer,Formen,mussten,haben,dem,verlassen,dieser,äußersten,wurden,nehme,"Uhr,",Betten,den,türmen,Uhr,Autos,der,meinem,Stücke,stellt,übergaben,diesem,Scheel,Fernrohr,das,türmen,der,ein,einer,hatten,Stücke,Gäste,der,dem,verbrauchen,können,die,nehme,wurde,Blutdruck,hatte,Autos,äußeren,g,hat,verlassen,Tonnen,Tuch,waren,g,unserer,wurde,machte,Schuhe,Flug,meinem,Linie,ein,wurde,Kinder,haben,Schule,ist,keinen,mussten,übergaben,Teilnehmerinnen,haben,Kinder,Tonnen,Uhr,des,Gäste,sollten,hatte,Uhr,wurde,,,,,,,,,,,,,,,,,,,,,,,6,0,6,0,0,1,1,1,,,,,,,,space,0.398335933685,,,,2017_Feb_01_1635,59.8723557936,spr_backupper,001,Mi12,
,Feier,"regnete,",verbraucht,wird,60,Methode,sind,nur,Eimer,mal,in,Kakao,Kakao,Teilnehmer,wurden,dann,die,wurden,sahen,uns,in,Ankunft,wurden,uns,die,Bürgermeister,wegen,Methode,Rand,Eimer,eine,die,wurden,Bürgermeister,sich,schlug,beider,Tat,Studium,saftigen,die,dem,Zirkus,war,sahen,Essen,sich,Feier,Tropfen,Studie,in,saftiges,suchen,Tat,Essen,60,Kleidung,Sonne,eine,damals,kann,keine,beider,Rand,braunen,ein,wegen,gebrauchte,wurde,nur,brauner,Ankunft,trotz,mal,in,zum,Studium,101,Tropfen,trotz,fuhren,jede,verbraucht,genau,Umständen,uns,das,wussten,jede,fuhren,gebrauchter,schlug,Rummels,suchen,immer,keine,war,die,,,,,,,,,,,,,,,,,,,,,,,6,0,6,0,0,2,2,2,,,,,,,,space,0.442873954773,,,,2017_Feb_01_1635,59.8723557936,spr_backupper,001,Mi12,
,gedachte,hat,260.000,mit,Liter,kann,mit,kleinere,rote,wieder,Größe,gehören,gehören,wurden,aus,mit,Masse,mit,wir,die,Dänemark,stand,unter,durch,Erlebnisse,beschuldigten,des,kann,der,roter,große,er,mit,beschuldigten,Berge,"sporadisch,",beteiligten,wissen,las,Fleischs,Masse,Mann,werden,der,wir,kann,Berge,gedachte,königlichen,wurde,Dänemark,Fleisch,die,wissen,kann,Liter,bei,"unterging,",große,schnell,schon,Lust,beteiligter,der,Zuckers,Hemd,dem,Kleidung,dann,kleinere,Zucker,stand,des,wieder,Größe,Mond,habe,hält,königliches,dem,mit,Menge,260.000,die,können,durch,Auto,überwiegend,Menge,mit,Kleidung,"sporadisch,",wurde,die,auf,Lust,aus,Leinwand,,,,,,,,,,,,,,,,,,,,,,,6,0,6,0,0,3,3,3,,,,,,,,space,0.520481109619,,,,2017_Feb_01_1635,59.8723557936,spr_backupper,001,Mi12,
,man,uns,Kilowattstunden,"reichlichem,",sprudelndes,man,"sämtlichem,","Delikte,",Farbe,viel,36,immer,immer,mit,"wertvollem,","minimalem,",mit,dauerhaftem,den,Stimmung,gelegentlich,ein,"regelmäßigem,",Büschel,bei,die,schönen,man,Stadt,Farbe,Packung,"trug,","üblichem,",die,schmutziger,obwohl,Fahrer,wir,ich,wurden,mit,das,die,vierte,den,ich,schmutzige,man,Bluts,jetzt,einen,wurden,Wohnung,wir,ich,sprudelnden,ausreichendem,war,Packung,dank,bei,auf,Fahrer,Stadt,sind,aus,schönen,landen,mit,"Delikte,",sind,ein,bekannten,viel,36,dauerte,ich,nicht,Blut,bekannten,solch,alten,Kilowattstunden,richtige,Neuwahlen,Büschel,dem,"nicht,",alten,solchen,landen,obschon,schon,Wohnung,warmem,auf,"Japan,",aus,,,,,,,,,,,,,,,,,,,,,,,6,0,6,0,0,4,4,4,,,,,,,,space,0.525135040283,,,,2017_Feb_01_1635,59.8723557936,spr_backupper,001,Mi12,
,den,die,elektrischer,purem,Trinkwasser.,eine,künftigem,deren,geschleudert.,Lärm,hätten,350,350,zusätzlichem,klassischen,sauberen,einem,feinem,roten,ziemlich,einen,Glas,kaltem,frischen,"frischem,",Störenfriede,Wetters,eine,liegen,geschleudert.,salziger,war,harten,Störenfriede,Wäsche.,sie,wurden,um,mehr,serviert.,einem,Auto,Tiere,Bundespräsident.,roten,leider,Wäsche.,der,hat,"nachgewiesen,",gelegentlichen,serviert.,des,von,leider,Trinkwassers.,monatlichem,die,salzige,täglichem,minimalem,noch,wurden,liegen,auf,feinem,Wetter,im,"reichem,",derer,auf,Glas,Skandals,Lärm,würden,ungefähr,mehr,am,hat,Skandal,unzureichenden,Krams,elektrische,"Zeit,",vor,frisches,Mann,was,Kram,unzureichenden,im,sie,immer,des,weichem,noch,die,seltenem,,,,,,,,,,,,,,,,,,,,,,,6,0,6,0,0,5,5,5,,,,,,,,space,0.587702989578,,,,2017_Feb_01_1635,59.8723557936,spr_backupper,001,Mi12,
,,,,,,,,,,,,,,,,,,,,,,,,,,,,,,,,,,,,,,,,,,,,,,,,,,,,,,,,,,,,,,,,,,,,,,,,,,,,,,,,,,,,,,,,,,,,,,,,,,,,,,,,,,,,,,,,,,,,,,,,,6,0,6,0,,,,,,,,,,,,,,None,n,4.28641605377,2017_Feb_01_1635,59.8723557936,spr_backupper,001,Mi12,
,Bei,Dass,Die,Die,Sie,Mit,Manche,Es,Es,Man,Die,In,In,Die,Die,Wir,Er,Die,Im,Es,Wir,Bei,Die,Wir,Sie,Außer,Sie,Mit,Am,Es,Ich,Die,Alle,Außer,Dort,Die,Die,In,In,Beträchtliche,Er,Wir,In,Walter,Im,Außer,Dort,Bei,Nicht,In,Wir,Beträchtliche,Die,In,Außer,Sie,Jugendliche,Als,Ich,Ich,Ihr,Sie,Die,Am,100,Er,Sie,Viele,Das,Es,100,Bei,Er,Man,Die,Der,In,Die,Nicht,Er,Die,Wir,Die,Jetzt,Unter,Wir,Wir,Die,Wir,Die,Viele,Die,Fernab,Die,Jungtiere,Sie,Die,Danach,,,,,,,,,,,,,,,,,,,,,,,7,0,7,0,0,0,0,0,,,,,,space,0.519921064377,space,0.418899059296,,,,2017_Feb_01_1635,59.8723557936,spr_backupper,001,Mi12,
,der,es,Schule,Lösung,verbrauchen,dieser,Kreditnehmer,waren,wurden,machte,Schuhe,den,den,müden,Stücke,konnten,stellt,Eislaufbahnen,Fernrohr,hat,hatten,unserer,Formen,mussten,haben,dem,verlassen,dieser,äußersten,wurden,nehme,"Uhr,",Betten,den,türmen,Uhr,Autos,der,meinem,Stücke,stellt,übergaben,diesem,Scheel,Fernrohr,das,türmen,der,ein,einer,hatten,Stücke,Gäste,der,dem,verbrauchen,können,die,nehme,wurde,Blutdruck,hatte,Autos,äußeren,g,hat,verlassen,Tonnen,Tuch,waren,g,unserer,wurde,machte,Schuhe,Flug,meinem,Linie,ein,wurde,Kinder,haben,Schule,ist,keinen,mussten,übergaben,Teilnehmerinnen,haben,Kinder,Tonnen,Uhr,des,Gäste,sollten,hatte,Uhr,wurde,,,,,,,,,,,,,,,,,,,,,,,7,0,7,0,0,1,1,1,,,,,,,,space,0.487247943878,,,,2017_Feb_01_1635,59.8723557936,spr_backupper,001,Mi12,
,Feier,"regnete,",verbraucht,wird,60,Methode,sind,nur,Eimer,mal,in,Kakao,Kakao,Teilnehmer,wurden,dann,die,wurden,sahen,uns,in,Ankunft,wurden,uns,die,Bürgermeister,wegen,Methode,Rand,Eimer,eine,die,wurden,Bürgermeister,sich,schlug,beider,Tat,Studium,saftigen,die,dem,Zirkus,war,sahen,Essen,sich,Feier,Tropfen,Studie,in,saftiges,suchen,Tat,Essen,60,Kleidung,Sonne,eine,damals,kann,keine,beider,Rand,braunen,ein,wegen,gebrauchte,wurde,nur,brauner,Ankunft,trotz,mal,in,zum,Studium,101,Tropfen,trotz,fuhren,jede,verbraucht,genau,Umständen,uns,das,wussten,jede,fuhren,gebrauchter,schlug,Rummels,suchen,immer,keine,war,die,,,,,,,,,,,,,,,,,,,,,,,7,0,7,0,0,2,2,2,,,,,,,,space,0.619002819061,,,,2017_Feb_01_1635,59.8723557936,spr_backupper,001,Mi12,
,gedachte,hat,260.000,mit,Liter,kann,mit,kleinere,rote,wieder,Größe,gehören,gehören,wurden,aus,mit,Masse,mit,wir,die,Dänemark,stand,unter,durch,Erlebnisse,beschuldigten,des,kann,der,roter,große,er,mit,beschuldigten,Berge,"sporadisch,",beteiligten,wissen,las,Fleischs,Masse,Mann,werden,der,wir,kann,Berge,gedachte,königlichen,wurde,Dänemark,Fleisch,die,wissen,kann,Liter,bei,"unterging,",große,schnell,schon,Lust,beteiligter,der,Zuckers,Hemd,dem,Kleidung,dann,kleinere,Zucker,stand,des,wieder,Größe,Mond,habe,hält,königliches,dem,mit,Menge,260.000,die,können,durch,Auto,überwiegend,Menge,mit,Kleidung,"sporadisch,",wurde,die,auf,Lust,aus,Leinwand,,,,,,,,,,,,,,,,,,,,,,,7,0,7,0,0,3,3,3,,,,,,,,space,1.00749611855,,,,2017_Feb_01_1635,59.8723557936,spr_backupper,001,Mi12,
,man,uns,Kilowattstunden,"reichlichem,",sprudelndes,man,"sämtlichem,","Delikte,",Farbe,viel,36,immer,immer,mit,"wertvollem,","minimalem,",mit,dauerhaftem,den,Stimmung,gelegentlich,ein,"regelmäßigem,",Büschel,bei,die,schönen,man,Stadt,Farbe,Packung,"trug,","üblichem,",die,schmutziger,obwohl,Fahrer,wir,ich,wurden,mit,das,die,vierte,den,ich,schmutzige,man,Bluts,jetzt,einen,wurden,Wohnung,wir,ich,sprudelnden,ausreichendem,war,Packung,dank,bei,auf,Fahrer,Stadt,sind,aus,schönen,landen,mit,"Delikte,",sind,ein,bekannten,viel,36,dauerte,ich,nicht,Blut,bekannten,solch,alten,Kilowattstunden,richtige,Neuwahlen,Büschel,dem,"nicht,",alten,solchen,landen,obschon,schon,Wohnung,warmem,auf,"Japan,",aus,,,,,,,,,,,,,,,,,,,,,,,7,0,7,0,0,4,4,4,,,,,,,,space,0.678286790848,,,,2017_Feb_01_1635,59.8723557936,spr_backupper,001,Mi12,
,den,die,elektrischer,purem,Trinkwasser.,eine,künftigem,deren,geschleudert.,Lärm,hätten,350,350,zusätzlichem,klassischen,sauberen,einem,feinem,roten,ziemlich,einen,Glas,kaltem,frischen,"frischem,",Störenfriede,Wetters,eine,liegen,geschleudert.,salziger,war,harten,Störenfriede,Wäsche.,sie,wurden,um,mehr,serviert.,einem,Auto,Tiere,Bundespräsident.,roten,leider,Wäsche.,der,hat,"nachgewiesen,",gelegentlichen,serviert.,des,von,leider,Trinkwassers.,monatlichem,die,salzige,täglichem,minimalem,noch,wurden,liegen,auf,feinem,Wetter,im,"reichem,",derer,auf,Glas,Skandals,Lärm,würden,ungefähr,mehr,am,hat,Skandal,unzureichenden,Krams,elektrische,"Zeit,",vor,frisches,Mann,was,Kram,unzureichenden,im,sie,immer,des,weichem,noch,die,seltenem,,,,,,,,,,,,,,,,,,,,,,,7,0,7,0,0,5,5,5,,,,,,,,space,0.440491914749,,,,2017_Feb_01_1635,59.8723557936,spr_backupper,001,Mi12,
,Soldaten,Stimmung,Energie.,Alkohol,nan,große,Einkommen,sie,nan,um,seiner,ml,ml,schwarzem,Schmuck,Kraftstoff,Esslöffel,Kunsteis,Planeten,"vermiest,",Besucher.,köstlicher,Abduschen,Grases,kaltem,jeden.,die,große,die,nan,Wurst,aus,Schaumstoff,jeden.,nan,defekt,verschrottet.,die,als,nan,Esslöffel,mehr,artgerecht,nan,Planet,nichts,nan,Soldaten,den,dass,Besucher.,nan,Herrn,den,nichts,nan,Taschengeld,Flut,Wurst,grünen,täglichen,eine,verschrottet.,die,jeden,dichten,die,Müll.,goldenen,sie,jeden,köstlichen,wiedergewählt.,um,seiner,drei,als,Hauptbahnhof.,den,wiedergewählt.,Helmen,aus,Energie.,um,Dezember,Gras,mehr,Tupperware,aus,Helmen,Müll.,defekt,ruhig,Herrn,Untergrund,eine,er,dichten,,,,,,,,,,,,,,,,,,,,,,,7,0,7,0,0,6,6,6,,,,,,,,space,0.552966117859,,,,2017_Feb_01_1635,59.8723557936,spr_backupper,001,Mi12,
,,,,,,,,,,,,,,,,,,,,,,,,,,,,,,,,,,,,,,,,,,,,,,,,,,,,,,,,,,,,,,,,,,,,,,,,,,,,,,,,,,,,,,,,,,,,,,,,,,,,,,,,,,,,,,,,,,,,,,,,,7,0,7,0,,,,,,,,,,,,,,None,j,4.14182209969,2017_Feb_01_1635,59.8723557936,spr_backupper,001,Mi12,
,Bei,Dass,Die,Die,Sie,Mit,Manche,Es,Es,Man,Die,In,In,Die,Die,Wir,Er,Die,Im,Es,Wir,Bei,Die,Wir,Sie,Außer,Sie,Mit,Am,Es,Ich,Die,Alle,Außer,Dort,Die,Die,In,In,Beträchtliche,Er,Wir,In,Walter,Im,Außer,Dort,Bei,Nicht,In,Wir,Beträchtliche,Die,In,Außer,Sie,Jugendliche,Als,Ich,Ich,Ihr,Sie,Die,Am,100,Er,Sie,Viele,Das,Es,100,Bei,Er,Man,Die,Der,In,Die,Nicht,Er,Die,Wir,Die,Jetzt,Unter,Wir,Wir,Die,Wir,Die,Viele,Die,Fernab,Die,Jungtiere,Sie,Die,Danach,,,,,,,,,,,,,,,,,,,,,,,8,0,8,0,0,0,0,0,,,,,,space,0.988883018494,space,0.568735122681,,,,2017_Feb_01_1635,59.8723557936,spr_backupper,001,Mi12,
,der,es,Schule,Lösung,verbrauchen,dieser,Kreditnehmer,waren,wurden,machte,Schuhe,den,den,müden,Stücke,konnten,stellt,Eislaufbahnen,Fernrohr,hat,hatten,unserer,Formen,mussten,haben,dem,verlassen,dieser,äußersten,wurden,nehme,"Uhr,",Betten,den,türmen,Uhr,Autos,der,meinem,Stücke,stellt,übergaben,diesem,Scheel,Fernrohr,das,türmen,der,ein,einer,hatten,Stücke,Gäste,der,dem,verbrauchen,können,die,nehme,wurde,Blutdruck,hatte,Autos,äußeren,g,hat,verlassen,Tonnen,Tuch,waren,g,unserer,wurde,machte,Schuhe,Flug,meinem,Linie,ein,wurde,Kinder,haben,Schule,ist,keinen,mussten,übergaben,Teilnehmerinnen,haben,Kinder,Tonnen,Uhr,des,Gäste,sollten,hatte,Uhr,wurde,,,,,,,,,,,,,,,,,,,,,,,8,0,8,0,0,1,1,1,,,,,,,,space,0.458822011948,,,,2017_Feb_01_1635,59.8723557936,spr_backupper,001,Mi12,
,Feier,"regnete,",verbraucht,wird,60,Methode,sind,nur,Eimer,mal,in,Kakao,Kakao,Teilnehmer,wurden,dann,die,wurden,sahen,uns,in,Ankunft,wurden,uns,die,Bürgermeister,wegen,Methode,Rand,Eimer,eine,die,wurden,Bürgermeister,sich,schlug,beider,Tat,Studium,saftigen,die,dem,Zirkus,war,sahen,Essen,sich,Feier,Tropfen,Studie,in,saftiges,suchen,Tat,Essen,60,Kleidung,Sonne,eine,damals,kann,keine,beider,Rand,braunen,ein,wegen,gebrauchte,wurde,nur,brauner,Ankunft,trotz,mal,in,zum,Studium,101,Tropfen,trotz,fuhren,jede,verbraucht,genau,Umständen,uns,das,wussten,jede,fuhren,gebrauchter,schlug,Rummels,suchen,immer,keine,war,die,,,,,,,,,,,,,,,,,,,,,,,8,0,8,0,0,2,2,2,,,,,,,,space,0.719228029251,,,,2017_Feb_01_1635,59.8723557936,spr_backupper,001,Mi12,
,gedachte,hat,260.000,mit,Liter,kann,mit,kleinere,rote,wieder,Größe,gehören,gehören,wurden,aus,mit,Masse,mit,wir,die,Dänemark,stand,unter,durch,Erlebnisse,beschuldigten,des,kann,der,roter,große,er,mit,beschuldigten,Berge,"sporadisch,",beteiligten,wissen,las,Fleischs,Masse,Mann,werden,der,wir,kann,Berge,gedachte,königlichen,wurde,Dänemark,Fleisch,die,wissen,kann,Liter,bei,"unterging,",große,schnell,schon,Lust,beteiligter,der,Zuckers,Hemd,dem,Kleidung,dann,kleinere,Zucker,stand,des,wieder,Größe,Mond,habe,hält,königliches,dem,mit,Menge,260.000,die,können,durch,Auto,überwiegend,Menge,mit,Kleidung,"sporadisch,",wurde,die,auf,Lust,aus,Leinwand,,,,,,,,,,,,,,,,,,,,,,,8,0,8,0,0,3,3,3,,,,,,,,space,0.459576845169,,,,2017_Feb_01_1635,59.8723557936,spr_backupper,001,Mi12,
,man,uns,Kilowattstunden,"reichlichem,",sprudelndes,man,"sämtlichem,","Delikte,",Farbe,viel,36,immer,immer,mit,"wertvollem,","minimalem,",mit,dauerhaftem,den,Stimmung,gelegentlich,ein,"regelmäßigem,",Büschel,bei,die,schönen,man,Stadt,Farbe,Packung,"trug,","üblichem,",die,schmutziger,obwohl,Fahrer,wir,ich,wurden,mit,das,die,vierte,den,ich,schmutzige,man,Bluts,jetzt,einen,wurden,Wohnung,wir,ich,sprudelnden,ausreichendem,war,Packung,dank,bei,auf,Fahrer,Stadt,sind,aus,schönen,landen,mit,"Delikte,",sind,ein,bekannten,viel,36,dauerte,ich,nicht,Blut,bekannten,solch,alten,Kilowattstunden,richtige,Neuwahlen,Büschel,dem,"nicht,",alten,solchen,landen,obschon,schon,Wohnung,warmem,auf,"Japan,",aus,,,,,,,,,,,,,,,,,,,,,,,8,0,8,0,0,4,4,4,,,,,,,,space,0.436374902725,,,,2017_Feb_01_1635,59.8723557936,spr_backupper,001,Mi12,
,den,die,elektrischer,purem,Trinkwasser.,eine,künftigem,deren,geschleudert.,Lärm,hätten,350,350,zusätzlichem,klassischen,sauberen,einem,feinem,roten,ziemlich,einen,Glas,kaltem,frischen,"frischem,",Störenfriede,Wetters,eine,liegen,geschleudert.,salziger,war,harten,Störenfriede,Wäsche.,sie,wurden,um,mehr,serviert.,einem,Auto,Tiere,Bundespräsident.,roten,leider,Wäsche.,der,hat,"nachgewiesen,",gelegentlichen,serviert.,des,von,leider,Trinkwassers.,monatlichem,die,salzige,täglichem,minimalem,noch,wurden,liegen,auf,feinem,Wetter,im,"reichem,",derer,auf,Glas,Skandals,Lärm,würden,ungefähr,mehr,am,hat,Skandal,unzureichenden,Krams,elektrische,"Zeit,",vor,frisches,Mann,was,Kram,unzureichenden,im,sie,immer,des,weichem,noch,die,seltenem,,,,,,,,,,,,,,,,,,,,,,,8,0,8,0,0,5,5,5,,,,,,,,space,0.57008099556,,,,2017_Feb_01_1635,59.8723557936,spr_backupper,001,Mi12,
,Soldaten,Stimmung,Energie.,Alkohol,nan,große,Einkommen,sie,nan,um,seiner,ml,ml,schwarzem,Schmuck,Kraftstoff,Esslöffel,Kunsteis,Planeten,"vermiest,",Besucher.,köstlicher,Abduschen,Grases,kaltem,jeden.,die,große,die,nan,Wurst,aus,Schaumstoff,jeden.,nan,defekt,verschrottet.,die,als,nan,Esslöffel,mehr,artgerecht,nan,Planet,nichts,nan,Soldaten,den,dass,Besucher.,nan,Herrn,den,nichts,nan,Taschengeld,Flut,Wurst,grünen,täglichen,eine,verschrottet.,die,jeden,dichten,die,Müll.,goldenen,sie,jeden,köstlichen,wiedergewählt.,um,seiner,drei,als,Hauptbahnhof.,den,wiedergewählt.,Helmen,aus,Energie.,um,Dezember,Gras,mehr,Tupperware,aus,Helmen,Müll.,defekt,ruhig,Herrn,Untergrund,eine,er,dichten,,,,,,,,,,,,,,,,,,,,,,,8,0,8,0,0,6,6,6,,,,,,,,space,0.463035106659,,,,2017_Feb_01_1635,59.8723557936,spr_backupper,001,Mi12,
,des,ziemlich,nan,verdünnt.,nan,Menge,haftbar.,überführt,nan,jede,Frau,warmer,warme,Kaffee,umgearbeitet.,fahren.,warmen,eingesprüht.,ganz,dass,nan,Wein,gehärtet.,zwängen.,Saft,nan,Wohnung.,Menge,Slums.,nan,mit,Japan.,gefertigt.,nan,nan,war.,nan,Probleme,einmal,nan,warmem,als,gehalten.,nan,ganz,mitbringen.,nan,des,Boden,das,nan,nan,Gantenbeins.,Problemen,mitbringen.,nan,selber,zurückgekehrt.,mit,Tee,Einsatz,Sammlung,nan,Slums.,Fall,Stoff,Wohnung.,nan,Besatz,überführt,Fall,Weins,nan,jede,Frau,Tage.,einmal,nan,Boden,nan,zur,dem,nan,Nadelhölzer,stattfinden.,zwängen.,als,ist.,dem,zur,nan,war.,diskutiert.,Gantenbein.,liegen.,Sammlung,trug.,Gewebe,,,,,,,,,,,,,,,,,,,,,,,8,0,8,0,0,7,7,7,,,,,,,,space,0.42360496521,,,,2017_Feb_01_1635,59.8723557936,spr_backupper,001,Mi12,
,zweiten,vermiest.,nan,nan,nan,dunkler,nan,wurden.,nan,Menge,gepasst.,Milch.,Milch.,wiederbelebt.,nan,nan,Honigs,nan,deutlich.,es,nan,schon,nan,nan,besprochen.,nan,nan,dunkle,nan,nan,an,nan,nan,nan,nan,nan,nan,im,Rilke.,nan,Honig,gerne.,nan,nan,deutlich.,nan,nan,zweiten,berührt.,Medikament,nan,nan,nan,im,nan,nan,kaufen.,nan,an,wieder,sinken.,dummer,nan,nan,genug.,gefertigt.,nan,nan,rekonstruiert.,wurden.,genug.,schon,nan,Menge,gepasst,nan,Rilke,nan,berührt.,nan,Schule.,Haus,nan,umzusetzen.,nan,nan,gerne.,nan,Haus,Schule.,nan,nan,nan,nan,nan,dumme,nan,wiederhergestellt.,,,,,,,,,,,,,,,,,,,,,,,8,0,8,0,0,8,8,8,,,,,,,,space,0.47053694725,,,,2017_Feb_01_1635,59.8723557936,spr_backupper,001,Mi12,
,,,,,,,,,,,,,,,,,,,,,,,,,,,,,,,,,,,,,,,,,,,,,,,,,,,,,,,,,,,,,,,,,,,,,,,,,,,,,,,,,,,,,,,,,,,,,,,,,,,,,,,,,,,,,,,,,,,,,,,,,8,0,8,0,,,,,,,,,,,,,,None,n,15.2348690033,2017_Feb_01_1635,59.8723557936,spr_backupper,001,Mi12,
,Bei,Dass,Die,Die,Sie,Mit,Manche,Es,Es,Man,Die,In,In,Die,Die,Wir,Er,Die,Im,Es,Wir,Bei,Die,Wir,Sie,Außer,Sie,Mit,Am,Es,Ich,Die,Alle,Außer,Dort,Die,Die,In,In,Beträchtliche,Er,Wir,In,Walter,Im,Außer,Dort,Bei,Nicht,In,Wir,Beträchtliche,Die,In,Außer,Sie,Jugendliche,Als,Ich,Ich,Ihr,Sie,Die,Am,100,Er,Sie,Viele,Das,Es,100,Bei,Er,Man,Die,Der,In,Die,Nicht,Er,Die,Wir,Die,Jetzt,Unter,Wir,Wir,Die,Wir,Die,Viele,Die,Fernab,Die,Jungtiere,Sie,Die,Danach,,,,,,,,,,,,,,,,,,,,,,,9,0,9,0,0,0,0,0,,,,,,space,1.05722212791,space,0.676695823669,,,,2017_Feb_01_1635,59.8723557936,spr_backupper,001,Mi12,
,der,es,Schule,Lösung,verbrauchen,dieser,Kreditnehmer,waren,wurden,machte,Schuhe,den,den,müden,Stücke,konnten,stellt,Eislaufbahnen,Fernrohr,hat,hatten,unserer,Formen,mussten,haben,dem,verlassen,dieser,äußersten,wurden,nehme,"Uhr,",Betten,den,türmen,Uhr,Autos,der,meinem,Stücke,stellt,übergaben,diesem,Scheel,Fernrohr,das,türmen,der,ein,einer,hatten,Stücke,Gäste,der,dem,verbrauchen,können,die,nehme,wurde,Blutdruck,hatte,Autos,äußeren,g,hat,verlassen,Tonnen,Tuch,waren,g,unserer,wurde,machte,Schuhe,Flug,meinem,Linie,ein,wurde,Kinder,haben,Schule,ist,keinen,mussten,übergaben,Teilnehmerinnen,haben,Kinder,Tonnen,Uhr,des,Gäste,sollten,hatte,Uhr,wurde,,,,,,,,,,,,,,,,,,,,,,,9,0,9,0,0,1,1,1,,,,,,,,space,0.434281110764,,,,2017_Feb_01_1635,59.8723557936,spr_backupper,001,Mi12,
,Feier,"regnete,",verbraucht,wird,60,Methode,sind,nur,Eimer,mal,in,Kakao,Kakao,Teilnehmer,wurden,dann,die,wurden,sahen,uns,in,Ankunft,wurden,uns,die,Bürgermeister,wegen,Methode,Rand,Eimer,eine,die,wurden,Bürgermeister,sich,schlug,beider,Tat,Studium,saftigen,die,dem,Zirkus,war,sahen,Essen,sich,Feier,Tropfen,Studie,in,saftiges,suchen,Tat,Essen,60,Kleidung,Sonne,eine,damals,kann,keine,beider,Rand,braunen,ein,wegen,gebrauchte,wurde,nur,brauner,Ankunft,trotz,mal,in,zum,Studium,101,Tropfen,trotz,fuhren,jede,verbraucht,genau,Umständen,uns,das,wussten,jede,fuhren,gebrauchter,schlug,Rummels,suchen,immer,keine,war,die,,,,,,,,,,,,,,,,,,,,,,,9,0,9,0,0,2,2,2,,,,,,,,space,0.462326049805,,,,2017_Feb_01_1635,59.8723557936,spr_backupper,001,Mi12,
,gedachte,hat,260.000,mit,Liter,kann,mit,kleinere,rote,wieder,Größe,gehören,gehören,wurden,aus,mit,Masse,mit,wir,die,Dänemark,stand,unter,durch,Erlebnisse,beschuldigten,des,kann,der,roter,große,er,mit,beschuldigten,Berge,"sporadisch,",beteiligten,wissen,las,Fleischs,Masse,Mann,werden,der,wir,kann,Berge,gedachte,königlichen,wurde,Dänemark,Fleisch,die,wissen,kann,Liter,bei,"unterging,",große,schnell,schon,Lust,beteiligter,der,Zuckers,Hemd,dem,Kleidung,dann,kleinere,Zucker,stand,des,wieder,Größe,Mond,habe,hält,königliches,dem,mit,Menge,260.000,die,können,durch,Auto,überwiegend,Menge,mit,Kleidung,"sporadisch,",wurde,die,auf,Lust,aus,Leinwand,,,,,,,,,,,,,,,,,,,,,,,9,0,9,0,0,3,3,3,,,,,,,,space,0.476958990097,,,,2017_Feb_01_1635,59.8723557936,spr_backupper,001,Mi12,
,man,uns,Kilowattstunden,"reichlichem,",sprudelndes,man,"sämtlichem,","Delikte,",Farbe,viel,36,immer,immer,mit,"wertvollem,","minimalem,",mit,dauerhaftem,den,Stimmung,gelegentlich,ein,"regelmäßigem,",Büschel,bei,die,schönen,man,Stadt,Farbe,Packung,"trug,","üblichem,",die,schmutziger,obwohl,Fahrer,wir,ich,wurden,mit,das,die,vierte,den,ich,schmutzige,man,Bluts,jetzt,einen,wurden,Wohnung,wir,ich,sprudelnden,ausreichendem,war,Packung,dank,bei,auf,Fahrer,Stadt,sind,aus,schönen,landen,mit,"Delikte,",sind,ein,bekannten,viel,36,dauerte,ich,nicht,Blut,bekannten,solch,alten,Kilowattstunden,richtige,Neuwahlen,Büschel,dem,"nicht,",alten,solchen,landen,obschon,schon,Wohnung,warmem,auf,"Japan,",aus,,,,,,,,,,,,,,,,,,,,,,,9,0,9,0,0,4,4,4,,,,,,,,space,0.560008049011,,,,2017_Feb_01_1635,59.8723557936,spr_backupper,001,Mi12,
,den,die,elektrischer,purem,Trinkwasser.,eine,künftigem,deren,geschleudert.,Lärm,hätten,350,350,zusätzlichem,klassischen,sauberen,einem,feinem,roten,ziemlich,einen,Glas,kaltem,frischen,"frischem,",Störenfriede,Wetters,eine,liegen,geschleudert.,salziger,war,harten,Störenfriede,Wäsche.,sie,wurden,um,mehr,serviert.,einem,Auto,Tiere,Bundespräsident.,roten,leider,Wäsche.,der,hat,"nachgewiesen,",gelegentlichen,serviert.,des,von,leider,Trinkwassers.,monatlichem,die,salzige,täglichem,minimalem,noch,wurden,liegen,auf,feinem,Wetter,im,"reichem,",derer,auf,Glas,Skandals,Lärm,würden,ungefähr,mehr,am,hat,Skandal,unzureichenden,Krams,elektrische,"Zeit,",vor,frisches,Mann,was,Kram,unzureichenden,im,sie,immer,des,weichem,noch,die,seltenem,,,,,,,,,,,,,,,,,,,,,,,9,0,9,0,0,5,5,5,,,,,,,,space,0.423731088638,,,,2017_Feb_01_1635,59.8723557936,spr_backupper,001,Mi12,
,Soldaten,Stimmung,Energie.,Alkohol,nan,große,Einkommen,sie,nan,um,seiner,ml,ml,schwarzem,Schmuck,Kraftstoff,Esslöffel,Kunsteis,Planeten,"vermiest,",Besucher.,köstlicher,Abduschen,Grases,kaltem,jeden.,die,große,die,nan,Wurst,aus,Schaumstoff,jeden.,nan,defekt,verschrottet.,die,als,nan,Esslöffel,mehr,artgerecht,nan,Planet,nichts,nan,Soldaten,den,dass,Besucher.,nan,Herrn,den,nichts,nan,Taschengeld,Flut,Wurst,grünen,täglichen,eine,verschrottet.,die,jeden,dichten,die,Müll.,goldenen,sie,jeden,köstlichen,wiedergewählt.,um,seiner,drei,als,Hauptbahnhof.,den,wiedergewählt.,Helmen,aus,Energie.,um,Dezember,Gras,mehr,Tupperware,aus,Helmen,Müll.,defekt,ruhig,Herrn,Untergrund,eine,er,dichten,,,,,,,,,,,,,,,,,,,,,,,9,0,9,0,0,6,6,6,,,,,,,,space,0.503324985504,,,,2017_Feb_01_1635,59.8723557936,spr_backupper,001,Mi12,
,des,ziemlich,nan,verdünnt.,nan,Menge,haftbar.,überführt,nan,jede,Frau,warmer,warme,Kaffee,umgearbeitet.,fahren.,warmen,eingesprüht.,ganz,dass,nan,Wein,gehärtet.,zwängen.,Saft,nan,Wohnung.,Menge,Slums.,nan,mit,Japan.,gefertigt.,nan,nan,war.,nan,Probleme,einmal,nan,warmem,als,gehalten.,nan,ganz,mitbringen.,nan,des,Boden,das,nan,nan,Gantenbeins.,Problemen,mitbringen.,nan,selber,zurückgekehrt.,mit,Tee,Einsatz,Sammlung,nan,Slums.,Fall,Stoff,Wohnung.,nan,Besatz,überführt,Fall,Weins,nan,jede,Frau,Tage.,einmal,nan,Boden,nan,zur,dem,nan,Nadelhölzer,stattfinden.,zwängen.,als,ist.,dem,zur,nan,war.,diskutiert.,Gantenbein.,liegen.,Sammlung,trug.,Gewebe,,,,,,,,,,,,,,,,,,,,,,,9,0,9,0,0,7,7,7,,,,,,,,space,0.520622014999,,,,2017_Feb_01_1635,59.8723557936,spr_backupper,001,Mi12,
,,,,,,,,,,,,,,,,,,,,,,,,,,,,,,,,,,,,,,,,,,,,,,,,,,,,,,,,,,,,,,,,,,,,,,,,,,,,,,,,,,,,,,,,,,,,,,,,,,,,,,,,,,,,,,,,,,,,,,,,,9,0,9,0,,,,,,,,,,,,,,None,n,3.95821380615,2017_Feb_01_1635,59.8723557936,spr_backupper,001,Mi12,
,Bei,Dass,Die,Die,Sie,Mit,Manche,Es,Es,Man,Die,In,In,Die,Die,Wir,Er,Die,Im,Es,Wir,Bei,Die,Wir,Sie,Außer,Sie,Mit,Am,Es,Ich,Die,Alle,Außer,Dort,Die,Die,In,In,Beträchtliche,Er,Wir,In,Walter,Im,Außer,Dort,Bei,Nicht,In,Wir,Beträchtliche,Die,In,Außer,Sie,Jugendliche,Als,Ich,Ich,Ihr,Sie,Die,Am,100,Er,Sie,Viele,Das,Es,100,Bei,Er,Man,Die,Der,In,Die,Nicht,Er,Die,Wir,Die,Jetzt,Unter,Wir,Wir,Die,Wir,Die,Viele,Die,Fernab,Die,Jungtiere,Sie,Die,Danach,,,,,,,,,,,,,,,,,,,,,,,10,0,10,0,0,0,0,0,,,,,,None,,space,1.1577911377,,,,2017_Feb_01_1635,59.8723557936,spr_backupper,001,Mi12,
,der,es,Schule,Lösung,verbrauchen,dieser,Kreditnehmer,waren,wurden,machte,Schuhe,den,den,müden,Stücke,konnten,stellt,Eislaufbahnen,Fernrohr,hat,hatten,unserer,Formen,mussten,haben,dem,verlassen,dieser,äußersten,wurden,nehme,"Uhr,",Betten,den,türmen,Uhr,Autos,der,meinem,Stücke,stellt,übergaben,diesem,Scheel,Fernrohr,das,türmen,der,ein,einer,hatten,Stücke,Gäste,der,dem,verbrauchen,können,die,nehme,wurde,Blutdruck,hatte,Autos,äußeren,g,hat,verlassen,Tonnen,Tuch,waren,g,unserer,wurde,machte,Schuhe,Flug,meinem,Linie,ein,wurde,Kinder,haben,Schule,ist,keinen,mussten,übergaben,Teilnehmerinnen,haben,Kinder,Tonnen,Uhr,des,Gäste,sollten,hatte,Uhr,wurde,,,,,,,,,,,,,,,,,,,,,,,10,0,10,0,0,1,1,1,,,,,,,,space,0.603017091751,,,,2017_Feb_01_1635,59.8723557936,spr_backupper,001,Mi12,
,Feier,"regnete,",verbraucht,wird,60,Methode,sind,nur,Eimer,mal,in,Kakao,Kakao,Teilnehmer,wurden,dann,die,wurden,sahen,uns,in,Ankunft,wurden,uns,die,Bürgermeister,wegen,Methode,Rand,Eimer,eine,die,wurden,Bürgermeister,sich,schlug,beider,Tat,Studium,saftigen,die,dem,Zirkus,war,sahen,Essen,sich,Feier,Tropfen,Studie,in,saftiges,suchen,Tat,Essen,60,Kleidung,Sonne,eine,damals,kann,keine,beider,Rand,braunen,ein,wegen,gebrauchte,wurde,nur,brauner,Ankunft,trotz,mal,in,zum,Studium,101,Tropfen,trotz,fuhren,jede,verbraucht,genau,Umständen,uns,das,wussten,jede,fuhren,gebrauchter,schlug,Rummels,suchen,immer,keine,war,die,,,,,,,,,,,,,,,,,,,,,,,10,0,10,0,0,2,2,2,,,,,,,,space,0.612884998322,,,,2017_Feb_01_1635,59.8723557936,spr_backupper,001,Mi12,
,gedachte,hat,260.000,mit,Liter,kann,mit,kleinere,rote,wieder,Größe,gehören,gehören,wurden,aus,mit,Masse,mit,wir,die,Dänemark,stand,unter,durch,Erlebnisse,beschuldigten,des,kann,der,roter,große,er,mit,beschuldigten,Berge,"sporadisch,",beteiligten,wissen,las,Fleischs,Masse,Mann,werden,der,wir,kann,Berge,gedachte,königlichen,wurde,Dänemark,Fleisch,die,wissen,kann,Liter,bei,"unterging,",große,schnell,schon,Lust,beteiligter,der,Zuckers,Hemd,dem,Kleidung,dann,kleinere,Zucker,stand,des,wieder,Größe,Mond,habe,hält,königliches,dem,mit,Menge,260.000,die,können,durch,Auto,überwiegend,Menge,mit,Kleidung,"sporadisch,",wurde,die,auf,Lust,aus,Leinwand,,,,,,,,,,,,,,,,,,,,,,,10,0,10,0,0,3,3,3,,,,,,,,space,0.494256019592,,,,2017_Feb_01_1635,59.8723557936,spr_backupper,001,Mi12,
,man,uns,Kilowattstunden,"reichlichem,",sprudelndes,man,"sämtlichem,","Delikte,",Farbe,viel,36,immer,immer,mit,"wertvollem,","minimalem,",mit,dauerhaftem,den,Stimmung,gelegentlich,ein,"regelmäßigem,",Büschel,bei,die,schönen,man,Stadt,Farbe,Packung,"trug,","üblichem,",die,schmutziger,obwohl,Fahrer,wir,ich,wurden,mit,das,die,vierte,den,ich,schmutzige,man,Bluts,jetzt,einen,wurden,Wohnung,wir,ich,sprudelnden,ausreichendem,war,Packung,dank,bei,auf,Fahrer,Stadt,sind,aus,schönen,landen,mit,"Delikte,",sind,ein,bekannten,viel,36,dauerte,ich,nicht,Blut,bekannten,solch,alten,Kilowattstunden,richtige,Neuwahlen,Büschel,dem,"nicht,",alten,solchen,landen,obschon,schon,Wohnung,warmem,auf,"Japan,",aus,,,,,,,,,,,,,,,,,,,,,,,10,0,10,0,0,4,4,4,,,,,,,,space,0.61704993248,,,,2017_Feb_01_1635,59.8723557936,spr_backupper,001,Mi12,
,den,die,elektrischer,purem,Trinkwasser.,eine,künftigem,deren,geschleudert.,Lärm,hätten,350,350,zusätzlichem,klassischen,sauberen,einem,feinem,roten,ziemlich,einen,Glas,kaltem,frischen,"frischem,",Störenfriede,Wetters,eine,liegen,geschleudert.,salziger,war,harten,Störenfriede,Wäsche.,sie,wurden,um,mehr,serviert.,einem,Auto,Tiere,Bundespräsident.,roten,leider,Wäsche.,der,hat,"nachgewiesen,",gelegentlichen,serviert.,des,von,leider,Trinkwassers.,monatlichem,die,salzige,täglichem,minimalem,noch,wurden,liegen,auf,feinem,Wetter,im,"reichem,",derer,auf,Glas,Skandals,Lärm,würden,ungefähr,mehr,am,hat,Skandal,unzureichenden,Krams,elektrische,"Zeit,",vor,frisches,Mann,was,Kram,unzureichenden,im,sie,immer,des,weichem,noch,die,seltenem,,,,,,,,,,,,,,,,,,,,,,,10,0,10,0,0,5,5,5,,,,,,,,space,0.564860105515,,,,2017_Feb_01_1635,59.8723557936,spr_backupper,001,Mi12,
,Soldaten,Stimmung,Energie.,Alkohol,nan,große,Einkommen,sie,nan,um,seiner,ml,ml,schwarzem,Schmuck,Kraftstoff,Esslöffel,Kunsteis,Planeten,"vermiest,",Besucher.,köstlicher,Abduschen,Grases,kaltem,jeden.,die,große,die,nan,Wurst,aus,Schaumstoff,jeden.,nan,defekt,verschrottet.,die,als,nan,Esslöffel,mehr,artgerecht,nan,Planet,nichts,nan,Soldaten,den,dass,Besucher.,nan,Herrn,den,nichts,nan,Taschengeld,Flut,Wurst,grünen,täglichen,eine,verschrottet.,die,jeden,dichten,die,Müll.,goldenen,sie,jeden,köstlichen,wiedergewählt.,um,seiner,drei,als,Hauptbahnhof.,den,wiedergewählt.,Helmen,aus,Energie.,um,Dezember,Gras,mehr,Tupperware,aus,Helmen,Müll.,defekt,ruhig,Herrn,Untergrund,eine,er,dichten,,,,,,,,,,,,,,,,,,,,,,,10,0,10,0,0,6,6,6,,,,,,,,space,0.843315124512,,,,2017_Feb_01_1635,59.8723557936,spr_backupper,001,Mi12,
,des,ziemlich,nan,verdünnt.,nan,Menge,haftbar.,überführt,nan,jede,Frau,warmer,warme,Kaffee,umgearbeitet.,fahren.,warmen,eingesprüht.,ganz,dass,nan,Wein,gehärtet.,zwängen.,Saft,nan,Wohnung.,Menge,Slums.,nan,mit,Japan.,gefertigt.,nan,nan,war.,nan,Probleme,einmal,nan,warmem,als,gehalten.,nan,ganz,mitbringen.,nan,des,Boden,das,nan,nan,Gantenbeins.,Problemen,mitbringen.,nan,selber,zurückgekehrt.,mit,Tee,Einsatz,Sammlung,nan,Slums.,Fall,Stoff,Wohnung.,nan,Besatz,überführt,Fall,Weins,nan,jede,Frau,Tage.,einmal,nan,Boden,nan,zur,dem,nan,Nadelhölzer,stattfinden.,zwängen.,als,ist.,dem,zur,nan,war.,diskutiert.,Gantenbein.,liegen.,Sammlung,trug.,Gewebe,,,,,,,,,,,,,,,,,,,,,,,10,0,10,0,0,7,7,7,,,,,,,,space,0.788287878036,,,,2017_Feb_01_1635,59.8723557936,spr_backupper,001,Mi12,
,,,,,,,,,,,,,,,,,,,,,,,,,,,,,,,,,,,,,,,,,,,,,,,,,,,,,,,,,,,,,,,,,,,,,,,,,,,,,,,,,,,,,,,,,,,,,,,,,,,,,,,,,,,,,,,,,,,,,,,,,10,0,10,0,,,,,,,,,,,,,,None,n,6.92648410797,2017_Feb_01_1635,59.8723557936,spr_backupper,001,Mi12,
,Bei,Dass,Die,Die,Sie,Mit,Manche,Es,Es,Man,Die,In,In,Die,Die,Wir,Er,Die,Im,Es,Wir,Bei,Die,Wir,Sie,Außer,Sie,Mit,Am,Es,Ich,Die,Alle,Außer,Dort,Die,Die,In,In,Beträchtliche,Er,Wir,In,Walter,Im,Außer,Dort,Bei,Nicht,In,Wir,Beträchtliche,Die,In,Außer,Sie,Jugendliche,Als,Ich,Ich,Ihr,Sie,Die,Am,100,Er,Sie,Viele,Das,Es,100,Bei,Er,Man,Die,Der,In,Die,Nicht,Er,Die,Wir,Die,Jetzt,Unter,Wir,Wir,Die,Wir,Die,Viele,Die,Fernab,Die,Jungtiere,Sie,Die,Danach,,,,,,,,,,,,,,,,,,,,,,,11,0,11,0,0,0,0,0,,,,,,space,0.620064973831,space,0.0367829799652,,,,2017_Feb_01_1635,59.8723557936,spr_backupper,001,Mi12,
,der,es,Schule,Lösung,verbrauchen,dieser,Kreditnehmer,waren,wurden,machte,Schuhe,den,den,müden,Stücke,konnten,stellt,Eislaufbahnen,Fernrohr,hat,hatten,unserer,Formen,mussten,haben,dem,verlassen,dieser,äußersten,wurden,nehme,"Uhr,",Betten,den,türmen,Uhr,Autos,der,meinem,Stücke,stellt,übergaben,diesem,Scheel,Fernrohr,das,türmen,der,ein,einer,hatten,Stücke,Gäste,der,dem,verbrauchen,können,die,nehme,wurde,Blutdruck,hatte,Autos,äußeren,g,hat,verlassen,Tonnen,Tuch,waren,g,unserer,wurde,machte,Schuhe,Flug,meinem,Linie,ein,wurde,Kinder,haben,Schule,ist,keinen,mussten,übergaben,Teilnehmerinnen,haben,Kinder,Tonnen,Uhr,des,Gäste,sollten,hatte,Uhr,wurde,,,,,,,,,,,,,,,,,,,,,,,11,0,11,0,0,1,1,1,,,,,,,,space,0.8606569767,,,,2017_Feb_01_1635,59.8723557936,spr_backupper,001,Mi12,
,Feier,"regnete,",verbraucht,wird,60,Methode,sind,nur,Eimer,mal,in,Kakao,Kakao,Teilnehmer,wurden,dann,die,wurden,sahen,uns,in,Ankunft,wurden,uns,die,Bürgermeister,wegen,Methode,Rand,Eimer,eine,die,wurden,Bürgermeister,sich,schlug,beider,Tat,Studium,saftigen,die,dem,Zirkus,war,sahen,Essen,sich,Feier,Tropfen,Studie,in,saftiges,suchen,Tat,Essen,60,Kleidung,Sonne,eine,damals,kann,keine,beider,Rand,braunen,ein,wegen,gebrauchte,wurde,nur,brauner,Ankunft,trotz,mal,in,zum,Studium,101,Tropfen,trotz,fuhren,jede,verbraucht,genau,Umständen,uns,das,wussten,jede,fuhren,gebrauchter,schlug,Rummels,suchen,immer,keine,war,die,,,,,,,,,,,,,,,,,,,,,,,11,0,11,0,0,2,2,2,,,,,,,,space,0.453330993652,,,,2017_Feb_01_1635,59.8723557936,spr_backupper,001,Mi12,
,gedachte,hat,260.000,mit,Liter,kann,mit,kleinere,rote,wieder,Größe,gehören,gehören,wurden,aus,mit,Masse,mit,wir,die,Dänemark,stand,unter,durch,Erlebnisse,beschuldigten,des,kann,der,roter,große,er,mit,beschuldigten,Berge,"sporadisch,",beteiligten,wissen,las,Fleischs,Masse,Mann,werden,der,wir,kann,Berge,gedachte,königlichen,wurde,Dänemark,Fleisch,die,wissen,kann,Liter,bei,"unterging,",große,schnell,schon,Lust,beteiligter,der,Zuckers,Hemd,dem,Kleidung,dann,kleinere,Zucker,stand,des,wieder,Größe,Mond,habe,hält,königliches,dem,mit,Menge,260.000,die,können,durch,Auto,überwiegend,Menge,mit,Kleidung,"sporadisch,",wurde,die,auf,Lust,aus,Leinwand,,,,,,,,,,,,,,,,,,,,,,,11,0,11,0,0,3,3,3,,,,,,,,space,0.360001802444,,,,2017_Feb_01_1635,59.8723557936,spr_backupper,001,Mi12,
,man,uns,Kilowattstunden,"reichlichem,",sprudelndes,man,"sämtlichem,","Delikte,",Farbe,viel,36,immer,immer,mit,"wertvollem,","minimalem,",mit,dauerhaftem,den,Stimmung,gelegentlich,ein,"regelmäßigem,",Büschel,bei,die,schönen,man,Stadt,Farbe,Packung,"trug,","üblichem,",die,schmutziger,obwohl,Fahrer,wir,ich,wurden,mit,das,die,vierte,den,ich,schmutzige,man,Bluts,jetzt,einen,wurden,Wohnung,wir,ich,sprudelnden,ausreichendem,war,Packung,dank,bei,auf,Fahrer,Stadt,sind,aus,schönen,landen,mit,"Delikte,",sind,ein,bekannten,viel,36,dauerte,ich,nicht,Blut,bekannten,solch,alten,Kilowattstunden,richtige,Neuwahlen,Büschel,dem,"nicht,",alten,solchen,landen,obschon,schon,Wohnung,warmem,auf,"Japan,",aus,,,,,,,,,,,,,,,,,,,,,,,11,0,11,0,0,4,4,4,,,,,,,,space,0.427242040634,,,,2017_Feb_01_1635,59.8723557936,spr_backupper,001,Mi12,
,den,die,elektrischer,purem,Trinkwasser.,eine,künftigem,deren,geschleudert.,Lärm,hätten,350,350,zusätzlichem,klassischen,sauberen,einem,feinem,roten,ziemlich,einen,Glas,kaltem,frischen,"frischem,",Störenfriede,Wetters,eine,liegen,geschleudert.,salziger,war,harten,Störenfriede,Wäsche.,sie,wurden,um,mehr,serviert.,einem,Auto,Tiere,Bundespräsident.,roten,leider,Wäsche.,der,hat,"nachgewiesen,",gelegentlichen,serviert.,des,von,leider,Trinkwassers.,monatlichem,die,salzige,täglichem,minimalem,noch,wurden,liegen,auf,feinem,Wetter,im,"reichem,",derer,auf,Glas,Skandals,Lärm,würden,ungefähr,mehr,am,hat,Skandal,unzureichenden,Krams,elektrische,"Zeit,",vor,frisches,Mann,was,Kram,unzureichenden,im,sie,immer,des,weichem,noch,die,seltenem,,,,,,,,,,,,,,,,,,,,,,,11,0,11,0,0,5,5,5,,,,,,,,space,0.854569911957,,,,2017_Feb_01_1635,59.8723557936,spr_backupper,001,Mi12,
,Soldaten,Stimmung,Energie.,Alkohol,nan,große,Einkommen,sie,nan,um,seiner,ml,ml,schwarzem,Schmuck,Kraftstoff,Esslöffel,Kunsteis,Planeten,"vermiest,",Besucher.,köstlicher,Abduschen,Grases,kaltem,jeden.,die,große,die,nan,Wurst,aus,Schaumstoff,jeden.,nan,defekt,verschrottet.,die,als,nan,Esslöffel,mehr,artgerecht,nan,Planet,nichts,nan,Soldaten,den,dass,Besucher.,nan,Herrn,den,nichts,nan,Taschengeld,Flut,Wurst,grünen,täglichen,eine,verschrottet.,die,jeden,dichten,die,Müll.,goldenen,sie,jeden,köstlichen,wiedergewählt.,um,seiner,drei,als,Hauptbahnhof.,den,wiedergewählt.,Helmen,aus,Energie.,um,Dezember,Gras,mehr,Tupperware,aus,Helmen,Müll.,defekt,ruhig,Herrn,Untergrund,eine,er,dichten,,,,,,,,,,,,,,,,,,,,,,,11,0,11,0,0,6,6,6,,,,,,,,space,0.436424016953,,,,2017_Feb_01_1635,59.8723557936,spr_backupper,001,Mi12,
,des,ziemlich,nan,verdünnt.,nan,Menge,haftbar.,überführt,nan,jede,Frau,warmer,warme,Kaffee,umgearbeitet.,fahren.,warmen,eingesprüht.,ganz,dass,nan,Wein,gehärtet.,zwängen.,Saft,nan,Wohnung.,Menge,Slums.,nan,mit,Japan.,gefertigt.,nan,nan,war.,nan,Probleme,einmal,nan,warmem,als,gehalten.,nan,ganz,mitbringen.,nan,des,Boden,das,nan,nan,Gantenbeins.,Problemen,mitbringen.,nan,selber,zurückgekehrt.,mit,Tee,Einsatz,Sammlung,nan,Slums.,Fall,Stoff,Wohnung.,nan,Besatz,überführt,Fall,Weins,nan,jede,Frau,Tage.,einmal,nan,Boden,nan,zur,dem,nan,Nadelhölzer,stattfinden.,zwängen.,als,ist.,dem,zur,nan,war.,diskutiert.,Gantenbein.,liegen.,Sammlung,trug.,Gewebe,,,,,,,,,,,,,,,,,,,,,,,11,0,11,0,0,7,7,7,,,,,,,,space,0.503482818604,,,,2017_Feb_01_1635,59.8723557936,spr_backupper,001,Mi12,
,zweiten,vermiest.,nan,nan,nan,dunkler,nan,wurden.,nan,Menge,gepasst.,Milch.,Milch.,wiederbelebt.,nan,nan,Honigs,nan,deutlich.,es,nan,schon,nan,nan,besprochen.,nan,nan,dunkle,nan,nan,an,nan,nan,nan,nan,nan,nan,im,Rilke.,nan,Honig,gerne.,nan,nan,deutlich.,nan,nan,zweiten,berührt.,Medikament,nan,nan,nan,im,nan,nan,kaufen.,nan,an,wieder,sinken.,dummer,nan,nan,genug.,gefertigt.,nan,nan,rekonstruiert.,wurden.,genug.,schon,nan,Menge,gepasst,nan,Rilke,nan,berührt.,nan,Schule.,Haus,nan,umzusetzen.,nan,nan,gerne.,nan,Haus,Schule.,nan,nan,nan,nan,nan,dumme,nan,wiederhergestellt.,,,,,,,,,,,,,,,,,,,,,,,11,0,11,0,0,8,8,8,,,,,,,,space,0.568901062012,,,,2017_Feb_01_1635,59.8723557936,spr_backupper,001,Mi12,
,Weltkriegs.,nan,nan,nan,nan,Materie,nan,nan,nan,heiße,nan,nan,nan,nan,nan,nan,her.,nan,nan,regnete.,nan,auf,nan,nan,nan,nan,nan,Materie,nan,nan,den,nan,nan,nan,nan,nan,nan,Landkreis.,nan,nan,her.,nan,nan,nan,nan,nan,nan,Weltkriegs.,nan,nicht,nan,nan,nan,Landkreis.,nan,nan,nan,nan,den,fit.,nan,Sprüche.,nan,nan,nan,nan,nan,nan,nan,nan,nan,auf,nan,heißer,haben.,nan,gelesen.,nan,nan,nan,nan,geschafft.,nan,nan,nan,nan,nan,nan,geschafft.,nan,nan,nan,nan,nan,nan,Sprüche.,nan,nan,,,,,,,,,,,,,,,,,,,,,,,11,0,11,0,0,9,9,9,,,,,,,,space,0.805103063583,,,,2017_Feb_01_1635,59.8723557936,spr_backupper,001,Mi12,
,nan,nan,nan,nan,nan,erzeugen.,nan,nan,nan,Luft.,nan,nan,nan,nan,nan,nan,nan,nan,nan,nan,nan,dem,nan,nan,nan,nan,nan,erzeugen.,nan,nan,See.,nan,nan,nan,nan,nan,nan,nan,nan,nan,nan,nan,nan,nan,nan,nan,nan,nan,nan,wirkt.,nan,nan,nan,nan,nan,nan,nan,nan,See.,nan,nan,nan,nan,nan,nan,nan,nan,nan,nan,nan,nan,dem,nan,Luft.,nan,nan,nan,nan,nan,nan,nan,nan,nan,nan,nan,nan,nan,nan,nan,nan,nan,nan,nan,nan,nan,nan,nan,nan,,,,,,,,,,,,,,,,,,,,,,,11,0,11,0,0,10,10,10,,,,,,,,space,0.39762711525,,,,2017_Feb_01_1635,59.8723557936,spr_backupper,001,Mi12,
,nan,nan,nan,nan,nan,nan,nan,nan,nan,nan,nan,nan,nan,nan,nan,nan,nan,nan,nan,nan,nan,Tisch.,nan,nan,nan,nan,nan,nan,nan,nan,nan,nan,nan,nan,nan,nan,nan,nan,nan,nan,nan,nan,nan,nan,nan,nan,nan,nan,nan,nan,nan,nan,nan,nan,nan,nan,nan,nan,nan,nan,nan,nan,nan,nan,nan,nan,nan,nan,nan,nan,nan,Tisch.,nan,nan,nan,nan,nan,nan,nan,nan,nan,nan,nan,nan,nan,nan,nan,nan,nan,nan,nan,nan,nan,nan,nan,nan,nan,nan,,,,,,,,,,,,,,,,,,,,,,,11,0,11,0,0,11,11,11,,,,,,,,space,0.426440000534,,,,2017_Feb_01_1635,59.8723557936,spr_backupper,001,Mi12,
,,,,,,,,,,,,,,,,,,,,,,,,,,,,,,,,,,,,,,,,,,,,,,,,,,,,,,,,,,,,,,,,,,,,,,,,,,,,,,,,,,,,,,,,,,,,,,,,,,,,,,,,,,,,,,,,,,,,,,,,,11,0,11,0,,,,,,,,,,,,,,None,j,6.73946809769,2017_Feb_01_1635,59.8723557936,spr_backupper,001,Mi12,
,Bei,Dass,Die,Die,Sie,Mit,Manche,Es,Es,Man,Die,In,In,Die,Die,Wir,Er,Die,Im,Es,Wir,Bei,Die,Wir,Sie,Außer,Sie,Mit,Am,Es,Ich,Die,Alle,Außer,Dort,Die,Die,In,In,Beträchtliche,Er,Wir,In,Walter,Im,Außer,Dort,Bei,Nicht,In,Wir,Beträchtliche,Die,In,Außer,Sie,Jugendliche,Als,Ich,Ich,Ihr,Sie,Die,Am,100,Er,Sie,Viele,Das,Es,100,Bei,Er,Man,Die,Der,In,Die,Nicht,Er,Die,Wir,Die,Jetzt,Unter,Wir,Wir,Die,Wir,Die,Viele,Die,Fernab,Die,Jungtiere,Sie,Die,Danach,,,,,,,,,,,,,,,,,,,,,,,12,0,12,0,0,0,0,0,,,,,,space,1.2070991993,space,0.468225002289,,,,2017_Feb_01_1635,59.8723557936,spr_backupper,001,Mi12,
,der,es,Schule,Lösung,verbrauchen,dieser,Kreditnehmer,waren,wurden,machte,Schuhe,den,den,müden,Stücke,konnten,stellt,Eislaufbahnen,Fernrohr,hat,hatten,unserer,Formen,mussten,haben,dem,verlassen,dieser,äußersten,wurden,nehme,"Uhr,",Betten,den,türmen,Uhr,Autos,der,meinem,Stücke,stellt,übergaben,diesem,Scheel,Fernrohr,das,türmen,der,ein,einer,hatten,Stücke,Gäste,der,dem,verbrauchen,können,die,nehme,wurde,Blutdruck,hatte,Autos,äußeren,g,hat,verlassen,Tonnen,Tuch,waren,g,unserer,wurde,machte,Schuhe,Flug,meinem,Linie,ein,wurde,Kinder,haben,Schule,ist,keinen,mussten,übergaben,Teilnehmerinnen,haben,Kinder,Tonnen,Uhr,des,Gäste,sollten,hatte,Uhr,wurde,,,,,,,,,,,,,,,,,,,,,,,12,0,12,0,0,1,1,1,,,,,,,,space,0.449237108231,,,,2017_Feb_01_1635,59.8723557936,spr_backupper,001,Mi12,
,Feier,"regnete,",verbraucht,wird,60,Methode,sind,nur,Eimer,mal,in,Kakao,Kakao,Teilnehmer,wurden,dann,die,wurden,sahen,uns,in,Ankunft,wurden,uns,die,Bürgermeister,wegen,Methode,Rand,Eimer,eine,die,wurden,Bürgermeister,sich,schlug,beider,Tat,Studium,saftigen,die,dem,Zirkus,war,sahen,Essen,sich,Feier,Tropfen,Studie,in,saftiges,suchen,Tat,Essen,60,Kleidung,Sonne,eine,damals,kann,keine,beider,Rand,braunen,ein,wegen,gebrauchte,wurde,nur,brauner,Ankunft,trotz,mal,in,zum,Studium,101,Tropfen,trotz,fuhren,jede,verbraucht,genau,Umständen,uns,das,wussten,jede,fuhren,gebrauchter,schlug,Rummels,suchen,immer,keine,war,die,,,,,,,,,,,,,,,,,,,,,,,12,0,12,0,0,2,2,2,,,,,,,,space,0.530609130859,,,,2017_Feb_01_1635,59.8723557936,spr_backupper,001,Mi12,
,gedachte,hat,260.000,mit,Liter,kann,mit,kleinere,rote,wieder,Größe,gehören,gehören,wurden,aus,mit,Masse,mit,wir,die,Dänemark,stand,unter,durch,Erlebnisse,beschuldigten,des,kann,der,roter,große,er,mit,beschuldigten,Berge,"sporadisch,",beteiligten,wissen,las,Fleischs,Masse,Mann,werden,der,wir,kann,Berge,gedachte,königlichen,wurde,Dänemark,Fleisch,die,wissen,kann,Liter,bei,"unterging,",große,schnell,schon,Lust,beteiligter,der,Zuckers,Hemd,dem,Kleidung,dann,kleinere,Zucker,stand,des,wieder,Größe,Mond,habe,hält,königliches,dem,mit,Menge,260.000,die,können,durch,Auto,überwiegend,Menge,mit,Kleidung,"sporadisch,",wurde,die,auf,Lust,aus,Leinwand,,,,,,,,,,,,,,,,,,,,,,,12,0,12,0,0,3,3,3,,,,,,,,space,0.463566064835,,,,2017_Feb_01_1635,59.8723557936,spr_backupper,001,Mi12,
,man,uns,Kilowattstunden,"reichlichem,",sprudelndes,man,"sämtlichem,","Delikte,",Farbe,viel,36,immer,immer,mit,"wertvollem,","minimalem,",mit,dauerhaftem,den,Stimmung,gelegentlich,ein,"regelmäßigem,",Büschel,bei,die,schönen,man,Stadt,Farbe,Packung,"trug,","üblichem,",die,schmutziger,obwohl,Fahrer,wir,ich,wurden,mit,das,die,vierte,den,ich,schmutzige,man,Bluts,jetzt,einen,wurden,Wohnung,wir,ich,sprudelnden,ausreichendem,war,Packung,dank,bei,auf,Fahrer,Stadt,sind,aus,schönen,landen,mit,"Delikte,",sind,ein,bekannten,viel,36,dauerte,ich,nicht,Blut,bekannten,solch,alten,Kilowattstunden,richtige,Neuwahlen,Büschel,dem,"nicht,",alten,solchen,landen,obschon,schon,Wohnung,warmem,auf,"Japan,",aus,,,,,,,,,,,,,,,,,,,,,,,12,0,12,0,0,4,4,4,,,,,,,,space,0.490475893021,,,,2017_Feb_01_1635,59.8723557936,spr_backupper,001,Mi12,
,den,die,elektrischer,purem,Trinkwasser.,eine,künftigem,deren,geschleudert.,Lärm,hätten,350,350,zusätzlichem,klassischen,sauberen,einem,feinem,roten,ziemlich,einen,Glas,kaltem,frischen,"frischem,",Störenfriede,Wetters,eine,liegen,geschleudert.,salziger,war,harten,Störenfriede,Wäsche.,sie,wurden,um,mehr,serviert.,einem,Auto,Tiere,Bundespräsident.,roten,leider,Wäsche.,der,hat,"nachgewiesen,",gelegentlichen,serviert.,des,von,leider,Trinkwassers.,monatlichem,die,salzige,täglichem,minimalem,noch,wurden,liegen,auf,feinem,Wetter,im,"reichem,",derer,auf,Glas,Skandals,Lärm,würden,ungefähr,mehr,am,hat,Skandal,unzureichenden,Krams,elektrische,"Zeit,",vor,frisches,Mann,was,Kram,unzureichenden,im,sie,immer,des,weichem,noch,die,seltenem,,,,,,,,,,,,,,,,,,,,,,,12,0,12,0,0,5,5,5,,,,,,,,space,0.553706884384,,,,2017_Feb_01_1635,59.8723557936,spr_backupper,001,Mi12,
,Soldaten,Stimmung,Energie.,Alkohol,nan,große,Einkommen,sie,nan,um,seiner,ml,ml,schwarzem,Schmuck,Kraftstoff,Esslöffel,Kunsteis,Planeten,"vermiest,",Besucher.,köstlicher,Abduschen,Grases,kaltem,jeden.,die,große,die,nan,Wurst,aus,Schaumstoff,jeden.,nan,defekt,verschrottet.,die,als,nan,Esslöffel,mehr,artgerecht,nan,Planet,nichts,nan,Soldaten,den,dass,Besucher.,nan,Herrn,den,nichts,nan,Taschengeld,Flut,Wurst,grünen,täglichen,eine,verschrottet.,die,jeden,dichten,die,Müll.,goldenen,sie,jeden,köstlichen,wiedergewählt.,um,seiner,drei,als,Hauptbahnhof.,den,wiedergewählt.,Helmen,aus,Energie.,um,Dezember,Gras,mehr,Tupperware,aus,Helmen,Müll.,defekt,ruhig,Herrn,Untergrund,eine,er,dichten,,,,,,,,,,,,,,,,,,,,,,,12,0,12,0,0,6,6,6,,,,,,,,space,0.950206041336,,,,2017_Feb_01_1635,59.8723557936,spr_backupper,001,Mi12,
,,,,,,,,,,,,,,,,,,,,,,,,,,,,,,,,,,,,,,,,,,,,,,,,,,,,,,,,,,,,,,,,,,,,,,,,,,,,,,,,,,,,,,,,,,,,,,,,,,,,,,,,,,,,,,,,,,,,,,,,,12,0,12,0,,,,,,,,,,,,,,None,j,7.49965500832,2017_Feb_01_1635,59.8723557936,spr_backupper,001,Mi12,
,Bei,Dass,Die,Die,Sie,Mit,Manche,Es,Es,Man,Die,In,In,Die,Die,Wir,Er,Die,Im,Es,Wir,Bei,Die,Wir,Sie,Außer,Sie,Mit,Am,Es,Ich,Die,Alle,Außer,Dort,Die,Die,In,In,Beträchtliche,Er,Wir,In,Walter,Im,Außer,Dort,Bei,Nicht,In,Wir,Beträchtliche,Die,In,Außer,Sie,Jugendliche,Als,Ich,Ich,Ihr,Sie,Die,Am,100,Er,Sie,Viele,Das,Es,100,Bei,Er,Man,Die,Der,In,Die,Nicht,Er,Die,Wir,Die,Jetzt,Unter,Wir,Wir,Die,Wir,Die,Viele,Die,Fernab,Die,Jungtiere,Sie,Die,Danach,,,,,,,,,,,,,,,,,,,,,,,13,0,13,0,0,0,0,0,,,,,,None,,space,0.503582954407,,,,2017_Feb_01_1635,59.8723557936,spr_backupper,001,Mi12,
,der,es,Schule,Lösung,verbrauchen,dieser,Kreditnehmer,waren,wurden,machte,Schuhe,den,den,müden,Stücke,konnten,stellt,Eislaufbahnen,Fernrohr,hat,hatten,unserer,Formen,mussten,haben,dem,verlassen,dieser,äußersten,wurden,nehme,"Uhr,",Betten,den,türmen,Uhr,Autos,der,meinem,Stücke,stellt,übergaben,diesem,Scheel,Fernrohr,das,türmen,der,ein,einer,hatten,Stücke,Gäste,der,dem,verbrauchen,können,die,nehme,wurde,Blutdruck,hatte,Autos,äußeren,g,hat,verlassen,Tonnen,Tuch,waren,g,unserer,wurde,machte,Schuhe,Flug,meinem,Linie,ein,wurde,Kinder,haben,Schule,ist,keinen,mussten,übergaben,Teilnehmerinnen,haben,Kinder,Tonnen,Uhr,des,Gäste,sollten,hatte,Uhr,wurde,,,,,,,,,,,,,,,,,,,,,,,13,0,13,0,0,1,1,1,,,,,,,,space,0.484951972961,,,,2017_Feb_01_1635,59.8723557936,spr_backupper,001,Mi12,
,Feier,"regnete,",verbraucht,wird,60,Methode,sind,nur,Eimer,mal,in,Kakao,Kakao,Teilnehmer,wurden,dann,die,wurden,sahen,uns,in,Ankunft,wurden,uns,die,Bürgermeister,wegen,Methode,Rand,Eimer,eine,die,wurden,Bürgermeister,sich,schlug,beider,Tat,Studium,saftigen,die,dem,Zirkus,war,sahen,Essen,sich,Feier,Tropfen,Studie,in,saftiges,suchen,Tat,Essen,60,Kleidung,Sonne,eine,damals,kann,keine,beider,Rand,braunen,ein,wegen,gebrauchte,wurde,nur,brauner,Ankunft,trotz,mal,in,zum,Studium,101,Tropfen,trotz,fuhren,jede,verbraucht,genau,Umständen,uns,das,wussten,jede,fuhren,gebrauchter,schlug,Rummels,suchen,immer,keine,war,die,,,,,,,,,,,,,,,,,,,,,,,13,0,13,0,0,2,2,2,,,,,,,,space,0.381361961365,,,,2017_Feb_01_1635,59.8723557936,spr_backupper,001,Mi12,
,gedachte,hat,260.000,mit,Liter,kann,mit,kleinere,rote,wieder,Größe,gehören,gehören,wurden,aus,mit,Masse,mit,wir,die,Dänemark,stand,unter,durch,Erlebnisse,beschuldigten,des,kann,der,roter,große,er,mit,beschuldigten,Berge,"sporadisch,",beteiligten,wissen,las,Fleischs,Masse,Mann,werden,der,wir,kann,Berge,gedachte,königlichen,wurde,Dänemark,Fleisch,die,wissen,kann,Liter,bei,"unterging,",große,schnell,schon,Lust,beteiligter,der,Zuckers,Hemd,dem,Kleidung,dann,kleinere,Zucker,stand,des,wieder,Größe,Mond,habe,hält,königliches,dem,mit,Menge,260.000,die,können,durch,Auto,überwiegend,Menge,mit,Kleidung,"sporadisch,",wurde,die,auf,Lust,aus,Leinwand,,,,,,,,,,,,,,,,,,,,,,,13,0,13,0,0,3,3,3,,,,,,,,space,0.395853042603,,,,2017_Feb_01_1635,59.8723557936,spr_backupper,001,Mi12,
,man,uns,Kilowattstunden,"reichlichem,",sprudelndes,man,"sämtlichem,","Delikte,",Farbe,viel,36,immer,immer,mit,"wertvollem,","minimalem,",mit,dauerhaftem,den,Stimmung,gelegentlich,ein,"regelmäßigem,",Büschel,bei,die,schönen,man,Stadt,Farbe,Packung,"trug,","üblichem,",die,schmutziger,obwohl,Fahrer,wir,ich,wurden,mit,das,die,vierte,den,ich,schmutzige,man,Bluts,jetzt,einen,wurden,Wohnung,wir,ich,sprudelnden,ausreichendem,war,Packung,dank,bei,auf,Fahrer,Stadt,sind,aus,schönen,landen,mit,"Delikte,",sind,ein,bekannten,viel,36,dauerte,ich,nicht,Blut,bekannten,solch,alten,Kilowattstunden,richtige,Neuwahlen,Büschel,dem,"nicht,",alten,solchen,landen,obschon,schon,Wohnung,warmem,auf,"Japan,",aus,,,,,,,,,,,,,,,,,,,,,,,13,0,13,0,0,4,4,4,,,,,,,,space,0.503211975098,,,,2017_Feb_01_1635,59.8723557936,spr_backupper,001,Mi12,
,den,die,elektrischer,purem,Trinkwasser.,eine,künftigem,deren,geschleudert.,Lärm,hätten,350,350,zusätzlichem,klassischen,sauberen,einem,feinem,roten,ziemlich,einen,Glas,kaltem,frischen,"frischem,",Störenfriede,Wetters,eine,liegen,geschleudert.,salziger,war,harten,Störenfriede,Wäsche.,sie,wurden,um,mehr,serviert.,einem,Auto,Tiere,Bundespräsident.,roten,leider,Wäsche.,der,hat,"nachgewiesen,",gelegentlichen,serviert.,des,von,leider,Trinkwassers.,monatlichem,die,salzige,täglichem,minimalem,noch,wurden,liegen,auf,feinem,Wetter,im,"reichem,",derer,auf,Glas,Skandals,Lärm,würden,ungefähr,mehr,am,hat,Skandal,unzureichenden,Krams,elektrische,"Zeit,",vor,frisches,Mann,was,Kram,unzureichenden,im,sie,immer,des,weichem,noch,die,seltenem,,,,,,,,,,,,,,,,,,,,,,,13,0,13,0,0,5,5,5,,,,,,,,space,0.436616897583,,,,2017_Feb_01_1635,59.8723557936,spr_backupper,001,Mi12,
,Soldaten,Stimmung,Energie.,Alkohol,nan,große,Einkommen,sie,nan,um,seiner,ml,ml,schwarzem,Schmuck,Kraftstoff,Esslöffel,Kunsteis,Planeten,"vermiest,",Besucher.,köstlicher,Abduschen,Grases,kaltem,jeden.,die,große,die,nan,Wurst,aus,Schaumstoff,jeden.,nan,defekt,verschrottet.,die,als,nan,Esslöffel,mehr,artgerecht,nan,Planet,nichts,nan,Soldaten,den,dass,Besucher.,nan,Herrn,den,nichts,nan,Taschengeld,Flut,Wurst,grünen,täglichen,eine,verschrottet.,die,jeden,dichten,die,Müll.,goldenen,sie,jeden,köstlichen,wiedergewählt.,um,seiner,drei,als,Hauptbahnhof.,den,wiedergewählt.,Helmen,aus,Energie.,um,Dezember,Gras,mehr,Tupperware,aus,Helmen,Müll.,defekt,ruhig,Herrn,Untergrund,eine,er,dichten,,,,,,,,,,,,,,,,,,,,,,,13,0,13,0,0,6,6,6,,,,,,,,space,0.746690988541,,,,2017_Feb_01_1635,59.8723557936,spr_backupper,001,Mi12,
,des,ziemlich,nan,verdünnt.,nan,Menge,haftbar.,überführt,nan,jede,Frau,warmer,warme,Kaffee,umgearbeitet.,fahren.,warmen,eingesprüht.,ganz,dass,nan,Wein,gehärtet.,zwängen.,Saft,nan,Wohnung.,Menge,Slums.,nan,mit,Japan.,gefertigt.,nan,nan,war.,nan,Probleme,einmal,nan,warmem,als,gehalten.,nan,ganz,mitbringen.,nan,des,Boden,das,nan,nan,Gantenbeins.,Problemen,mitbringen.,nan,selber,zurückgekehrt.,mit,Tee,Einsatz,Sammlung,nan,Slums.,Fall,Stoff,Wohnung.,nan,Besatz,überführt,Fall,Weins,nan,jede,Frau,Tage.,einmal,nan,Boden,nan,zur,dem,nan,Nadelhölzer,stattfinden.,zwängen.,als,ist.,dem,zur,nan,war.,diskutiert.,Gantenbein.,liegen.,Sammlung,trug.,Gewebe,,,,,,,,,,,,,,,,,,,,,,,13,0,13,0,0,7,7,7,,,,,,,,space,0.532407999039,,,,2017_Feb_01_1635,59.8723557936,spr_backupper,001,Mi12,
,zweiten,vermiest.,nan,nan,nan,dunkler,nan,wurden.,nan,Menge,gepasst.,Milch.,Milch.,wiederbelebt.,nan,nan,Honigs,nan,deutlich.,es,nan,schon,nan,nan,besprochen.,nan,nan,dunkle,nan,nan,an,nan,nan,nan,nan,nan,nan,im,Rilke.,nan,Honig,gerne.,nan,nan,deutlich.,nan,nan,zweiten,berührt.,Medikament,nan,nan,nan,im,nan,nan,kaufen.,nan,an,wieder,sinken.,dummer,nan,nan,genug.,gefertigt.,nan,nan,rekonstruiert.,wurden.,genug.,schon,nan,Menge,gepasst,nan,Rilke,nan,berührt.,nan,Schule.,Haus,nan,umzusetzen.,nan,nan,gerne.,nan,Haus,Schule.,nan,nan,nan,nan,nan,dumme,nan,wiederhergestellt.,,,,,,,,,,,,,,,,,,,,,,,13,0,13,0,0,8,8,8,,,,,,,,space,0.441707134247,,,,2017_Feb_01_1635,59.8723557936,spr_backupper,001,Mi12,
,,,,,,,,,,,,,,,,,,,,,,,,,,,,,,,,,,,,,,,,,,,,,,,,,,,,,,,,,,,,,,,,,,,,,,,,,,,,,,,,,,,,,,,,,,,,,,,,,,,,,,,,,,,,,,,,,,,,,,,,,13,0,13,0,,,,,,,,,,,,,,None,j,9.50619888306,2017_Feb_01_1635,59.8723557936,spr_backupper,001,Mi12,
,Bei,Dass,Die,Die,Sie,Mit,Manche,Es,Es,Man,Die,In,In,Die,Die,Wir,Er,Die,Im,Es,Wir,Bei,Die,Wir,Sie,Außer,Sie,Mit,Am,Es,Ich,Die,Alle,Außer,Dort,Die,Die,In,In,Beträchtliche,Er,Wir,In,Walter,Im,Außer,Dort,Bei,Nicht,In,Wir,Beträchtliche,Die,In,Außer,Sie,Jugendliche,Als,Ich,Ich,Ihr,Sie,Die,Am,100,Er,Sie,Viele,Das,Es,100,Bei,Er,Man,Die,Der,In,Die,Nicht,Er,Die,Wir,Die,Jetzt,Unter,Wir,Wir,Die,Wir,Die,Viele,Die,Fernab,Die,Jungtiere,Sie,Die,Danach,,,,,,,,,,,,,,,,,,,,,,,14,0,14,0,0,0,0,0,,,,,,space,0.703809976578,space,0.429684877396,,,,2017_Feb_01_1635,59.8723557936,spr_backupper,001,Mi12,
