text,sent48,sent9,sent8,sent15,sent3,sent2,sent1,sent14,sent7,sent6,sent5,sent4,sent57,sent56,sent55,sent54,sent53,sent52,sent51,sent50,sent13,sent12,sent11,sent10,sent17,sent16,sent59,sent58,sent93,sent92,sent91,sent90,sent97,sent96,sent95,sent94,sent98,sent22,sent23,sent20,sent21,sent26,sent27,sent24,sent25,sent28,sent29,sent68,sent69,sent66,sent67,sent64,sent65,sent62,sent63,sent60,sent61,sent31,sent30,sent33,sent32,sent35,sent34,sent37,sent36,sent39,sent38,sent79,sent78,sent75,sent74,sent77,sent76,sent71,sent70,sent73,sent72,sent19,sent49,sent18,sent44,sent45,sent84,sent85,sent86,sent87,sent80,sent81,sent82,sent83,sent40,sent41,sent42,sent43,sent88,sent89,sent46,sent47,intros.thisRepN,intros.thisTrialN,intros.thisN,intros.thisIndex,trials.thisRepN,trials.thisTrialN,trials.thisN,trials.thisIndex,testWords.thisRepN,testWords.thisTrialN,testWords.thisN,testWords.thisIndex,test1,test3,test2,test5,test4,test7,test6,test9,test8,test10,realTrials.thisRepN,realTrials.thisTrialN,realTrials.thisN,realTrials.thisIndex,words.thisRepN,words.thisTrialN,words.thisN,words.thisIndex,key_resp_3.keys,key_resp_3.rt,key_resp_8.keys,key_resp_10.keys,key_resp_10.rt,key_resp_6.keys,key_resp_6.rt,wordRead.keys,wordRead.rt,key_resp_5.keys,questAnswer.keys,questAnswer.rt,date,frameRate,expName,session,participant,
"Vielen Dank, dass Sie an diesem Experiment teilnehmen. Vor dem eigentlichen Experiment sehen Sie nun zuerst eine kurze Erläuterung, und Sie absolvieren ein kurze Übungsphase.

Das Experiment dauert insgesamt nicht mehr als 45 Minuten.",,,,,,,,,,,,,,,,,,,,,,,,,,,,,,,,,,,,,,,,,,,,,,,,,,,,,,,,,,,,,,,,,,,,,,,,,,,,,,,,,,,,,,,,,,,,,,,,,,,0,0,0,0,,,,,,,,,,,,,,,,,,,,,,,,,,,,,,,,,,,,,,,2017_Feb_02_1247,59.1173353179,spr_backupper,001,Mi13,
"In diesem Experiment lesen Sie deutsche Sätze, indem Sie sich von Wort zu Wort mit der Leertaste durch den Satz klicken.",,,,,,,,,,,,,,,,,,,,,,,,,,,,,,,,,,,,,,,,,,,,,,,,,,,,,,,,,,,,,,,,,,,,,,,,,,,,,,,,,,,,,,,,,,,,,,,,,,,0,1,1,1,,,,,,,,,,,,,,,,,,,,,,,,,,,,,,,,,,,,,,,2017_Feb_02_1247,59.1173353179,spr_backupper,001,Mi13,
"Sie sehen dabei immer nur das aktuelle Wort. Die Lesegeschwindigkeit bestimmen Sie vollständig selber. Vor jedem Satz sehen Sie in der Bildschirmmitte für zwei Sekunden ein + an der Stelle, an der dann die Wörter erscheinen.",,,,,,,,,,,,,,,,,,,,,,,,,,,,,,,,,,,,,,,,,,,,,,,,,,,,,,,,,,,,,,,,,,,,,,,,,,,,,,,,,,,,,,,,,,,,,,,,,,,0,2,2,2,,,,,,,,,,,,,,,,,,,,,,,,,,,,,,,,,,,,,,,2017_Feb_02_1247,59.1173353179,spr_backupper,001,Mi13,
"Nach jedem Satz wird Ihnen eine Ja/Nein-Verständnisfrage zum zuvor gelesenen Satz gestellt, die Sie mit der J-Taste für "Ja" und der N-Taste für "Nein" beantworten. Antworten Sie möglichst spontan und ohne lange Nachzudenken.",,,,,,,,,,,,,,,,,,,,,,,,,,,,,,,,,,,,,,,,,,,,,,,,,,,,,,,,,,,,,,,,,,,,,,,,,,,,,,,,,,,,,,,,,,,,,,,,,,,0,3,3,3,,,,,,,,,,,,,,,,,,,,,,,,,,,,,,,,,,,,,,,2017_Feb_02_1247,59.1173353179,spr_backupper,001,Mi13,
"Unterbrechen Sie das Experiment bitte auf keinen Fall, stellen Sie den ExperimentatorInnen nach dem Experimentbeginn keine Fragen, und lassen Sie sich nicht durch Umgebungsgeräusche ablenken.",,,,,,,,,,,,,,,,,,,,,,,,,,,,,,,,,,,,,,,,,,,,,,,,,,,,,,,,,,,,,,,,,,,,,,,,,,,,,,,,,,,,,,,,,,,,,,,,,,,0,4,4,4,,,,,,,,,,,,,,,,,,,,,,,,,,,,,,,,,,,,,,,2017_Feb_02_1247,59.1173353179,spr_backupper,001,Mi13,
"Im nächsten Schritt beantworten Sie bitte eine Frage zu Ihren Deutschkenntnissen. Danach beginnt eine Übungseinheit, mit der Sie sich an die Art der Durchführung dieses Experiments gewöhnen können.",,,,,,,,,,,,,,,,,,,,,,,,,,,,,,,,,,,,,,,,,,,,,,,,,,,,,,,,,,,,,,,,,,,,,,,,,,,,,,,,,,,,,,,,,,,,,,,,,,,0,5,5,5,,,,,,,,,,,,,,,,,,,,,,,,,,,,,,,,,,,,,,,2017_Feb_02_1247,59.1173353179,spr_backupper,001,Mi13,
,,,,,,,,,,,,,,,,,,,,,,,,,,,,,,,,,,,,,,,,,,,,,,,,,,,,,,,,,,,,,,,,,,,,,,,,,,,,,,,,,,,,,,,,,,,,,,,,,,,,,,,,,,,,,,,,,,,,,,,,,,,,,,,,,j,8.13292694092,,,,,,,,,,,2017_Feb_02_1247,59.1173353179,spr_backupper,001,Mi13,
,,,,,,,,,,,,,,,,,,,,,,,,,,,,,,,,,,,,,,,,,,,,,,,,,,,,,,,,,,,,,,,,,,,,,,,,,,,,,,,,,,,,,,,,,,,,,,,,,,,,,,,0,0,0,0,,,,,,,,,,,,,,,,,,,,,,,,,None,,,,,,,,,,2017_Feb_02_1247,59.1173353179,spr_backupper,001,Mi13,
,,,,,,,,,,,,,,,,,,,,,,,,,,,,,,,,,,,,,,,,,,,,,,,,,,,,,,,,,,,,,,,,,,,,,,,,,,,,,,,,,,,,,,,,,,,,,,,,,,,,,,,1,0,1,0,,,,,,,,,,,,,,,,,,,,,,,,,None,,,,,,,,,,2017_Feb_02_1247,59.1173353179,spr_backupper,001,Mi13,
,,,,,,,,,,,,,,,,,,,,,,,,,,,,,,,,,,,,,,,,,,,,,,,,,,,,,,,,,,,,,,,,,,,,,,,,,,,,,,,,,,,,,,,,,,,,,,,,,,,,,,,2,0,2,0,,,,,,,,,,,,,,,,,,,,,,,,,None,,,,,,,,,,2017_Feb_02_1247,59.1173353179,spr_backupper,001,Mi13,
,,,,,,,,,,,,,,,,,,,,,,,,,,,,,,,,,,,,,,,,,,,,,,,,,,,,,,,,,,,,,,,,,,,,,,,,,,,,,,,,,,,,,,,,,,,,,,,,,,,,,,,3,0,3,0,,,,,,,,,,,,,,,,,,,,,,,,,None,,,,,,,,,,2017_Feb_02_1247,59.1173353179,spr_backupper,001,Mi13,
,,,,,,,,,,,,,,,,,,,,,,,,,,,,,,,,,,,,,,,,,,,,,,,,,,,,,,,,,,,,,,,,,,,,,,,,,,,,,,,,,,,,,,,,,,,,,,,,,,,,,,,4,0,4,0,,,,,,,,,,,,,,,,,,,,,,,,,None,,,,,,,,,,2017_Feb_02_1247,59.1173353179,spr_backupper,001,Mi13,
,,,,,,,,,,,,,,,,,,,,,,,,,,,,,,,,,,,,,,,,,,,,,,,,,,,,,,,,,,,,,,,,,,,,,,,,,,,,,,,,,,,,,,,,,,,,,,,,,,,,,,,5,0,5,0,,,,,,,,,,,,,,,,,,,,,,,,,None,,,,,,,,,,2017_Feb_02_1247,59.1173353179,spr_backupper,001,Mi13,
,,,,,,,,,,,,,,,,,,,,,,,,,,,,,,,,,,,,,,,,,,,,,,,,,,,,,,,,,,,,,,,,,,,,,,,,,,,,,,,,,,,,,,,,,,,,,,,,,,,,,,,6,0,6,0,,,,,,,,,,,,,,,,,,,,,,,,,None,,,,,,,,,,2017_Feb_02_1247,59.1173353179,spr_backupper,001,Mi13,
,,,,,,,,,,,,,,,,,,,,,,,,,,,,,,,,,,,,,,,,,,,,,,,,,,,,,,,,,,,,,,,,,,,,,,,,,,,,,,,,,,,,,,,,,,,,,,,,,,,,,,,7,0,7,0,,,,,,,,,,,,,,,,,,,,,,,,,None,,,,,,,,,,2017_Feb_02_1247,59.1173353179,spr_backupper,001,Mi13,
,,,,,,,,,,,,,,,,,,,,,,,,,,,,,,,,,,,,,,,,,,,,,,,,,,,,,,,,,,,,,,,,,,,,,,,,,,,,,,,,,,,,,,,,,,,,,,,,,,,,,,,8,0,8,0,,,,,,,,,,,,,,,,,,,,,,,,,None,,,,,,,,,,2017_Feb_02_1247,59.1173353179,spr_backupper,001,Mi13,
,,,,,,,,,,,,,,,,,,,,,,,,,,,,,,,,,,,,,,,,,,,,,,,,,,,,,,,,,,,,,,,,,,,,,,,,,,,,,,,,,,,,,,,,,,,,,,,,,,,,,,,9,0,9,0,,,,,,,,,,,,,,,,,,,,,,,,,None,,,,,,,,,,2017_Feb_02_1247,59.1173353179,spr_backupper,001,Mi13,
,,,,,,,,,,,,,,,,,,,,,,,,,,,,,,,,,,,,,,,,,,,,,,,,,,,,,,,,,,,,,,,,,,,,,,,,,,,,,,,,,,,,,,,,,,,,,,,,,,,,,,,,,,,,,,,,,,,,,,,,,,,,,,,,,,,,space,2.81780600548,,,,,,,,2017_Feb_02_1247,59.1173353179,spr_backupper,001,Mi13,
,Beträchtliche,Ich,100,Wir,Wir,Sie,Es,Mit,Außer,Dort,In,Die,Es,Er,Ich,Wir,Walter,Bei,In,Sie,Am,Er,Unter,Viele,Alle,In,Die,Sie,Die,Die,Man,Ihr,Nicht,Die,Sie,100,Er,Die,Bei,Wir,Außer,Die,Jetzt,Jugendliche,Es,Die,Im,Mit,Er,Am,Die,Außer,Die,In,Manche,Viele,Außer,Die,Es,Nicht,Das,Die,Jungtiere,Die,Wir,Sie,Sie,Wir,Die,Dass,Die,In,In,Im,Ich,Bei,Es,Er,In,Die,Wir,Man,Dort,Wir,Sie,Danach,Die,Fernab,Beträchtliche,Die,Der,Die,Bei,Die,Als,Wir,In,Die,,,,,,,,,,,,,,,,,,,,,,,0,0,0,0,0,0,0,0,,,,,,space,0.821936845779,space,0.735413074493,,,,2017_Feb_02_1247,59.1173353179,spr_backupper,001,Mi13,
,Stücke,nehme,g,haben,übergaben,hatte,wurden,dieser,dem,türmen,meinem,Eislaufbahnen,wurden,wurde,wurde,mussten,Scheel,unserer,der,verbrauchen,äußersten,wurde,keinen,Tonnen,Betten,den,Kinder,hatte,Uhr,Formen,machte,Blutdruck,ein,Autos,verlassen,g,stellt,Kinder,der,hatten,den,Stücke,ist,können,waren,Autos,Fernrohr,dieser,hat,äußeren,Lösung,das,Uhr,den,Kreditnehmer,Tonnen,dem,Gäste,hat,ein,Tuch,Teilnehmerinnen,sollten,Schule,mussten,verbrauchen,verlassen,haben,Linie,es,Schule,diesem,meinem,Fernrohr,nehme,der,waren,stellt,einer,Schuhe,konnten,machte,türmen,übergaben,haben,wurde,Gäste,des,Stücke,Schuhe,Flug,"Uhr,",unserer,Uhr,die,hatten,der,müden,,,,,,,,,,,,,,,,,,,,,,,0,0,0,0,0,1,1,1,,,,,,,,space,0.568662166595,,,,2017_Feb_02_1247,59.1173353179,spr_backupper,001,Mi13,
,saftiges,eine,brauner,jede,das,keine,Eimer,Methode,Essen,sich,Studium,wurden,Eimer,trotz,damals,uns,war,Ankunft,Tat,60,Rand,trotz,Umständen,gebrauchte,wurden,Kakao,fuhren,keine,schlug,wurden,mal,kann,Tropfen,beider,wegen,braunen,die,fuhren,Feier,in,Bürgermeister,wurden,genau,Kleidung,nur,beider,sahen,Methode,ein,Rand,wird,Essen,war,Kakao,sind,gebrauchter,Bürgermeister,suchen,uns,Tropfen,wurde,wussten,immer,verbraucht,uns,60,wegen,jede,101,"regnete,",verbraucht,Zirkus,Studium,sahen,eine,Feier,nur,die,Studie,in,dann,mal,sich,dem,die,die,suchen,Rummels,saftigen,in,zum,die,Ankunft,schlug,Sonne,in,Tat,Teilnehmer,,,,,,,,,,,,,,,,,,,,,,,0,0,0,0,0,2,2,2,,,,,,,,space,2.65727090836,,,,2017_Feb_02_1247,59.1173353179,spr_backupper,001,Mi13,
,Fleisch,große,Zucker,Menge,Auto,Lust,roter,kann,kann,Berge,habe,mit,rote,dem,schnell,durch,der,stand,wissen,Liter,der,des,können,Kleidung,mit,gehören,mit,Lust,"sporadisch,",unter,wieder,schon,königliches,beteiligter,dem,Zuckers,Masse,mit,gedachte,Dänemark,beschuldigten,aus,die,bei,kleinere,beteiligten,wir,kann,Hemd,der,mit,kann,aus,gehören,mit,Kleidung,beschuldigten,die,die,königlichen,dann,überwiegend,auf,260.000,durch,Liter,des,Menge,hält,hat,260.000,werden,las,wir,große,gedachte,kleinere,Masse,wurde,Größe,mit,wieder,Berge,Mann,Erlebnisse,Leinwand,die,wurde,Fleischs,Größe,Mond,er,stand,"sporadisch,","unterging,",Dänemark,wissen,wurden,,,,,,,,,,,,,,,,,,,,,,,0,0,0,0,0,3,3,3,,,,,,,,space,1.04706692696,,,,2017_Feb_02_1247,59.1173353179,spr_backupper,001,Mi13,
,wurden,Packung,sind,alten,dem,auf,Farbe,man,ich,schmutziger,ich,dauerhaftem,Farbe,bekannten,dank,Büschel,vierte,ein,wir,sprudelndes,Stadt,bekannten,Neuwahlen,landen,"üblichem,",immer,solch,auf,obschon,"regelmäßigem,",viel,bei,Blut,Fahrer,schönen,sind,mit,solchen,man,einen,die,"wertvollem,",richtige,ausreichendem,"Delikte,",Fahrer,den,man,aus,Stadt,"reichlichem,",ich,"Japan,",immer,"sämtlichem,",landen,die,Wohnung,Stimmung,Bluts,mit,"nicht,",warmem,Kilowattstunden,Büschel,sprudelnden,schönen,alten,nicht,uns,Kilowattstunden,die,ich,den,Packung,man,"Delikte,",mit,jetzt,36,"minimalem,",viel,schmutzige,das,bei,aus,Wohnung,schon,wurden,36,dauerte,"trug,",ein,obwohl,war,gelegentlich,wir,mit,,,,,,,,,,,,,,,,,,,,,,,0,0,0,0,0,4,4,4,,,,,,,,space,1.0468070507,,,,2017_Feb_02_1247,59.1173353179,spr_backupper,001,Mi13,
,serviert.,salziger,auf,Kram,Mann,noch,geschleudert.,eine,leider,Wäsche.,mehr,feinem,geschleudert.,Skandal,täglichem,frischen,Bundespräsident.,Glas,um,Trinkwasser.,liegen,Skandals,vor,im,harten,350,unzureichenden,noch,sie,kaltem,Lärm,minimalem,hat,wurden,Wetter,auf,einem,unzureichenden,der,gelegentlichen,Störenfriede,klassischen,"Zeit,",monatlichem,derer,wurden,roten,eine,feinem,liegen,purem,leider,die,350,künftigem,im,Störenfriede,des,ziemlich,hat,"reichem,",was,weichem,elektrische,frisches,Trinkwassers.,Wetters,Krams,am,die,elektrischer,Tiere,mehr,roten,salzige,den,deren,einem,"nachgewiesen,",würden,sauberen,Lärm,Wäsche.,Auto,"frischem,",seltenem,des,immer,serviert.,hätten,ungefähr,war,Glas,sie,die,einen,von,zusätzlichem,,,,,,,,,,,,,,,,,,,,,,,0,0,0,0,0,5,5,5,,,,,,,,space,0.886761903763,,,,2017_Feb_02_1247,59.1173353179,spr_backupper,001,Mi13,
,,,,,,,,,,,,,,,,,,,,,,,,,,,,,,,,,,,,,,,,,,,,,,,,,,,,,,,,,,,,,,,,,,,,,,,,,,,,,,,,,,,,,,,,,,,,,,,,,,,,,,,,,,,,,,,,,,,,,,,,,0,0,0,0,,,,,,,,,,,,,,None,n,4.19737911224,2017_Feb_02_1247,59.1173353179,spr_backupper,001,Mi13,
,Beträchtliche,Ich,100,Wir,Wir,Sie,Es,Mit,Außer,Dort,In,Die,Es,Er,Ich,Wir,Walter,Bei,In,Sie,Am,Er,Unter,Viele,Alle,In,Die,Sie,Die,Die,Man,Ihr,Nicht,Die,Sie,100,Er,Die,Bei,Wir,Außer,Die,Jetzt,Jugendliche,Es,Die,Im,Mit,Er,Am,Die,Außer,Die,In,Manche,Viele,Außer,Die,Es,Nicht,Das,Die,Jungtiere,Die,Wir,Sie,Sie,Wir,Die,Dass,Die,In,In,Im,Ich,Bei,Es,Er,In,Die,Wir,Man,Dort,Wir,Sie,Danach,Die,Fernab,Beträchtliche,Die,Der,Die,Bei,Die,Als,Wir,In,Die,,,,,,,,,,,,,,,,,,,,,,,1,0,1,0,0,0,0,0,,,,,,space,0.889760971069,space,0.614253044128,,,,2017_Feb_02_1247,59.1173353179,spr_backupper,001,Mi13,
,Stücke,nehme,g,haben,übergaben,hatte,wurden,dieser,dem,türmen,meinem,Eislaufbahnen,wurden,wurde,wurde,mussten,Scheel,unserer,der,verbrauchen,äußersten,wurde,keinen,Tonnen,Betten,den,Kinder,hatte,Uhr,Formen,machte,Blutdruck,ein,Autos,verlassen,g,stellt,Kinder,der,hatten,den,Stücke,ist,können,waren,Autos,Fernrohr,dieser,hat,äußeren,Lösung,das,Uhr,den,Kreditnehmer,Tonnen,dem,Gäste,hat,ein,Tuch,Teilnehmerinnen,sollten,Schule,mussten,verbrauchen,verlassen,haben,Linie,es,Schule,diesem,meinem,Fernrohr,nehme,der,waren,stellt,einer,Schuhe,konnten,machte,türmen,übergaben,haben,wurde,Gäste,des,Stücke,Schuhe,Flug,"Uhr,",unserer,Uhr,die,hatten,der,müden,,,,,,,,,,,,,,,,,,,,,,,1,0,1,0,0,1,1,1,,,,,,,,space,0.516877174377,,,,2017_Feb_02_1247,59.1173353179,spr_backupper,001,Mi13,
,saftiges,eine,brauner,jede,das,keine,Eimer,Methode,Essen,sich,Studium,wurden,Eimer,trotz,damals,uns,war,Ankunft,Tat,60,Rand,trotz,Umständen,gebrauchte,wurden,Kakao,fuhren,keine,schlug,wurden,mal,kann,Tropfen,beider,wegen,braunen,die,fuhren,Feier,in,Bürgermeister,wurden,genau,Kleidung,nur,beider,sahen,Methode,ein,Rand,wird,Essen,war,Kakao,sind,gebrauchter,Bürgermeister,suchen,uns,Tropfen,wurde,wussten,immer,verbraucht,uns,60,wegen,jede,101,"regnete,",verbraucht,Zirkus,Studium,sahen,eine,Feier,nur,die,Studie,in,dann,mal,sich,dem,die,die,suchen,Rummels,saftigen,in,zum,die,Ankunft,schlug,Sonne,in,Tat,Teilnehmer,,,,,,,,,,,,,,,,,,,,,,,1,0,1,0,0,2,2,2,,,,,,,,space,0.483571052551,,,,2017_Feb_02_1247,59.1173353179,spr_backupper,001,Mi13,
,Fleisch,große,Zucker,Menge,Auto,Lust,roter,kann,kann,Berge,habe,mit,rote,dem,schnell,durch,der,stand,wissen,Liter,der,des,können,Kleidung,mit,gehören,mit,Lust,"sporadisch,",unter,wieder,schon,königliches,beteiligter,dem,Zuckers,Masse,mit,gedachte,Dänemark,beschuldigten,aus,die,bei,kleinere,beteiligten,wir,kann,Hemd,der,mit,kann,aus,gehören,mit,Kleidung,beschuldigten,die,die,königlichen,dann,überwiegend,auf,260.000,durch,Liter,des,Menge,hält,hat,260.000,werden,las,wir,große,gedachte,kleinere,Masse,wurde,Größe,mit,wieder,Berge,Mann,Erlebnisse,Leinwand,die,wurde,Fleischs,Größe,Mond,er,stand,"sporadisch,","unterging,",Dänemark,wissen,wurden,,,,,,,,,,,,,,,,,,,,,,,1,0,1,0,0,3,3,3,,,,,,,,space,0.537904024124,,,,2017_Feb_02_1247,59.1173353179,spr_backupper,001,Mi13,
,wurden,Packung,sind,alten,dem,auf,Farbe,man,ich,schmutziger,ich,dauerhaftem,Farbe,bekannten,dank,Büschel,vierte,ein,wir,sprudelndes,Stadt,bekannten,Neuwahlen,landen,"üblichem,",immer,solch,auf,obschon,"regelmäßigem,",viel,bei,Blut,Fahrer,schönen,sind,mit,solchen,man,einen,die,"wertvollem,",richtige,ausreichendem,"Delikte,",Fahrer,den,man,aus,Stadt,"reichlichem,",ich,"Japan,",immer,"sämtlichem,",landen,die,Wohnung,Stimmung,Bluts,mit,"nicht,",warmem,Kilowattstunden,Büschel,sprudelnden,schönen,alten,nicht,uns,Kilowattstunden,die,ich,den,Packung,man,"Delikte,",mit,jetzt,36,"minimalem,",viel,schmutzige,das,bei,aus,Wohnung,schon,wurden,36,dauerte,"trug,",ein,obwohl,war,gelegentlich,wir,mit,,,,,,,,,,,,,,,,,,,,,,,1,0,1,0,0,4,4,4,,,,,,,,space,0.468711853027,,,,2017_Feb_02_1247,59.1173353179,spr_backupper,001,Mi13,
,serviert.,salziger,auf,Kram,Mann,noch,geschleudert.,eine,leider,Wäsche.,mehr,feinem,geschleudert.,Skandal,täglichem,frischen,Bundespräsident.,Glas,um,Trinkwasser.,liegen,Skandals,vor,im,harten,350,unzureichenden,noch,sie,kaltem,Lärm,minimalem,hat,wurden,Wetter,auf,einem,unzureichenden,der,gelegentlichen,Störenfriede,klassischen,"Zeit,",monatlichem,derer,wurden,roten,eine,feinem,liegen,purem,leider,die,350,künftigem,im,Störenfriede,des,ziemlich,hat,"reichem,",was,weichem,elektrische,frisches,Trinkwassers.,Wetters,Krams,am,die,elektrischer,Tiere,mehr,roten,salzige,den,deren,einem,"nachgewiesen,",würden,sauberen,Lärm,Wäsche.,Auto,"frischem,",seltenem,des,immer,serviert.,hätten,ungefähr,war,Glas,sie,die,einen,von,zusätzlichem,,,,,,,,,,,,,,,,,,,,,,,1,0,1,0,0,5,5,5,,,,,,,,space,0.41996717453,,,,2017_Feb_02_1247,59.1173353179,spr_backupper,001,Mi13,
,nan,Wurst,jeden,aus,mehr,eine,nan,große,nichts,nan,als,Kunsteis,nan,wiedergewählt.,grünen,Grases,nan,köstlicher,die,nan,die,wiedergewählt.,Dezember,Müll.,Schaumstoff,ml,Helmen,eine,defekt,Abduschen,um,täglichen,den,verschrottet.,die,jeden,Esslöffel,Helmen,Soldaten,Besucher.,jeden.,Schmuck,um,Taschengeld,sie,verschrottet.,Planeten,große,dichten,die,Alkohol,nichts,er,ml,Einkommen,Müll.,jeden.,Herrn,"vermiest,",den,goldenen,Tupperware,Untergrund,Energie.,Gras,nan,die,aus,Hauptbahnhof.,Stimmung,Energie.,artgerecht,als,Planet,Wurst,Soldaten,sie,Esslöffel,dass,seiner,Kraftstoff,um,nan,mehr,kaltem,dichten,Herrn,ruhig,nan,seiner,drei,aus,köstlichen,defekt,Flut,Besucher.,den,schwarzem,,,,,,,,,,,,,,,,,,,,,,,1,0,1,0,0,6,6,6,,,,,,,,space,0.409906148911,,,,2017_Feb_02_1247,59.1173353179,spr_backupper,001,Mi13,
,nan,mit,Fall,dem,als,Sammlung,nan,Menge,mitbringen.,nan,einmal,eingesprüht.,nan,nan,Tee,zwängen.,nan,Wein,Probleme,nan,Slums.,nan,stattfinden.,nan,gefertigt.,warme,zur,Sammlung,war.,gehärtet.,jede,Einsatz,Boden,nan,Wohnung.,Fall,warmem,zur,des,nan,nan,umgearbeitet.,Nadelhölzer,selber,überführt,nan,ganz,Menge,Stoff,Slums.,verdünnt.,mitbringen.,trug.,warmer,haftbar.,nan,nan,Gantenbeins.,dass,Boden,Besatz,ist.,liegen.,nan,zwängen.,nan,Wohnung.,dem,nan,ziemlich,nan,gehalten.,einmal,ganz,mit,des,überführt,warmen,das,Frau,fahren.,jede,nan,als,Saft,Gewebe,Gantenbein.,diskutiert.,nan,Frau,Tage.,Japan.,Weins,war.,zurückgekehrt.,nan,Problemen,Kaffee,,,,,,,,,,,,,,,,,,,,,,,1,0,1,0,0,7,7,7,,,,,,,,space,0.491450071335,,,,2017_Feb_02_1247,59.1173353179,spr_backupper,001,Mi13,
,nan,an,genug.,Haus,gerne.,dumme,nan,dunkle,nan,nan,Rilke,nan,nan,nan,wieder,nan,nan,schon,im,nan,nan,nan,nan,nan,nan,Milch.,Schule.,dummer,nan,nan,Menge,sinken.,berührt.,nan,nan,genug.,Honig,Schule.,zweiten,nan,nan,nan,umzusetzen.,kaufen.,wurden.,nan,deutlich.,dunkler,gefertigt.,nan,nan,nan,nan,Milch.,nan,nan,nan,nan,es,berührt.,rekonstruiert.,nan,nan,nan,nan,nan,nan,Haus,nan,vermiest.,nan,nan,Rilke.,deutlich.,an,zweiten,wurden.,Honigs,Medikament,gepasst,nan,Menge,nan,gerne.,besprochen.,wiederhergestellt.,nan,nan,nan,gepasst.,nan,nan,schon,nan,nan,nan,im,wiederbelebt.,,,,,,,,,,,,,,,,,,,,,,,1,0,1,0,0,8,8,8,,,,,,,,space,0.487019062042,,,,2017_Feb_02_1247,59.1173353179,spr_backupper,001,Mi13,
,nan,den,nan,geschafft.,nan,Sprüche.,nan,Materie,nan,nan,gelesen.,nan,nan,nan,fit.,nan,nan,auf,Landkreis.,nan,nan,nan,nan,nan,nan,nan,nan,Sprüche.,nan,nan,heiße,nan,nan,nan,nan,nan,her.,nan,Weltkriegs.,nan,nan,nan,nan,nan,nan,nan,nan,Materie,nan,nan,nan,nan,nan,nan,nan,nan,nan,nan,regnete.,nan,nan,nan,nan,nan,nan,nan,nan,geschafft.,nan,nan,nan,nan,nan,nan,den,Weltkriegs.,nan,her.,nicht,haben.,nan,heißer,nan,nan,nan,nan,nan,nan,nan,nan,nan,nan,auf,nan,nan,nan,Landkreis.,nan,,,,,,,,,,,,,,,,,,,,,,,1,0,1,0,0,9,9,9,,,,,,,,space,0.645129919052,,,,2017_Feb_02_1247,59.1173353179,spr_backupper,001,Mi13,
,,,,,,,,,,,,,,,,,,,,,,,,,,,,,,,,,,,,,,,,,,,,,,,,,,,,,,,,,,,,,,,,,,,,,,,,,,,,,,,,,,,,,,,,,,,,,,,,,,,,,,,,,,,,,,,,,,,,,,,,,1,0,1,0,,,,,,,,,,,,,,None,n,5.61740899086,2017_Feb_02_1247,59.1173353179,spr_backupper,001,Mi13,
,Beträchtliche,Ich,100,Wir,Wir,Sie,Es,Mit,Außer,Dort,In,Die,Es,Er,Ich,Wir,Walter,Bei,In,Sie,Am,Er,Unter,Viele,Alle,In,Die,Sie,Die,Die,Man,Ihr,Nicht,Die,Sie,100,Er,Die,Bei,Wir,Außer,Die,Jetzt,Jugendliche,Es,Die,Im,Mit,Er,Am,Die,Außer,Die,In,Manche,Viele,Außer,Die,Es,Nicht,Das,Die,Jungtiere,Die,Wir,Sie,Sie,Wir,Die,Dass,Die,In,In,Im,Ich,Bei,Es,Er,In,Die,Wir,Man,Dort,Wir,Sie,Danach,Die,Fernab,Beträchtliche,Die,Der,Die,Bei,Die,Als,Wir,In,Die,,,,,,,,,,,,,,,,,,,,,,,2,0,2,0,0,0,0,0,,,,,,space,0.620630979538,space,0.536130189896,,,,2017_Feb_02_1247,59.1173353179,spr_backupper,001,Mi13,
,Stücke,nehme,g,haben,übergaben,hatte,wurden,dieser,dem,türmen,meinem,Eislaufbahnen,wurden,wurde,wurde,mussten,Scheel,unserer,der,verbrauchen,äußersten,wurde,keinen,Tonnen,Betten,den,Kinder,hatte,Uhr,Formen,machte,Blutdruck,ein,Autos,verlassen,g,stellt,Kinder,der,hatten,den,Stücke,ist,können,waren,Autos,Fernrohr,dieser,hat,äußeren,Lösung,das,Uhr,den,Kreditnehmer,Tonnen,dem,Gäste,hat,ein,Tuch,Teilnehmerinnen,sollten,Schule,mussten,verbrauchen,verlassen,haben,Linie,es,Schule,diesem,meinem,Fernrohr,nehme,der,waren,stellt,einer,Schuhe,konnten,machte,türmen,übergaben,haben,wurde,Gäste,des,Stücke,Schuhe,Flug,"Uhr,",unserer,Uhr,die,hatten,der,müden,,,,,,,,,,,,,,,,,,,,,,,2,0,2,0,0,1,1,1,,,,,,,,space,0.62434887886,,,,2017_Feb_02_1247,59.1173353179,spr_backupper,001,Mi13,
,saftiges,eine,brauner,jede,das,keine,Eimer,Methode,Essen,sich,Studium,wurden,Eimer,trotz,damals,uns,war,Ankunft,Tat,60,Rand,trotz,Umständen,gebrauchte,wurden,Kakao,fuhren,keine,schlug,wurden,mal,kann,Tropfen,beider,wegen,braunen,die,fuhren,Feier,in,Bürgermeister,wurden,genau,Kleidung,nur,beider,sahen,Methode,ein,Rand,wird,Essen,war,Kakao,sind,gebrauchter,Bürgermeister,suchen,uns,Tropfen,wurde,wussten,immer,verbraucht,uns,60,wegen,jede,101,"regnete,",verbraucht,Zirkus,Studium,sahen,eine,Feier,nur,die,Studie,in,dann,mal,sich,dem,die,die,suchen,Rummels,saftigen,in,zum,die,Ankunft,schlug,Sonne,in,Tat,Teilnehmer,,,,,,,,,,,,,,,,,,,,,,,2,0,2,0,0,2,2,2,,,,,,,,space,0.520555973053,,,,2017_Feb_02_1247,59.1173353179,spr_backupper,001,Mi13,
,Fleisch,große,Zucker,Menge,Auto,Lust,roter,kann,kann,Berge,habe,mit,rote,dem,schnell,durch,der,stand,wissen,Liter,der,des,können,Kleidung,mit,gehören,mit,Lust,"sporadisch,",unter,wieder,schon,königliches,beteiligter,dem,Zuckers,Masse,mit,gedachte,Dänemark,beschuldigten,aus,die,bei,kleinere,beteiligten,wir,kann,Hemd,der,mit,kann,aus,gehören,mit,Kleidung,beschuldigten,die,die,königlichen,dann,überwiegend,auf,260.000,durch,Liter,des,Menge,hält,hat,260.000,werden,las,wir,große,gedachte,kleinere,Masse,wurde,Größe,mit,wieder,Berge,Mann,Erlebnisse,Leinwand,die,wurde,Fleischs,Größe,Mond,er,stand,"sporadisch,","unterging,",Dänemark,wissen,wurden,,,,,,,,,,,,,,,,,,,,,,,2,0,2,0,0,3,3,3,,,,,,,,space,0.5600669384,,,,2017_Feb_02_1247,59.1173353179,spr_backupper,001,Mi13,
,wurden,Packung,sind,alten,dem,auf,Farbe,man,ich,schmutziger,ich,dauerhaftem,Farbe,bekannten,dank,Büschel,vierte,ein,wir,sprudelndes,Stadt,bekannten,Neuwahlen,landen,"üblichem,",immer,solch,auf,obschon,"regelmäßigem,",viel,bei,Blut,Fahrer,schönen,sind,mit,solchen,man,einen,die,"wertvollem,",richtige,ausreichendem,"Delikte,",Fahrer,den,man,aus,Stadt,"reichlichem,",ich,"Japan,",immer,"sämtlichem,",landen,die,Wohnung,Stimmung,Bluts,mit,"nicht,",warmem,Kilowattstunden,Büschel,sprudelnden,schönen,alten,nicht,uns,Kilowattstunden,die,ich,den,Packung,man,"Delikte,",mit,jetzt,36,"minimalem,",viel,schmutzige,das,bei,aus,Wohnung,schon,wurden,36,dauerte,"trug,",ein,obwohl,war,gelegentlich,wir,mit,,,,,,,,,,,,,,,,,,,,,,,2,0,2,0,0,4,4,4,,,,,,,,space,0.538187980652,,,,2017_Feb_02_1247,59.1173353179,spr_backupper,001,Mi13,
,serviert.,salziger,auf,Kram,Mann,noch,geschleudert.,eine,leider,Wäsche.,mehr,feinem,geschleudert.,Skandal,täglichem,frischen,Bundespräsident.,Glas,um,Trinkwasser.,liegen,Skandals,vor,im,harten,350,unzureichenden,noch,sie,kaltem,Lärm,minimalem,hat,wurden,Wetter,auf,einem,unzureichenden,der,gelegentlichen,Störenfriede,klassischen,"Zeit,",monatlichem,derer,wurden,roten,eine,feinem,liegen,purem,leider,die,350,künftigem,im,Störenfriede,des,ziemlich,hat,"reichem,",was,weichem,elektrische,frisches,Trinkwassers.,Wetters,Krams,am,die,elektrischer,Tiere,mehr,roten,salzige,den,deren,einem,"nachgewiesen,",würden,sauberen,Lärm,Wäsche.,Auto,"frischem,",seltenem,des,immer,serviert.,hätten,ungefähr,war,Glas,sie,die,einen,von,zusätzlichem,,,,,,,,,,,,,,,,,,,,,,,2,0,2,0,0,5,5,5,,,,,,,,space,0.559768915176,,,,2017_Feb_02_1247,59.1173353179,spr_backupper,001,Mi13,
,nan,Wurst,jeden,aus,mehr,eine,nan,große,nichts,nan,als,Kunsteis,nan,wiedergewählt.,grünen,Grases,nan,köstlicher,die,nan,die,wiedergewählt.,Dezember,Müll.,Schaumstoff,ml,Helmen,eine,defekt,Abduschen,um,täglichen,den,verschrottet.,die,jeden,Esslöffel,Helmen,Soldaten,Besucher.,jeden.,Schmuck,um,Taschengeld,sie,verschrottet.,Planeten,große,dichten,die,Alkohol,nichts,er,ml,Einkommen,Müll.,jeden.,Herrn,"vermiest,",den,goldenen,Tupperware,Untergrund,Energie.,Gras,nan,die,aus,Hauptbahnhof.,Stimmung,Energie.,artgerecht,als,Planet,Wurst,Soldaten,sie,Esslöffel,dass,seiner,Kraftstoff,um,nan,mehr,kaltem,dichten,Herrn,ruhig,nan,seiner,drei,aus,köstlichen,defekt,Flut,Besucher.,den,schwarzem,,,,,,,,,,,,,,,,,,,,,,,2,0,2,0,0,6,6,6,,,,,,,,space,0.536684989929,,,,2017_Feb_02_1247,59.1173353179,spr_backupper,001,Mi13,
,nan,mit,Fall,dem,als,Sammlung,nan,Menge,mitbringen.,nan,einmal,eingesprüht.,nan,nan,Tee,zwängen.,nan,Wein,Probleme,nan,Slums.,nan,stattfinden.,nan,gefertigt.,warme,zur,Sammlung,war.,gehärtet.,jede,Einsatz,Boden,nan,Wohnung.,Fall,warmem,zur,des,nan,nan,umgearbeitet.,Nadelhölzer,selber,überführt,nan,ganz,Menge,Stoff,Slums.,verdünnt.,mitbringen.,trug.,warmer,haftbar.,nan,nan,Gantenbeins.,dass,Boden,Besatz,ist.,liegen.,nan,zwängen.,nan,Wohnung.,dem,nan,ziemlich,nan,gehalten.,einmal,ganz,mit,des,überführt,warmen,das,Frau,fahren.,jede,nan,als,Saft,Gewebe,Gantenbein.,diskutiert.,nan,Frau,Tage.,Japan.,Weins,war.,zurückgekehrt.,nan,Problemen,Kaffee,,,,,,,,,,,,,,,,,,,,,,,2,0,2,0,0,7,7,7,,,,,,,,space,0.754838943481,,,,2017_Feb_02_1247,59.1173353179,spr_backupper,001,Mi13,
,nan,an,genug.,Haus,gerne.,dumme,nan,dunkle,nan,nan,Rilke,nan,nan,nan,wieder,nan,nan,schon,im,nan,nan,nan,nan,nan,nan,Milch.,Schule.,dummer,nan,nan,Menge,sinken.,berührt.,nan,nan,genug.,Honig,Schule.,zweiten,nan,nan,nan,umzusetzen.,kaufen.,wurden.,nan,deutlich.,dunkler,gefertigt.,nan,nan,nan,nan,Milch.,nan,nan,nan,nan,es,berührt.,rekonstruiert.,nan,nan,nan,nan,nan,nan,Haus,nan,vermiest.,nan,nan,Rilke.,deutlich.,an,zweiten,wurden.,Honigs,Medikament,gepasst,nan,Menge,nan,gerne.,besprochen.,wiederhergestellt.,nan,nan,nan,gepasst.,nan,nan,schon,nan,nan,nan,im,wiederbelebt.,,,,,,,,,,,,,,,,,,,,,,,2,0,2,0,0,8,8,8,,,,,,,,space,0.872176170349,,,,2017_Feb_02_1247,59.1173353179,spr_backupper,001,Mi13,
,,,,,,,,,,,,,,,,,,,,,,,,,,,,,,,,,,,,,,,,,,,,,,,,,,,,,,,,,,,,,,,,,,,,,,,,,,,,,,,,,,,,,,,,,,,,,,,,,,,,,,,,,,,,,,,,,,,,,,,,,2,0,2,0,,,,,,,,,,,,,,None,n,8.4536511898,2017_Feb_02_1247,59.1173353179,spr_backupper,001,Mi13,
,Beträchtliche,Ich,100,Wir,Wir,Sie,Es,Mit,Außer,Dort,In,Die,Es,Er,Ich,Wir,Walter,Bei,In,Sie,Am,Er,Unter,Viele,Alle,In,Die,Sie,Die,Die,Man,Ihr,Nicht,Die,Sie,100,Er,Die,Bei,Wir,Außer,Die,Jetzt,Jugendliche,Es,Die,Im,Mit,Er,Am,Die,Außer,Die,In,Manche,Viele,Außer,Die,Es,Nicht,Das,Die,Jungtiere,Die,Wir,Sie,Sie,Wir,Die,Dass,Die,In,In,Im,Ich,Bei,Es,Er,In,Die,Wir,Man,Dort,Wir,Sie,Danach,Die,Fernab,Beträchtliche,Die,Der,Die,Bei,Die,Als,Wir,In,Die,,,,,,,,,,,,,,,,,,,,,,,3,0,3,0,0,0,0,0,,,,,,None,,space,0.000169038772583,,,,2017_Feb_02_1247,59.1173353179,spr_backupper,001,Mi13,
,Stücke,nehme,g,haben,übergaben,hatte,wurden,dieser,dem,türmen,meinem,Eislaufbahnen,wurden,wurde,wurde,mussten,Scheel,unserer,der,verbrauchen,äußersten,wurde,keinen,Tonnen,Betten,den,Kinder,hatte,Uhr,Formen,machte,Blutdruck,ein,Autos,verlassen,g,stellt,Kinder,der,hatten,den,Stücke,ist,können,waren,Autos,Fernrohr,dieser,hat,äußeren,Lösung,das,Uhr,den,Kreditnehmer,Tonnen,dem,Gäste,hat,ein,Tuch,Teilnehmerinnen,sollten,Schule,mussten,verbrauchen,verlassen,haben,Linie,es,Schule,diesem,meinem,Fernrohr,nehme,der,waren,stellt,einer,Schuhe,konnten,machte,türmen,übergaben,haben,wurde,Gäste,des,Stücke,Schuhe,Flug,"Uhr,",unserer,Uhr,die,hatten,der,müden,,,,,,,,,,,,,,,,,,,,,,,3,0,3,0,0,1,1,1,,,,,,,,space,0.976572036743,,,,2017_Feb_02_1247,59.1173353179,spr_backupper,001,Mi13,
,saftiges,eine,brauner,jede,das,keine,Eimer,Methode,Essen,sich,Studium,wurden,Eimer,trotz,damals,uns,war,Ankunft,Tat,60,Rand,trotz,Umständen,gebrauchte,wurden,Kakao,fuhren,keine,schlug,wurden,mal,kann,Tropfen,beider,wegen,braunen,die,fuhren,Feier,in,Bürgermeister,wurden,genau,Kleidung,nur,beider,sahen,Methode,ein,Rand,wird,Essen,war,Kakao,sind,gebrauchter,Bürgermeister,suchen,uns,Tropfen,wurde,wussten,immer,verbraucht,uns,60,wegen,jede,101,"regnete,",verbraucht,Zirkus,Studium,sahen,eine,Feier,nur,die,Studie,in,dann,mal,sich,dem,die,die,suchen,Rummels,saftigen,in,zum,die,Ankunft,schlug,Sonne,in,Tat,Teilnehmer,,,,,,,,,,,,,,,,,,,,,,,3,0,3,0,0,2,2,2,,,,,,,,space,1.17496991158,,,,2017_Feb_02_1247,59.1173353179,spr_backupper,001,Mi13,
,Fleisch,große,Zucker,Menge,Auto,Lust,roter,kann,kann,Berge,habe,mit,rote,dem,schnell,durch,der,stand,wissen,Liter,der,des,können,Kleidung,mit,gehören,mit,Lust,"sporadisch,",unter,wieder,schon,königliches,beteiligter,dem,Zuckers,Masse,mit,gedachte,Dänemark,beschuldigten,aus,die,bei,kleinere,beteiligten,wir,kann,Hemd,der,mit,kann,aus,gehören,mit,Kleidung,beschuldigten,die,die,königlichen,dann,überwiegend,auf,260.000,durch,Liter,des,Menge,hält,hat,260.000,werden,las,wir,große,gedachte,kleinere,Masse,wurde,Größe,mit,wieder,Berge,Mann,Erlebnisse,Leinwand,die,wurde,Fleischs,Größe,Mond,er,stand,"sporadisch,","unterging,",Dänemark,wissen,wurden,,,,,,,,,,,,,,,,,,,,,,,3,0,3,0,0,3,3,3,,,,,,,,space,0.800904035568,,,,2017_Feb_02_1247,59.1173353179,spr_backupper,001,Mi13,
,wurden,Packung,sind,alten,dem,auf,Farbe,man,ich,schmutziger,ich,dauerhaftem,Farbe,bekannten,dank,Büschel,vierte,ein,wir,sprudelndes,Stadt,bekannten,Neuwahlen,landen,"üblichem,",immer,solch,auf,obschon,"regelmäßigem,",viel,bei,Blut,Fahrer,schönen,sind,mit,solchen,man,einen,die,"wertvollem,",richtige,ausreichendem,"Delikte,",Fahrer,den,man,aus,Stadt,"reichlichem,",ich,"Japan,",immer,"sämtlichem,",landen,die,Wohnung,Stimmung,Bluts,mit,"nicht,",warmem,Kilowattstunden,Büschel,sprudelnden,schönen,alten,nicht,uns,Kilowattstunden,die,ich,den,Packung,man,"Delikte,",mit,jetzt,36,"minimalem,",viel,schmutzige,das,bei,aus,Wohnung,schon,wurden,36,dauerte,"trug,",ein,obwohl,war,gelegentlich,wir,mit,,,,,,,,,,,,,,,,,,,,,,,3,0,3,0,0,4,4,4,,,,,,,,space,2.29776716232,,,,2017_Feb_02_1247,59.1173353179,spr_backupper,001,Mi13,
,serviert.,salziger,auf,Kram,Mann,noch,geschleudert.,eine,leider,Wäsche.,mehr,feinem,geschleudert.,Skandal,täglichem,frischen,Bundespräsident.,Glas,um,Trinkwasser.,liegen,Skandals,vor,im,harten,350,unzureichenden,noch,sie,kaltem,Lärm,minimalem,hat,wurden,Wetter,auf,einem,unzureichenden,der,gelegentlichen,Störenfriede,klassischen,"Zeit,",monatlichem,derer,wurden,roten,eine,feinem,liegen,purem,leider,die,350,künftigem,im,Störenfriede,des,ziemlich,hat,"reichem,",was,weichem,elektrische,frisches,Trinkwassers.,Wetters,Krams,am,die,elektrischer,Tiere,mehr,roten,salzige,den,deren,einem,"nachgewiesen,",würden,sauberen,Lärm,Wäsche.,Auto,"frischem,",seltenem,des,immer,serviert.,hätten,ungefähr,war,Glas,sie,die,einen,von,zusätzlichem,,,,,,,,,,,,,,,,,,,,,,,3,0,3,0,0,5,5,5,,,,,,,,space,1.44933390617,,,,2017_Feb_02_1247,59.1173353179,spr_backupper,001,Mi13,
,nan,Wurst,jeden,aus,mehr,eine,nan,große,nichts,nan,als,Kunsteis,nan,wiedergewählt.,grünen,Grases,nan,köstlicher,die,nan,die,wiedergewählt.,Dezember,Müll.,Schaumstoff,ml,Helmen,eine,defekt,Abduschen,um,täglichen,den,verschrottet.,die,jeden,Esslöffel,Helmen,Soldaten,Besucher.,jeden.,Schmuck,um,Taschengeld,sie,verschrottet.,Planeten,große,dichten,die,Alkohol,nichts,er,ml,Einkommen,Müll.,jeden.,Herrn,"vermiest,",den,goldenen,Tupperware,Untergrund,Energie.,Gras,nan,die,aus,Hauptbahnhof.,Stimmung,Energie.,artgerecht,als,Planet,Wurst,Soldaten,sie,Esslöffel,dass,seiner,Kraftstoff,um,nan,mehr,kaltem,dichten,Herrn,ruhig,nan,seiner,drei,aus,köstlichen,defekt,Flut,Besucher.,den,schwarzem,,,,,,,,,,,,,,,,,,,,,,,3,0,3,0,0,6,6,6,,,,,,,,space,1.34056997299,,,,2017_Feb_02_1247,59.1173353179,spr_backupper,001,Mi13,
,nan,mit,Fall,dem,als,Sammlung,nan,Menge,mitbringen.,nan,einmal,eingesprüht.,nan,nan,Tee,zwängen.,nan,Wein,Probleme,nan,Slums.,nan,stattfinden.,nan,gefertigt.,warme,zur,Sammlung,war.,gehärtet.,jede,Einsatz,Boden,nan,Wohnung.,Fall,warmem,zur,des,nan,nan,umgearbeitet.,Nadelhölzer,selber,überführt,nan,ganz,Menge,Stoff,Slums.,verdünnt.,mitbringen.,trug.,warmer,haftbar.,nan,nan,Gantenbeins.,dass,Boden,Besatz,ist.,liegen.,nan,zwängen.,nan,Wohnung.,dem,nan,ziemlich,nan,gehalten.,einmal,ganz,mit,des,überführt,warmen,das,Frau,fahren.,jede,nan,als,Saft,Gewebe,Gantenbein.,diskutiert.,nan,Frau,Tage.,Japan.,Weins,war.,zurückgekehrt.,nan,Problemen,Kaffee,,,,,,,,,,,,,,,,,,,,,,,3,0,3,0,0,7,7,7,,,,,,,,space,1.37645983696,,,,2017_Feb_02_1247,59.1173353179,spr_backupper,001,Mi13,
,,,,,,,,,,,,,,,,,,,,,,,,,,,,,,,,,,,,,,,,,,,,,,,,,,,,,,,,,,,,,,,,,,,,,,,,,,,,,,,,,,,,,,,,,,,,,,,,,,,,,,,,,,,,,,,,,,,,,,,,,3,0,3,0,,,,,,,,,,,,,,None,j,9.07666492462,2017_Feb_02_1247,59.1173353179,spr_backupper,001,Mi13,
,Beträchtliche,Ich,100,Wir,Wir,Sie,Es,Mit,Außer,Dort,In,Die,Es,Er,Ich,Wir,Walter,Bei,In,Sie,Am,Er,Unter,Viele,Alle,In,Die,Sie,Die,Die,Man,Ihr,Nicht,Die,Sie,100,Er,Die,Bei,Wir,Außer,Die,Jetzt,Jugendliche,Es,Die,Im,Mit,Er,Am,Die,Außer,Die,In,Manche,Viele,Außer,Die,Es,Nicht,Das,Die,Jungtiere,Die,Wir,Sie,Sie,Wir,Die,Dass,Die,In,In,Im,Ich,Bei,Es,Er,In,Die,Wir,Man,Dort,Wir,Sie,Danach,Die,Fernab,Beträchtliche,Die,Der,Die,Bei,Die,Als,Wir,In,Die,,,,,,,,,,,,,,,,,,,,,,,4,0,4,0,0,0,0,0,,,,,,space,1.35884189606,space,0.618800878525,,,,2017_Feb_02_1247,59.1173353179,spr_backupper,001,Mi13,
,Stücke,nehme,g,haben,übergaben,hatte,wurden,dieser,dem,türmen,meinem,Eislaufbahnen,wurden,wurde,wurde,mussten,Scheel,unserer,der,verbrauchen,äußersten,wurde,keinen,Tonnen,Betten,den,Kinder,hatte,Uhr,Formen,machte,Blutdruck,ein,Autos,verlassen,g,stellt,Kinder,der,hatten,den,Stücke,ist,können,waren,Autos,Fernrohr,dieser,hat,äußeren,Lösung,das,Uhr,den,Kreditnehmer,Tonnen,dem,Gäste,hat,ein,Tuch,Teilnehmerinnen,sollten,Schule,mussten,verbrauchen,verlassen,haben,Linie,es,Schule,diesem,meinem,Fernrohr,nehme,der,waren,stellt,einer,Schuhe,konnten,machte,türmen,übergaben,haben,wurde,Gäste,des,Stücke,Schuhe,Flug,"Uhr,",unserer,Uhr,die,hatten,der,müden,,,,,,,,,,,,,,,,,,,,,,,4,0,4,0,0,1,1,1,,,,,,,,space,0.517088890076,,,,2017_Feb_02_1247,59.1173353179,spr_backupper,001,Mi13,
,saftiges,eine,brauner,jede,das,keine,Eimer,Methode,Essen,sich,Studium,wurden,Eimer,trotz,damals,uns,war,Ankunft,Tat,60,Rand,trotz,Umständen,gebrauchte,wurden,Kakao,fuhren,keine,schlug,wurden,mal,kann,Tropfen,beider,wegen,braunen,die,fuhren,Feier,in,Bürgermeister,wurden,genau,Kleidung,nur,beider,sahen,Methode,ein,Rand,wird,Essen,war,Kakao,sind,gebrauchter,Bürgermeister,suchen,uns,Tropfen,wurde,wussten,immer,verbraucht,uns,60,wegen,jede,101,"regnete,",verbraucht,Zirkus,Studium,sahen,eine,Feier,nur,die,Studie,in,dann,mal,sich,dem,die,die,suchen,Rummels,saftigen,in,zum,die,Ankunft,schlug,Sonne,in,Tat,Teilnehmer,,,,,,,,,,,,,,,,,,,,,,,4,0,4,0,0,2,2,2,,,,,,,,space,0.637983083725,,,,2017_Feb_02_1247,59.1173353179,spr_backupper,001,Mi13,
,Fleisch,große,Zucker,Menge,Auto,Lust,roter,kann,kann,Berge,habe,mit,rote,dem,schnell,durch,der,stand,wissen,Liter,der,des,können,Kleidung,mit,gehören,mit,Lust,"sporadisch,",unter,wieder,schon,königliches,beteiligter,dem,Zuckers,Masse,mit,gedachte,Dänemark,beschuldigten,aus,die,bei,kleinere,beteiligten,wir,kann,Hemd,der,mit,kann,aus,gehören,mit,Kleidung,beschuldigten,die,die,königlichen,dann,überwiegend,auf,260.000,durch,Liter,des,Menge,hält,hat,260.000,werden,las,wir,große,gedachte,kleinere,Masse,wurde,Größe,mit,wieder,Berge,Mann,Erlebnisse,Leinwand,die,wurde,Fleischs,Größe,Mond,er,stand,"sporadisch,","unterging,",Dänemark,wissen,wurden,,,,,,,,,,,,,,,,,,,,,,,4,0,4,0,0,3,3,3,,,,,,,,space,0.537184000015,,,,2017_Feb_02_1247,59.1173353179,spr_backupper,001,Mi13,
,wurden,Packung,sind,alten,dem,auf,Farbe,man,ich,schmutziger,ich,dauerhaftem,Farbe,bekannten,dank,Büschel,vierte,ein,wir,sprudelndes,Stadt,bekannten,Neuwahlen,landen,"üblichem,",immer,solch,auf,obschon,"regelmäßigem,",viel,bei,Blut,Fahrer,schönen,sind,mit,solchen,man,einen,die,"wertvollem,",richtige,ausreichendem,"Delikte,",Fahrer,den,man,aus,Stadt,"reichlichem,",ich,"Japan,",immer,"sämtlichem,",landen,die,Wohnung,Stimmung,Bluts,mit,"nicht,",warmem,Kilowattstunden,Büschel,sprudelnden,schönen,alten,nicht,uns,Kilowattstunden,die,ich,den,Packung,man,"Delikte,",mit,jetzt,36,"minimalem,",viel,schmutzige,das,bei,aus,Wohnung,schon,wurden,36,dauerte,"trug,",ein,obwohl,war,gelegentlich,wir,mit,,,,,,,,,,,,,,,,,,,,,,,4,0,4,0,0,4,4,4,,,,,,,,space,0.46888589859,,,,2017_Feb_02_1247,59.1173353179,spr_backupper,001,Mi13,
,serviert.,salziger,auf,Kram,Mann,noch,geschleudert.,eine,leider,Wäsche.,mehr,feinem,geschleudert.,Skandal,täglichem,frischen,Bundespräsident.,Glas,um,Trinkwasser.,liegen,Skandals,vor,im,harten,350,unzureichenden,noch,sie,kaltem,Lärm,minimalem,hat,wurden,Wetter,auf,einem,unzureichenden,der,gelegentlichen,Störenfriede,klassischen,"Zeit,",monatlichem,derer,wurden,roten,eine,feinem,liegen,purem,leider,die,350,künftigem,im,Störenfriede,des,ziemlich,hat,"reichem,",was,weichem,elektrische,frisches,Trinkwassers.,Wetters,Krams,am,die,elektrischer,Tiere,mehr,roten,salzige,den,deren,einem,"nachgewiesen,",würden,sauberen,Lärm,Wäsche.,Auto,"frischem,",seltenem,des,immer,serviert.,hätten,ungefähr,war,Glas,sie,die,einen,von,zusätzlichem,,,,,,,,,,,,,,,,,,,,,,,4,0,4,0,0,5,5,5,,,,,,,,space,0.571295976639,,,,2017_Feb_02_1247,59.1173353179,spr_backupper,001,Mi13,
,nan,Wurst,jeden,aus,mehr,eine,nan,große,nichts,nan,als,Kunsteis,nan,wiedergewählt.,grünen,Grases,nan,köstlicher,die,nan,die,wiedergewählt.,Dezember,Müll.,Schaumstoff,ml,Helmen,eine,defekt,Abduschen,um,täglichen,den,verschrottet.,die,jeden,Esslöffel,Helmen,Soldaten,Besucher.,jeden.,Schmuck,um,Taschengeld,sie,verschrottet.,Planeten,große,dichten,die,Alkohol,nichts,er,ml,Einkommen,Müll.,jeden.,Herrn,"vermiest,",den,goldenen,Tupperware,Untergrund,Energie.,Gras,nan,die,aus,Hauptbahnhof.,Stimmung,Energie.,artgerecht,als,Planet,Wurst,Soldaten,sie,Esslöffel,dass,seiner,Kraftstoff,um,nan,mehr,kaltem,dichten,Herrn,ruhig,nan,seiner,drei,aus,köstlichen,defekt,Flut,Besucher.,den,schwarzem,,,,,,,,,,,,,,,,,,,,,,,4,0,4,0,0,6,6,6,,,,,,,,space,0.526754140854,,,,2017_Feb_02_1247,59.1173353179,spr_backupper,001,Mi13,
,nan,mit,Fall,dem,als,Sammlung,nan,Menge,mitbringen.,nan,einmal,eingesprüht.,nan,nan,Tee,zwängen.,nan,Wein,Probleme,nan,Slums.,nan,stattfinden.,nan,gefertigt.,warme,zur,Sammlung,war.,gehärtet.,jede,Einsatz,Boden,nan,Wohnung.,Fall,warmem,zur,des,nan,nan,umgearbeitet.,Nadelhölzer,selber,überführt,nan,ganz,Menge,Stoff,Slums.,verdünnt.,mitbringen.,trug.,warmer,haftbar.,nan,nan,Gantenbeins.,dass,Boden,Besatz,ist.,liegen.,nan,zwängen.,nan,Wohnung.,dem,nan,ziemlich,nan,gehalten.,einmal,ganz,mit,des,überführt,warmen,das,Frau,fahren.,jede,nan,als,Saft,Gewebe,Gantenbein.,diskutiert.,nan,Frau,Tage.,Japan.,Weins,war.,zurückgekehrt.,nan,Problemen,Kaffee,,,,,,,,,,,,,,,,,,,,,,,4,0,4,0,0,7,7,7,,,,,,,,space,0.597598075867,,,,2017_Feb_02_1247,59.1173353179,spr_backupper,001,Mi13,
,nan,an,genug.,Haus,gerne.,dumme,nan,dunkle,nan,nan,Rilke,nan,nan,nan,wieder,nan,nan,schon,im,nan,nan,nan,nan,nan,nan,Milch.,Schule.,dummer,nan,nan,Menge,sinken.,berührt.,nan,nan,genug.,Honig,Schule.,zweiten,nan,nan,nan,umzusetzen.,kaufen.,wurden.,nan,deutlich.,dunkler,gefertigt.,nan,nan,nan,nan,Milch.,nan,nan,nan,nan,es,berührt.,rekonstruiert.,nan,nan,nan,nan,nan,nan,Haus,nan,vermiest.,nan,nan,Rilke.,deutlich.,an,zweiten,wurden.,Honigs,Medikament,gepasst,nan,Menge,nan,gerne.,besprochen.,wiederhergestellt.,nan,nan,nan,gepasst.,nan,nan,schon,nan,nan,nan,im,wiederbelebt.,,,,,,,,,,,,,,,,,,,,,,,4,0,4,0,0,8,8,8,,,,,,,,space,1.10508513451,,,,2017_Feb_02_1247,59.1173353179,spr_backupper,001,Mi13,
,nan,den,nan,geschafft.,nan,Sprüche.,nan,Materie,nan,nan,gelesen.,nan,nan,nan,fit.,nan,nan,auf,Landkreis.,nan,nan,nan,nan,nan,nan,nan,nan,Sprüche.,nan,nan,heiße,nan,nan,nan,nan,nan,her.,nan,Weltkriegs.,nan,nan,nan,nan,nan,nan,nan,nan,Materie,nan,nan,nan,nan,nan,nan,nan,nan,nan,nan,regnete.,nan,nan,nan,nan,nan,nan,nan,nan,geschafft.,nan,nan,nan,nan,nan,nan,den,Weltkriegs.,nan,her.,nicht,haben.,nan,heißer,nan,nan,nan,nan,nan,nan,nan,nan,nan,nan,auf,nan,nan,nan,Landkreis.,nan,,,,,,,,,,,,,,,,,,,,,,,4,0,4,0,0,9,9,9,,,,,,,,space,0.49156498909,,,,2017_Feb_02_1247,59.1173353179,spr_backupper,001,Mi13,
,,,,,,,,,,,,,,,,,,,,,,,,,,,,,,,,,,,,,,,,,,,,,,,,,,,,,,,,,,,,,,,,,,,,,,,,,,,,,,,,,,,,,,,,,,,,,,,,,,,,,,,,,,,,,,,,,,,,,,,,,4,0,4,0,,,,,,,,,,,,,,None,j,5.88689112663,2017_Feb_02_1247,59.1173353179,spr_backupper,001,Mi13,
,Beträchtliche,Ich,100,Wir,Wir,Sie,Es,Mit,Außer,Dort,In,Die,Es,Er,Ich,Wir,Walter,Bei,In,Sie,Am,Er,Unter,Viele,Alle,In,Die,Sie,Die,Die,Man,Ihr,Nicht,Die,Sie,100,Er,Die,Bei,Wir,Außer,Die,Jetzt,Jugendliche,Es,Die,Im,Mit,Er,Am,Die,Außer,Die,In,Manche,Viele,Außer,Die,Es,Nicht,Das,Die,Jungtiere,Die,Wir,Sie,Sie,Wir,Die,Dass,Die,In,In,Im,Ich,Bei,Es,Er,In,Die,Wir,Man,Dort,Wir,Sie,Danach,Die,Fernab,Beträchtliche,Die,Der,Die,Bei,Die,Als,Wir,In,Die,,,,,,,,,,,,,,,,,,,,,,,5,0,5,0,0,0,0,0,,,,,,None,,space,9.37910509109,,,,2017_Feb_02_1247,59.1173353179,spr_backupper,001,Mi13,
,Stücke,nehme,g,haben,übergaben,hatte,wurden,dieser,dem,türmen,meinem,Eislaufbahnen,wurden,wurde,wurde,mussten,Scheel,unserer,der,verbrauchen,äußersten,wurde,keinen,Tonnen,Betten,den,Kinder,hatte,Uhr,Formen,machte,Blutdruck,ein,Autos,verlassen,g,stellt,Kinder,der,hatten,den,Stücke,ist,können,waren,Autos,Fernrohr,dieser,hat,äußeren,Lösung,das,Uhr,den,Kreditnehmer,Tonnen,dem,Gäste,hat,ein,Tuch,Teilnehmerinnen,sollten,Schule,mussten,verbrauchen,verlassen,haben,Linie,es,Schule,diesem,meinem,Fernrohr,nehme,der,waren,stellt,einer,Schuhe,konnten,machte,türmen,übergaben,haben,wurde,Gäste,des,Stücke,Schuhe,Flug,"Uhr,",unserer,Uhr,die,hatten,der,müden,,,,,,,,,,,,,,,,,,,,,,,5,0,5,0,0,1,1,1,,,,,,,,space,0.973512887955,,,,2017_Feb_02_1247,59.1173353179,spr_backupper,001,Mi13,
,saftiges,eine,brauner,jede,das,keine,Eimer,Methode,Essen,sich,Studium,wurden,Eimer,trotz,damals,uns,war,Ankunft,Tat,60,Rand,trotz,Umständen,gebrauchte,wurden,Kakao,fuhren,keine,schlug,wurden,mal,kann,Tropfen,beider,wegen,braunen,die,fuhren,Feier,in,Bürgermeister,wurden,genau,Kleidung,nur,beider,sahen,Methode,ein,Rand,wird,Essen,war,Kakao,sind,gebrauchter,Bürgermeister,suchen,uns,Tropfen,wurde,wussten,immer,verbraucht,uns,60,wegen,jede,101,"regnete,",verbraucht,Zirkus,Studium,sahen,eine,Feier,nur,die,Studie,in,dann,mal,sich,dem,die,die,suchen,Rummels,saftigen,in,zum,die,Ankunft,schlug,Sonne,in,Tat,Teilnehmer,,,,,,,,,,,,,,,,,,,,,,,5,0,5,0,0,2,2,2,,,,,,,,space,0.545976877213,,,,2017_Feb_02_1247,59.1173353179,spr_backupper,001,Mi13,
,Fleisch,große,Zucker,Menge,Auto,Lust,roter,kann,kann,Berge,habe,mit,rote,dem,schnell,durch,der,stand,wissen,Liter,der,des,können,Kleidung,mit,gehören,mit,Lust,"sporadisch,",unter,wieder,schon,königliches,beteiligter,dem,Zuckers,Masse,mit,gedachte,Dänemark,beschuldigten,aus,die,bei,kleinere,beteiligten,wir,kann,Hemd,der,mit,kann,aus,gehören,mit,Kleidung,beschuldigten,die,die,königlichen,dann,überwiegend,auf,260.000,durch,Liter,des,Menge,hält,hat,260.000,werden,las,wir,große,gedachte,kleinere,Masse,wurde,Größe,mit,wieder,Berge,Mann,Erlebnisse,Leinwand,die,wurde,Fleischs,Größe,Mond,er,stand,"sporadisch,","unterging,",Dänemark,wissen,wurden,,,,,,,,,,,,,,,,,,,,,,,5,0,5,0,0,3,3,3,,,,,,,,space,0.765515089035,,,,2017_Feb_02_1247,59.1173353179,spr_backupper,001,Mi13,
,wurden,Packung,sind,alten,dem,auf,Farbe,man,ich,schmutziger,ich,dauerhaftem,Farbe,bekannten,dank,Büschel,vierte,ein,wir,sprudelndes,Stadt,bekannten,Neuwahlen,landen,"üblichem,",immer,solch,auf,obschon,"regelmäßigem,",viel,bei,Blut,Fahrer,schönen,sind,mit,solchen,man,einen,die,"wertvollem,",richtige,ausreichendem,"Delikte,",Fahrer,den,man,aus,Stadt,"reichlichem,",ich,"Japan,",immer,"sämtlichem,",landen,die,Wohnung,Stimmung,Bluts,mit,"nicht,",warmem,Kilowattstunden,Büschel,sprudelnden,schönen,alten,nicht,uns,Kilowattstunden,die,ich,den,Packung,man,"Delikte,",mit,jetzt,36,"minimalem,",viel,schmutzige,das,bei,aus,Wohnung,schon,wurden,36,dauerte,"trug,",ein,obwohl,war,gelegentlich,wir,mit,,,,,,,,,,,,,,,,,,,,,,,5,0,5,0,0,4,4,4,,,,,,,,space,0.618322134018,,,,2017_Feb_02_1247,59.1173353179,spr_backupper,001,Mi13,
,serviert.,salziger,auf,Kram,Mann,noch,geschleudert.,eine,leider,Wäsche.,mehr,feinem,geschleudert.,Skandal,täglichem,frischen,Bundespräsident.,Glas,um,Trinkwasser.,liegen,Skandals,vor,im,harten,350,unzureichenden,noch,sie,kaltem,Lärm,minimalem,hat,wurden,Wetter,auf,einem,unzureichenden,der,gelegentlichen,Störenfriede,klassischen,"Zeit,",monatlichem,derer,wurden,roten,eine,feinem,liegen,purem,leider,die,350,künftigem,im,Störenfriede,des,ziemlich,hat,"reichem,",was,weichem,elektrische,frisches,Trinkwassers.,Wetters,Krams,am,die,elektrischer,Tiere,mehr,roten,salzige,den,deren,einem,"nachgewiesen,",würden,sauberen,Lärm,Wäsche.,Auto,"frischem,",seltenem,des,immer,serviert.,hätten,ungefähr,war,Glas,sie,die,einen,von,zusätzlichem,,,,,,,,,,,,,,,,,,,,,,,5,0,5,0,0,5,5,5,,,,,,,,space,0.600073099136,,,,2017_Feb_02_1247,59.1173353179,spr_backupper,001,Mi13,
,,,,,,,,,,,,,,,,,,,,,,,,,,,,,,,,,,,,,,,,,,,,,,,,,,,,,,,,,,,,,,,,,,,,,,,,,,,,,,,,,,,,,,,,,,,,,,,,,,,,,,,,,,,,,,,,,,,,,,,,,5,0,5,0,,,,,,,,,,,,,,None,n,3.3640639782,2017_Feb_02_1247,59.1173353179,spr_backupper,001,Mi13,
,Beträchtliche,Ich,100,Wir,Wir,Sie,Es,Mit,Außer,Dort,In,Die,Es,Er,Ich,Wir,Walter,Bei,In,Sie,Am,Er,Unter,Viele,Alle,In,Die,Sie,Die,Die,Man,Ihr,Nicht,Die,Sie,100,Er,Die,Bei,Wir,Außer,Die,Jetzt,Jugendliche,Es,Die,Im,Mit,Er,Am,Die,Außer,Die,In,Manche,Viele,Außer,Die,Es,Nicht,Das,Die,Jungtiere,Die,Wir,Sie,Sie,Wir,Die,Dass,Die,In,In,Im,Ich,Bei,Es,Er,In,Die,Wir,Man,Dort,Wir,Sie,Danach,Die,Fernab,Beträchtliche,Die,Der,Die,Bei,Die,Als,Wir,In,Die,,,,,,,,,,,,,,,,,,,,,,,6,0,6,0,0,0,0,0,,,,,,space,1.12381219864,space,0.621700048447,,,,2017_Feb_02_1247,59.1173353179,spr_backupper,001,Mi13,
,Stücke,nehme,g,haben,übergaben,hatte,wurden,dieser,dem,türmen,meinem,Eislaufbahnen,wurden,wurde,wurde,mussten,Scheel,unserer,der,verbrauchen,äußersten,wurde,keinen,Tonnen,Betten,den,Kinder,hatte,Uhr,Formen,machte,Blutdruck,ein,Autos,verlassen,g,stellt,Kinder,der,hatten,den,Stücke,ist,können,waren,Autos,Fernrohr,dieser,hat,äußeren,Lösung,das,Uhr,den,Kreditnehmer,Tonnen,dem,Gäste,hat,ein,Tuch,Teilnehmerinnen,sollten,Schule,mussten,verbrauchen,verlassen,haben,Linie,es,Schule,diesem,meinem,Fernrohr,nehme,der,waren,stellt,einer,Schuhe,konnten,machte,türmen,übergaben,haben,wurde,Gäste,des,Stücke,Schuhe,Flug,"Uhr,",unserer,Uhr,die,hatten,der,müden,,,,,,,,,,,,,,,,,,,,,,,6,0,6,0,0,1,1,1,,,,,,,,space,1.0141620636,,,,2017_Feb_02_1247,59.1173353179,spr_backupper,001,Mi13,
,saftiges,eine,brauner,jede,das,keine,Eimer,Methode,Essen,sich,Studium,wurden,Eimer,trotz,damals,uns,war,Ankunft,Tat,60,Rand,trotz,Umständen,gebrauchte,wurden,Kakao,fuhren,keine,schlug,wurden,mal,kann,Tropfen,beider,wegen,braunen,die,fuhren,Feier,in,Bürgermeister,wurden,genau,Kleidung,nur,beider,sahen,Methode,ein,Rand,wird,Essen,war,Kakao,sind,gebrauchter,Bürgermeister,suchen,uns,Tropfen,wurde,wussten,immer,verbraucht,uns,60,wegen,jede,101,"regnete,",verbraucht,Zirkus,Studium,sahen,eine,Feier,nur,die,Studie,in,dann,mal,sich,dem,die,die,suchen,Rummels,saftigen,in,zum,die,Ankunft,schlug,Sonne,in,Tat,Teilnehmer,,,,,,,,,,,,,,,,,,,,,,,6,0,6,0,0,2,2,2,,,,,,,,space,0.692846059799,,,,2017_Feb_02_1247,59.1173353179,spr_backupper,001,Mi13,
,Fleisch,große,Zucker,Menge,Auto,Lust,roter,kann,kann,Berge,habe,mit,rote,dem,schnell,durch,der,stand,wissen,Liter,der,des,können,Kleidung,mit,gehören,mit,Lust,"sporadisch,",unter,wieder,schon,königliches,beteiligter,dem,Zuckers,Masse,mit,gedachte,Dänemark,beschuldigten,aus,die,bei,kleinere,beteiligten,wir,kann,Hemd,der,mit,kann,aus,gehören,mit,Kleidung,beschuldigten,die,die,königlichen,dann,überwiegend,auf,260.000,durch,Liter,des,Menge,hält,hat,260.000,werden,las,wir,große,gedachte,kleinere,Masse,wurde,Größe,mit,wieder,Berge,Mann,Erlebnisse,Leinwand,die,wurde,Fleischs,Größe,Mond,er,stand,"sporadisch,","unterging,",Dänemark,wissen,wurden,,,,,,,,,,,,,,,,,,,,,,,6,0,6,0,0,3,3,3,,,,,,,,space,0.469028949738,,,,2017_Feb_02_1247,59.1173353179,spr_backupper,001,Mi13,
,wurden,Packung,sind,alten,dem,auf,Farbe,man,ich,schmutziger,ich,dauerhaftem,Farbe,bekannten,dank,Büschel,vierte,ein,wir,sprudelndes,Stadt,bekannten,Neuwahlen,landen,"üblichem,",immer,solch,auf,obschon,"regelmäßigem,",viel,bei,Blut,Fahrer,schönen,sind,mit,solchen,man,einen,die,"wertvollem,",richtige,ausreichendem,"Delikte,",Fahrer,den,man,aus,Stadt,"reichlichem,",ich,"Japan,",immer,"sämtlichem,",landen,die,Wohnung,Stimmung,Bluts,mit,"nicht,",warmem,Kilowattstunden,Büschel,sprudelnden,schönen,alten,nicht,uns,Kilowattstunden,die,ich,den,Packung,man,"Delikte,",mit,jetzt,36,"minimalem,",viel,schmutzige,das,bei,aus,Wohnung,schon,wurden,36,dauerte,"trug,",ein,obwohl,war,gelegentlich,wir,mit,,,,,,,,,,,,,,,,,,,,,,,6,0,6,0,0,4,4,4,,,,,,,,space,0.477389097214,,,,2017_Feb_02_1247,59.1173353179,spr_backupper,001,Mi13,
,serviert.,salziger,auf,Kram,Mann,noch,geschleudert.,eine,leider,Wäsche.,mehr,feinem,geschleudert.,Skandal,täglichem,frischen,Bundespräsident.,Glas,um,Trinkwasser.,liegen,Skandals,vor,im,harten,350,unzureichenden,noch,sie,kaltem,Lärm,minimalem,hat,wurden,Wetter,auf,einem,unzureichenden,der,gelegentlichen,Störenfriede,klassischen,"Zeit,",monatlichem,derer,wurden,roten,eine,feinem,liegen,purem,leider,die,350,künftigem,im,Störenfriede,des,ziemlich,hat,"reichem,",was,weichem,elektrische,frisches,Trinkwassers.,Wetters,Krams,am,die,elektrischer,Tiere,mehr,roten,salzige,den,deren,einem,"nachgewiesen,",würden,sauberen,Lärm,Wäsche.,Auto,"frischem,",seltenem,des,immer,serviert.,hätten,ungefähr,war,Glas,sie,die,einen,von,zusätzlichem,,,,,,,,,,,,,,,,,,,,,,,6,0,6,0,0,5,5,5,,,,,,,,space,0.466522932053,,,,2017_Feb_02_1247,59.1173353179,spr_backupper,001,Mi13,
,nan,Wurst,jeden,aus,mehr,eine,nan,große,nichts,nan,als,Kunsteis,nan,wiedergewählt.,grünen,Grases,nan,köstlicher,die,nan,die,wiedergewählt.,Dezember,Müll.,Schaumstoff,ml,Helmen,eine,defekt,Abduschen,um,täglichen,den,verschrottet.,die,jeden,Esslöffel,Helmen,Soldaten,Besucher.,jeden.,Schmuck,um,Taschengeld,sie,verschrottet.,Planeten,große,dichten,die,Alkohol,nichts,er,ml,Einkommen,Müll.,jeden.,Herrn,"vermiest,",den,goldenen,Tupperware,Untergrund,Energie.,Gras,nan,die,aus,Hauptbahnhof.,Stimmung,Energie.,artgerecht,als,Planet,Wurst,Soldaten,sie,Esslöffel,dass,seiner,Kraftstoff,um,nan,mehr,kaltem,dichten,Herrn,ruhig,nan,seiner,drei,aus,köstlichen,defekt,Flut,Besucher.,den,schwarzem,,,,,,,,,,,,,,,,,,,,,,,6,0,6,0,0,6,6,6,,,,,,,,space,0.419912815094,,,,2017_Feb_02_1247,59.1173353179,spr_backupper,001,Mi13,
,nan,mit,Fall,dem,als,Sammlung,nan,Menge,mitbringen.,nan,einmal,eingesprüht.,nan,nan,Tee,zwängen.,nan,Wein,Probleme,nan,Slums.,nan,stattfinden.,nan,gefertigt.,warme,zur,Sammlung,war.,gehärtet.,jede,Einsatz,Boden,nan,Wohnung.,Fall,warmem,zur,des,nan,nan,umgearbeitet.,Nadelhölzer,selber,überführt,nan,ganz,Menge,Stoff,Slums.,verdünnt.,mitbringen.,trug.,warmer,haftbar.,nan,nan,Gantenbeins.,dass,Boden,Besatz,ist.,liegen.,nan,zwängen.,nan,Wohnung.,dem,nan,ziemlich,nan,gehalten.,einmal,ganz,mit,des,überführt,warmen,das,Frau,fahren.,jede,nan,als,Saft,Gewebe,Gantenbein.,diskutiert.,nan,Frau,Tage.,Japan.,Weins,war.,zurückgekehrt.,nan,Problemen,Kaffee,,,,,,,,,,,,,,,,,,,,,,,6,0,6,0,0,7,7,7,,,,,,,,space,0.529028892517,,,,2017_Feb_02_1247,59.1173353179,spr_backupper,001,Mi13,
,,,,,,,,,,,,,,,,,,,,,,,,,,,,,,,,,,,,,,,,,,,,,,,,,,,,,,,,,,,,,,,,,,,,,,,,,,,,,,,,,,,,,,,,,,,,,,,,,,,,,,,,,,,,,,,,,,,,,,,,,6,0,6,0,,,,,,,,,,,,,,None,n,5.88017082214,2017_Feb_02_1247,59.1173353179,spr_backupper,001,Mi13,
,Beträchtliche,Ich,100,Wir,Wir,Sie,Es,Mit,Außer,Dort,In,Die,Es,Er,Ich,Wir,Walter,Bei,In,Sie,Am,Er,Unter,Viele,Alle,In,Die,Sie,Die,Die,Man,Ihr,Nicht,Die,Sie,100,Er,Die,Bei,Wir,Außer,Die,Jetzt,Jugendliche,Es,Die,Im,Mit,Er,Am,Die,Außer,Die,In,Manche,Viele,Außer,Die,Es,Nicht,Das,Die,Jungtiere,Die,Wir,Sie,Sie,Wir,Die,Dass,Die,In,In,Im,Ich,Bei,Es,Er,In,Die,Wir,Man,Dort,Wir,Sie,Danach,Die,Fernab,Beträchtliche,Die,Der,Die,Bei,Die,Als,Wir,In,Die,,,,,,,,,,,,,,,,,,,,,,,7,0,7,0,0,0,0,0,,,,,,space,0.839202165604,space,0.686711072922,,,,2017_Feb_02_1247,59.1173353179,spr_backupper,001,Mi13,
,Stücke,nehme,g,haben,übergaben,hatte,wurden,dieser,dem,türmen,meinem,Eislaufbahnen,wurden,wurde,wurde,mussten,Scheel,unserer,der,verbrauchen,äußersten,wurde,keinen,Tonnen,Betten,den,Kinder,hatte,Uhr,Formen,machte,Blutdruck,ein,Autos,verlassen,g,stellt,Kinder,der,hatten,den,Stücke,ist,können,waren,Autos,Fernrohr,dieser,hat,äußeren,Lösung,das,Uhr,den,Kreditnehmer,Tonnen,dem,Gäste,hat,ein,Tuch,Teilnehmerinnen,sollten,Schule,mussten,verbrauchen,verlassen,haben,Linie,es,Schule,diesem,meinem,Fernrohr,nehme,der,waren,stellt,einer,Schuhe,konnten,machte,türmen,übergaben,haben,wurde,Gäste,des,Stücke,Schuhe,Flug,"Uhr,",unserer,Uhr,die,hatten,der,müden,,,,,,,,,,,,,,,,,,,,,,,7,0,7,0,0,1,1,1,,,,,,,,space,1.12215805054,,,,2017_Feb_02_1247,59.1173353179,spr_backupper,001,Mi13,
,saftiges,eine,brauner,jede,das,keine,Eimer,Methode,Essen,sich,Studium,wurden,Eimer,trotz,damals,uns,war,Ankunft,Tat,60,Rand,trotz,Umständen,gebrauchte,wurden,Kakao,fuhren,keine,schlug,wurden,mal,kann,Tropfen,beider,wegen,braunen,die,fuhren,Feier,in,Bürgermeister,wurden,genau,Kleidung,nur,beider,sahen,Methode,ein,Rand,wird,Essen,war,Kakao,sind,gebrauchter,Bürgermeister,suchen,uns,Tropfen,wurde,wussten,immer,verbraucht,uns,60,wegen,jede,101,"regnete,",verbraucht,Zirkus,Studium,sahen,eine,Feier,nur,die,Studie,in,dann,mal,sich,dem,die,die,suchen,Rummels,saftigen,in,zum,die,Ankunft,schlug,Sonne,in,Tat,Teilnehmer,,,,,,,,,,,,,,,,,,,,,,,7,0,7,0,0,2,2,2,,,,,,,,space,1.5435230732,,,,2017_Feb_02_1247,59.1173353179,spr_backupper,001,Mi13,
,Fleisch,große,Zucker,Menge,Auto,Lust,roter,kann,kann,Berge,habe,mit,rote,dem,schnell,durch,der,stand,wissen,Liter,der,des,können,Kleidung,mit,gehören,mit,Lust,"sporadisch,",unter,wieder,schon,königliches,beteiligter,dem,Zuckers,Masse,mit,gedachte,Dänemark,beschuldigten,aus,die,bei,kleinere,beteiligten,wir,kann,Hemd,der,mit,kann,aus,gehören,mit,Kleidung,beschuldigten,die,die,königlichen,dann,überwiegend,auf,260.000,durch,Liter,des,Menge,hält,hat,260.000,werden,las,wir,große,gedachte,kleinere,Masse,wurde,Größe,mit,wieder,Berge,Mann,Erlebnisse,Leinwand,die,wurde,Fleischs,Größe,Mond,er,stand,"sporadisch,","unterging,",Dänemark,wissen,wurden,,,,,,,,,,,,,,,,,,,,,,,7,0,7,0,0,3,3,3,,,,,,,,space,1.22259807587,,,,2017_Feb_02_1247,59.1173353179,spr_backupper,001,Mi13,
,wurden,Packung,sind,alten,dem,auf,Farbe,man,ich,schmutziger,ich,dauerhaftem,Farbe,bekannten,dank,Büschel,vierte,ein,wir,sprudelndes,Stadt,bekannten,Neuwahlen,landen,"üblichem,",immer,solch,auf,obschon,"regelmäßigem,",viel,bei,Blut,Fahrer,schönen,sind,mit,solchen,man,einen,die,"wertvollem,",richtige,ausreichendem,"Delikte,",Fahrer,den,man,aus,Stadt,"reichlichem,",ich,"Japan,",immer,"sämtlichem,",landen,die,Wohnung,Stimmung,Bluts,mit,"nicht,",warmem,Kilowattstunden,Büschel,sprudelnden,schönen,alten,nicht,uns,Kilowattstunden,die,ich,den,Packung,man,"Delikte,",mit,jetzt,36,"minimalem,",viel,schmutzige,das,bei,aus,Wohnung,schon,wurden,36,dauerte,"trug,",ein,obwohl,war,gelegentlich,wir,mit,,,,,,,,,,,,,,,,,,,,,,,7,0,7,0,0,4,4,4,,,,,,,,space,0.638325929642,,,,2017_Feb_02_1247,59.1173353179,spr_backupper,001,Mi13,
,serviert.,salziger,auf,Kram,Mann,noch,geschleudert.,eine,leider,Wäsche.,mehr,feinem,geschleudert.,Skandal,täglichem,frischen,Bundespräsident.,Glas,um,Trinkwasser.,liegen,Skandals,vor,im,harten,350,unzureichenden,noch,sie,kaltem,Lärm,minimalem,hat,wurden,Wetter,auf,einem,unzureichenden,der,gelegentlichen,Störenfriede,klassischen,"Zeit,",monatlichem,derer,wurden,roten,eine,feinem,liegen,purem,leider,die,350,künftigem,im,Störenfriede,des,ziemlich,hat,"reichem,",was,weichem,elektrische,frisches,Trinkwassers.,Wetters,Krams,am,die,elektrischer,Tiere,mehr,roten,salzige,den,deren,einem,"nachgewiesen,",würden,sauberen,Lärm,Wäsche.,Auto,"frischem,",seltenem,des,immer,serviert.,hätten,ungefähr,war,Glas,sie,die,einen,von,zusätzlichem,,,,,,,,,,,,,,,,,,,,,,,7,0,7,0,0,5,5,5,,,,,,,,space,0.480596065521,,,,2017_Feb_02_1247,59.1173353179,spr_backupper,001,Mi13,
,nan,Wurst,jeden,aus,mehr,eine,nan,große,nichts,nan,als,Kunsteis,nan,wiedergewählt.,grünen,Grases,nan,köstlicher,die,nan,die,wiedergewählt.,Dezember,Müll.,Schaumstoff,ml,Helmen,eine,defekt,Abduschen,um,täglichen,den,verschrottet.,die,jeden,Esslöffel,Helmen,Soldaten,Besucher.,jeden.,Schmuck,um,Taschengeld,sie,verschrottet.,Planeten,große,dichten,die,Alkohol,nichts,er,ml,Einkommen,Müll.,jeden.,Herrn,"vermiest,",den,goldenen,Tupperware,Untergrund,Energie.,Gras,nan,die,aus,Hauptbahnhof.,Stimmung,Energie.,artgerecht,als,Planet,Wurst,Soldaten,sie,Esslöffel,dass,seiner,Kraftstoff,um,nan,mehr,kaltem,dichten,Herrn,ruhig,nan,seiner,drei,aus,köstlichen,defekt,Flut,Besucher.,den,schwarzem,,,,,,,,,,,,,,,,,,,,,,,7,0,7,0,0,6,6,6,,,,,,,,space,0.467216014862,,,,2017_Feb_02_1247,59.1173353179,spr_backupper,001,Mi13,
,nan,mit,Fall,dem,als,Sammlung,nan,Menge,mitbringen.,nan,einmal,eingesprüht.,nan,nan,Tee,zwängen.,nan,Wein,Probleme,nan,Slums.,nan,stattfinden.,nan,gefertigt.,warme,zur,Sammlung,war.,gehärtet.,jede,Einsatz,Boden,nan,Wohnung.,Fall,warmem,zur,des,nan,nan,umgearbeitet.,Nadelhölzer,selber,überführt,nan,ganz,Menge,Stoff,Slums.,verdünnt.,mitbringen.,trug.,warmer,haftbar.,nan,nan,Gantenbeins.,dass,Boden,Besatz,ist.,liegen.,nan,zwängen.,nan,Wohnung.,dem,nan,ziemlich,nan,gehalten.,einmal,ganz,mit,des,überführt,warmen,das,Frau,fahren.,jede,nan,als,Saft,Gewebe,Gantenbein.,diskutiert.,nan,Frau,Tage.,Japan.,Weins,war.,zurückgekehrt.,nan,Problemen,Kaffee,,,,,,,,,,,,,,,,,,,,,,,7,0,7,0,0,7,7,7,,,,,,,,space,0.454577922821,,,,2017_Feb_02_1247,59.1173353179,spr_backupper,001,Mi13,
,nan,an,genug.,Haus,gerne.,dumme,nan,dunkle,nan,nan,Rilke,nan,nan,nan,wieder,nan,nan,schon,im,nan,nan,nan,nan,nan,nan,Milch.,Schule.,dummer,nan,nan,Menge,sinken.,berührt.,nan,nan,genug.,Honig,Schule.,zweiten,nan,nan,nan,umzusetzen.,kaufen.,wurden.,nan,deutlich.,dunkler,gefertigt.,nan,nan,nan,nan,Milch.,nan,nan,nan,nan,es,berührt.,rekonstruiert.,nan,nan,nan,nan,nan,nan,Haus,nan,vermiest.,nan,nan,Rilke.,deutlich.,an,zweiten,wurden.,Honigs,Medikament,gepasst,nan,Menge,nan,gerne.,besprochen.,wiederhergestellt.,nan,nan,nan,gepasst.,nan,nan,schon,nan,nan,nan,im,wiederbelebt.,,,,,,,,,,,,,,,,,,,,,,,7,0,7,0,0,8,8,8,,,,,,,,space,0.757075071335,,,,2017_Feb_02_1247,59.1173353179,spr_backupper,001,Mi13,
,,,,,,,,,,,,,,,,,,,,,,,,,,,,,,,,,,,,,,,,,,,,,,,,,,,,,,,,,,,,,,,,,,,,,,,,,,,,,,,,,,,,,,,,,,,,,,,,,,,,,,,,,,,,,,,,,,,,,,,,,7,0,7,0,,,,,,,,,,,,,,None,n,3.06782507896,2017_Feb_02_1247,59.1173353179,spr_backupper,001,Mi13,
,Beträchtliche,Ich,100,Wir,Wir,Sie,Es,Mit,Außer,Dort,In,Die,Es,Er,Ich,Wir,Walter,Bei,In,Sie,Am,Er,Unter,Viele,Alle,In,Die,Sie,Die,Die,Man,Ihr,Nicht,Die,Sie,100,Er,Die,Bei,Wir,Außer,Die,Jetzt,Jugendliche,Es,Die,Im,Mit,Er,Am,Die,Außer,Die,In,Manche,Viele,Außer,Die,Es,Nicht,Das,Die,Jungtiere,Die,Wir,Sie,Sie,Wir,Die,Dass,Die,In,In,Im,Ich,Bei,Es,Er,In,Die,Wir,Man,Dort,Wir,Sie,Danach,Die,Fernab,Beträchtliche,Die,Der,Die,Bei,Die,Als,Wir,In,Die,,,,,,,,,,,,,,,,,,,,,,,8,0,8,0,0,0,0,0,,,,,,space,1.2419090271,space,0.640679121017,,,,2017_Feb_02_1247,59.1173353179,spr_backupper,001,Mi13,
,Stücke,nehme,g,haben,übergaben,hatte,wurden,dieser,dem,türmen,meinem,Eislaufbahnen,wurden,wurde,wurde,mussten,Scheel,unserer,der,verbrauchen,äußersten,wurde,keinen,Tonnen,Betten,den,Kinder,hatte,Uhr,Formen,machte,Blutdruck,ein,Autos,verlassen,g,stellt,Kinder,der,hatten,den,Stücke,ist,können,waren,Autos,Fernrohr,dieser,hat,äußeren,Lösung,das,Uhr,den,Kreditnehmer,Tonnen,dem,Gäste,hat,ein,Tuch,Teilnehmerinnen,sollten,Schule,mussten,verbrauchen,verlassen,haben,Linie,es,Schule,diesem,meinem,Fernrohr,nehme,der,waren,stellt,einer,Schuhe,konnten,machte,türmen,übergaben,haben,wurde,Gäste,des,Stücke,Schuhe,Flug,"Uhr,",unserer,Uhr,die,hatten,der,müden,,,,,,,,,,,,,,,,,,,,,,,8,0,8,0,0,1,1,1,,,,,,,,space,1.32563591003,,,,2017_Feb_02_1247,59.1173353179,spr_backupper,001,Mi13,
,saftiges,eine,brauner,jede,das,keine,Eimer,Methode,Essen,sich,Studium,wurden,Eimer,trotz,damals,uns,war,Ankunft,Tat,60,Rand,trotz,Umständen,gebrauchte,wurden,Kakao,fuhren,keine,schlug,wurden,mal,kann,Tropfen,beider,wegen,braunen,die,fuhren,Feier,in,Bürgermeister,wurden,genau,Kleidung,nur,beider,sahen,Methode,ein,Rand,wird,Essen,war,Kakao,sind,gebrauchter,Bürgermeister,suchen,uns,Tropfen,wurde,wussten,immer,verbraucht,uns,60,wegen,jede,101,"regnete,",verbraucht,Zirkus,Studium,sahen,eine,Feier,nur,die,Studie,in,dann,mal,sich,dem,die,die,suchen,Rummels,saftigen,in,zum,die,Ankunft,schlug,Sonne,in,Tat,Teilnehmer,,,,,,,,,,,,,,,,,,,,,,,8,0,8,0,0,2,2,2,,,,,,,,space,0.745911121368,,,,2017_Feb_02_1247,59.1173353179,spr_backupper,001,Mi13,
,Fleisch,große,Zucker,Menge,Auto,Lust,roter,kann,kann,Berge,habe,mit,rote,dem,schnell,durch,der,stand,wissen,Liter,der,des,können,Kleidung,mit,gehören,mit,Lust,"sporadisch,",unter,wieder,schon,königliches,beteiligter,dem,Zuckers,Masse,mit,gedachte,Dänemark,beschuldigten,aus,die,bei,kleinere,beteiligten,wir,kann,Hemd,der,mit,kann,aus,gehören,mit,Kleidung,beschuldigten,die,die,königlichen,dann,überwiegend,auf,260.000,durch,Liter,des,Menge,hält,hat,260.000,werden,las,wir,große,gedachte,kleinere,Masse,wurde,Größe,mit,wieder,Berge,Mann,Erlebnisse,Leinwand,die,wurde,Fleischs,Größe,Mond,er,stand,"sporadisch,","unterging,",Dänemark,wissen,wurden,,,,,,,,,,,,,,,,,,,,,,,8,0,8,0,0,3,3,3,,,,,,,,space,0.739798069,,,,2017_Feb_02_1247,59.1173353179,spr_backupper,001,Mi13,
,wurden,Packung,sind,alten,dem,auf,Farbe,man,ich,schmutziger,ich,dauerhaftem,Farbe,bekannten,dank,Büschel,vierte,ein,wir,sprudelndes,Stadt,bekannten,Neuwahlen,landen,"üblichem,",immer,solch,auf,obschon,"regelmäßigem,",viel,bei,Blut,Fahrer,schönen,sind,mit,solchen,man,einen,die,"wertvollem,",richtige,ausreichendem,"Delikte,",Fahrer,den,man,aus,Stadt,"reichlichem,",ich,"Japan,",immer,"sämtlichem,",landen,die,Wohnung,Stimmung,Bluts,mit,"nicht,",warmem,Kilowattstunden,Büschel,sprudelnden,schönen,alten,nicht,uns,Kilowattstunden,die,ich,den,Packung,man,"Delikte,",mit,jetzt,36,"minimalem,",viel,schmutzige,das,bei,aus,Wohnung,schon,wurden,36,dauerte,"trug,",ein,obwohl,war,gelegentlich,wir,mit,,,,,,,,,,,,,,,,,,,,,,,8,0,8,0,0,4,4,4,,,,,,,,space,0.551501989365,,,,2017_Feb_02_1247,59.1173353179,spr_backupper,001,Mi13,
,serviert.,salziger,auf,Kram,Mann,noch,geschleudert.,eine,leider,Wäsche.,mehr,feinem,geschleudert.,Skandal,täglichem,frischen,Bundespräsident.,Glas,um,Trinkwasser.,liegen,Skandals,vor,im,harten,350,unzureichenden,noch,sie,kaltem,Lärm,minimalem,hat,wurden,Wetter,auf,einem,unzureichenden,der,gelegentlichen,Störenfriede,klassischen,"Zeit,",monatlichem,derer,wurden,roten,eine,feinem,liegen,purem,leider,die,350,künftigem,im,Störenfriede,des,ziemlich,hat,"reichem,",was,weichem,elektrische,frisches,Trinkwassers.,Wetters,Krams,am,die,elektrischer,Tiere,mehr,roten,salzige,den,deren,einem,"nachgewiesen,",würden,sauberen,Lärm,Wäsche.,Auto,"frischem,",seltenem,des,immer,serviert.,hätten,ungefähr,war,Glas,sie,die,einen,von,zusätzlichem,,,,,,,,,,,,,,,,,,,,,,,8,0,8,0,0,5,5,5,,,,,,,,space,0.488713026047,,,,2017_Feb_02_1247,59.1173353179,spr_backupper,001,Mi13,
,nan,Wurst,jeden,aus,mehr,eine,nan,große,nichts,nan,als,Kunsteis,nan,wiedergewählt.,grünen,Grases,nan,köstlicher,die,nan,die,wiedergewählt.,Dezember,Müll.,Schaumstoff,ml,Helmen,eine,defekt,Abduschen,um,täglichen,den,verschrottet.,die,jeden,Esslöffel,Helmen,Soldaten,Besucher.,jeden.,Schmuck,um,Taschengeld,sie,verschrottet.,Planeten,große,dichten,die,Alkohol,nichts,er,ml,Einkommen,Müll.,jeden.,Herrn,"vermiest,",den,goldenen,Tupperware,Untergrund,Energie.,Gras,nan,die,aus,Hauptbahnhof.,Stimmung,Energie.,artgerecht,als,Planet,Wurst,Soldaten,sie,Esslöffel,dass,seiner,Kraftstoff,um,nan,mehr,kaltem,dichten,Herrn,ruhig,nan,seiner,drei,aus,köstlichen,defekt,Flut,Besucher.,den,schwarzem,,,,,,,,,,,,,,,,,,,,,,,8,0,8,0,0,6,6,6,,,,,,,,space,0.509715080261,,,,2017_Feb_02_1247,59.1173353179,spr_backupper,001,Mi13,
,nan,mit,Fall,dem,als,Sammlung,nan,Menge,mitbringen.,nan,einmal,eingesprüht.,nan,nan,Tee,zwängen.,nan,Wein,Probleme,nan,Slums.,nan,stattfinden.,nan,gefertigt.,warme,zur,Sammlung,war.,gehärtet.,jede,Einsatz,Boden,nan,Wohnung.,Fall,warmem,zur,des,nan,nan,umgearbeitet.,Nadelhölzer,selber,überführt,nan,ganz,Menge,Stoff,Slums.,verdünnt.,mitbringen.,trug.,warmer,haftbar.,nan,nan,Gantenbeins.,dass,Boden,Besatz,ist.,liegen.,nan,zwängen.,nan,Wohnung.,dem,nan,ziemlich,nan,gehalten.,einmal,ganz,mit,des,überführt,warmen,das,Frau,fahren.,jede,nan,als,Saft,Gewebe,Gantenbein.,diskutiert.,nan,Frau,Tage.,Japan.,Weins,war.,zurückgekehrt.,nan,Problemen,Kaffee,,,,,,,,,,,,,,,,,,,,,,,8,0,8,0,0,7,7,7,,,,,,,,space,0.549776792526,,,,2017_Feb_02_1247,59.1173353179,spr_backupper,001,Mi13,
,nan,an,genug.,Haus,gerne.,dumme,nan,dunkle,nan,nan,Rilke,nan,nan,nan,wieder,nan,nan,schon,im,nan,nan,nan,nan,nan,nan,Milch.,Schule.,dummer,nan,nan,Menge,sinken.,berührt.,nan,nan,genug.,Honig,Schule.,zweiten,nan,nan,nan,umzusetzen.,kaufen.,wurden.,nan,deutlich.,dunkler,gefertigt.,nan,nan,nan,nan,Milch.,nan,nan,nan,nan,es,berührt.,rekonstruiert.,nan,nan,nan,nan,nan,nan,Haus,nan,vermiest.,nan,nan,Rilke.,deutlich.,an,zweiten,wurden.,Honigs,Medikament,gepasst,nan,Menge,nan,gerne.,besprochen.,wiederhergestellt.,nan,nan,nan,gepasst.,nan,nan,schon,nan,nan,nan,im,wiederbelebt.,,,,,,,,,,,,,,,,,,,,,,,8,0,8,0,0,8,8,8,,,,,,,,space,0.502777099609,,,,2017_Feb_02_1247,59.1173353179,spr_backupper,001,Mi13,
,nan,den,nan,geschafft.,nan,Sprüche.,nan,Materie,nan,nan,gelesen.,nan,nan,nan,fit.,nan,nan,auf,Landkreis.,nan,nan,nan,nan,nan,nan,nan,nan,Sprüche.,nan,nan,heiße,nan,nan,nan,nan,nan,her.,nan,Weltkriegs.,nan,nan,nan,nan,nan,nan,nan,nan,Materie,nan,nan,nan,nan,nan,nan,nan,nan,nan,nan,regnete.,nan,nan,nan,nan,nan,nan,nan,nan,geschafft.,nan,nan,nan,nan,nan,nan,den,Weltkriegs.,nan,her.,nicht,haben.,nan,heißer,nan,nan,nan,nan,nan,nan,nan,nan,nan,nan,auf,nan,nan,nan,Landkreis.,nan,,,,,,,,,,,,,,,,,,,,,,,8,0,8,0,0,9,9,9,,,,,,,,space,0.436932086945,,,,2017_Feb_02_1247,59.1173353179,spr_backupper,001,Mi13,
,nan,See.,nan,nan,nan,nan,nan,erzeugen.,nan,nan,nan,nan,nan,nan,nan,nan,nan,dem,nan,nan,nan,nan,nan,nan,nan,nan,nan,nan,nan,nan,Luft.,nan,nan,nan,nan,nan,nan,nan,nan,nan,nan,nan,nan,nan,nan,nan,nan,erzeugen.,nan,nan,nan,nan,nan,nan,nan,nan,nan,nan,nan,nan,nan,nan,nan,nan,nan,nan,nan,nan,nan,nan,nan,nan,nan,nan,See.,nan,nan,nan,wirkt.,nan,nan,Luft.,nan,nan,nan,nan,nan,nan,nan,nan,nan,nan,dem,nan,nan,nan,nan,nan,,,,,,,,,,,,,,,,,,,,,,,8,0,8,0,0,10,10,10,,,,,,,,space,0.663188934326,,,,2017_Feb_02_1247,59.1173353179,spr_backupper,001,Mi13,
,,,,,,,,,,,,,,,,,,,,,,,,,,,,,,,,,,,,,,,,,,,,,,,,,,,,,,,,,,,,,,,,,,,,,,,,,,,,,,,,,,,,,,,,,,,,,,,,,,,,,,,,,,,,,,,,,,,,,,,,,8,0,8,0,,,,,,,,,,,,,,None,j,6.14672493935,2017_Feb_02_1247,59.1173353179,spr_backupper,001,Mi13,
,Beträchtliche,Ich,100,Wir,Wir,Sie,Es,Mit,Außer,Dort,In,Die,Es,Er,Ich,Wir,Walter,Bei,In,Sie,Am,Er,Unter,Viele,Alle,In,Die,Sie,Die,Die,Man,Ihr,Nicht,Die,Sie,100,Er,Die,Bei,Wir,Außer,Die,Jetzt,Jugendliche,Es,Die,Im,Mit,Er,Am,Die,Außer,Die,In,Manche,Viele,Außer,Die,Es,Nicht,Das,Die,Jungtiere,Die,Wir,Sie,Sie,Wir,Die,Dass,Die,In,In,Im,Ich,Bei,Es,Er,In,Die,Wir,Man,Dort,Wir,Sie,Danach,Die,Fernab,Beträchtliche,Die,Der,Die,Bei,Die,Als,Wir,In,Die,,,,,,,,,,,,,,,,,,,,,,,9,0,9,0,0,0,0,0,,,,,,None,,space,1.14240598679,,,,2017_Feb_02_1247,59.1173353179,spr_backupper,001,Mi13,
,Stücke,nehme,g,haben,übergaben,hatte,wurden,dieser,dem,türmen,meinem,Eislaufbahnen,wurden,wurde,wurde,mussten,Scheel,unserer,der,verbrauchen,äußersten,wurde,keinen,Tonnen,Betten,den,Kinder,hatte,Uhr,Formen,machte,Blutdruck,ein,Autos,verlassen,g,stellt,Kinder,der,hatten,den,Stücke,ist,können,waren,Autos,Fernrohr,dieser,hat,äußeren,Lösung,das,Uhr,den,Kreditnehmer,Tonnen,dem,Gäste,hat,ein,Tuch,Teilnehmerinnen,sollten,Schule,mussten,verbrauchen,verlassen,haben,Linie,es,Schule,diesem,meinem,Fernrohr,nehme,der,waren,stellt,einer,Schuhe,konnten,machte,türmen,übergaben,haben,wurde,Gäste,des,Stücke,Schuhe,Flug,"Uhr,",unserer,Uhr,die,hatten,der,müden,,,,,,,,,,,,,,,,,,,,,,,9,0,9,0,0,1,1,1,,,,,,,,space,0.986775875092,,,,2017_Feb_02_1247,59.1173353179,spr_backupper,001,Mi13,
,saftiges,eine,brauner,jede,das,keine,Eimer,Methode,Essen,sich,Studium,wurden,Eimer,trotz,damals,uns,war,Ankunft,Tat,60,Rand,trotz,Umständen,gebrauchte,wurden,Kakao,fuhren,keine,schlug,wurden,mal,kann,Tropfen,beider,wegen,braunen,die,fuhren,Feier,in,Bürgermeister,wurden,genau,Kleidung,nur,beider,sahen,Methode,ein,Rand,wird,Essen,war,Kakao,sind,gebrauchter,Bürgermeister,suchen,uns,Tropfen,wurde,wussten,immer,verbraucht,uns,60,wegen,jede,101,"regnete,",verbraucht,Zirkus,Studium,sahen,eine,Feier,nur,die,Studie,in,dann,mal,sich,dem,die,die,suchen,Rummels,saftigen,in,zum,die,Ankunft,schlug,Sonne,in,Tat,Teilnehmer,,,,,,,,,,,,,,,,,,,,,,,9,0,9,0,0,2,2,2,,,,,,,,space,0.831573009491,,,,2017_Feb_02_1247,59.1173353179,spr_backupper,001,Mi13,
,Fleisch,große,Zucker,Menge,Auto,Lust,roter,kann,kann,Berge,habe,mit,rote,dem,schnell,durch,der,stand,wissen,Liter,der,des,können,Kleidung,mit,gehören,mit,Lust,"sporadisch,",unter,wieder,schon,königliches,beteiligter,dem,Zuckers,Masse,mit,gedachte,Dänemark,beschuldigten,aus,die,bei,kleinere,beteiligten,wir,kann,Hemd,der,mit,kann,aus,gehören,mit,Kleidung,beschuldigten,die,die,königlichen,dann,überwiegend,auf,260.000,durch,Liter,des,Menge,hält,hat,260.000,werden,las,wir,große,gedachte,kleinere,Masse,wurde,Größe,mit,wieder,Berge,Mann,Erlebnisse,Leinwand,die,wurde,Fleischs,Größe,Mond,er,stand,"sporadisch,","unterging,",Dänemark,wissen,wurden,,,,,,,,,,,,,,,,,,,,,,,9,0,9,0,0,3,3,3,,,,,,,,space,0.824487924576,,,,2017_Feb_02_1247,59.1173353179,spr_backupper,001,Mi13,
,wurden,Packung,sind,alten,dem,auf,Farbe,man,ich,schmutziger,ich,dauerhaftem,Farbe,bekannten,dank,Büschel,vierte,ein,wir,sprudelndes,Stadt,bekannten,Neuwahlen,landen,"üblichem,",immer,solch,auf,obschon,"regelmäßigem,",viel,bei,Blut,Fahrer,schönen,sind,mit,solchen,man,einen,die,"wertvollem,",richtige,ausreichendem,"Delikte,",Fahrer,den,man,aus,Stadt,"reichlichem,",ich,"Japan,",immer,"sämtlichem,",landen,die,Wohnung,Stimmung,Bluts,mit,"nicht,",warmem,Kilowattstunden,Büschel,sprudelnden,schönen,alten,nicht,uns,Kilowattstunden,die,ich,den,Packung,man,"Delikte,",mit,jetzt,36,"minimalem,",viel,schmutzige,das,bei,aus,Wohnung,schon,wurden,36,dauerte,"trug,",ein,obwohl,war,gelegentlich,wir,mit,,,,,,,,,,,,,,,,,,,,,,,9,0,9,0,0,4,4,4,,,,,,,,space,0.705566883087,,,,2017_Feb_02_1247,59.1173353179,spr_backupper,001,Mi13,
,serviert.,salziger,auf,Kram,Mann,noch,geschleudert.,eine,leider,Wäsche.,mehr,feinem,geschleudert.,Skandal,täglichem,frischen,Bundespräsident.,Glas,um,Trinkwasser.,liegen,Skandals,vor,im,harten,350,unzureichenden,noch,sie,kaltem,Lärm,minimalem,hat,wurden,Wetter,auf,einem,unzureichenden,der,gelegentlichen,Störenfriede,klassischen,"Zeit,",monatlichem,derer,wurden,roten,eine,feinem,liegen,purem,leider,die,350,künftigem,im,Störenfriede,des,ziemlich,hat,"reichem,",was,weichem,elektrische,frisches,Trinkwassers.,Wetters,Krams,am,die,elektrischer,Tiere,mehr,roten,salzige,den,deren,einem,"nachgewiesen,",würden,sauberen,Lärm,Wäsche.,Auto,"frischem,",seltenem,des,immer,serviert.,hätten,ungefähr,war,Glas,sie,die,einen,von,zusätzlichem,,,,,,,,,,,,,,,,,,,,,,,9,0,9,0,0,5,5,5,,,,,,,,space,0.503090858459,,,,2017_Feb_02_1247,59.1173353179,spr_backupper,001,Mi13,
,nan,Wurst,jeden,aus,mehr,eine,nan,große,nichts,nan,als,Kunsteis,nan,wiedergewählt.,grünen,Grases,nan,köstlicher,die,nan,die,wiedergewählt.,Dezember,Müll.,Schaumstoff,ml,Helmen,eine,defekt,Abduschen,um,täglichen,den,verschrottet.,die,jeden,Esslöffel,Helmen,Soldaten,Besucher.,jeden.,Schmuck,um,Taschengeld,sie,verschrottet.,Planeten,große,dichten,die,Alkohol,nichts,er,ml,Einkommen,Müll.,jeden.,Herrn,"vermiest,",den,goldenen,Tupperware,Untergrund,Energie.,Gras,nan,die,aus,Hauptbahnhof.,Stimmung,Energie.,artgerecht,als,Planet,Wurst,Soldaten,sie,Esslöffel,dass,seiner,Kraftstoff,um,nan,mehr,kaltem,dichten,Herrn,ruhig,nan,seiner,drei,aus,köstlichen,defekt,Flut,Besucher.,den,schwarzem,,,,,,,,,,,,,,,,,,,,,,,9,0,9,0,0,6,6,6,,,,,,,,space,0.524050951004,,,,2017_Feb_02_1247,59.1173353179,spr_backupper,001,Mi13,
,,,,,,,,,,,,,,,,,,,,,,,,,,,,,,,,,,,,,,,,,,,,,,,,,,,,,,,,,,,,,,,,,,,,,,,,,,,,,,,,,,,,,,,,,,,,,,,,,,,,,,,,,,,,,,,,,,,,,,,,,9,0,9,0,,,,,,,,,,,,,,None,n,3.49569606781,2017_Feb_02_1247,59.1173353179,spr_backupper,001,Mi13,
,Beträchtliche,Ich,100,Wir,Wir,Sie,Es,Mit,Außer,Dort,In,Die,Es,Er,Ich,Wir,Walter,Bei,In,Sie,Am,Er,Unter,Viele,Alle,In,Die,Sie,Die,Die,Man,Ihr,Nicht,Die,Sie,100,Er,Die,Bei,Wir,Außer,Die,Jetzt,Jugendliche,Es,Die,Im,Mit,Er,Am,Die,Außer,Die,In,Manche,Viele,Außer,Die,Es,Nicht,Das,Die,Jungtiere,Die,Wir,Sie,Sie,Wir,Die,Dass,Die,In,In,Im,Ich,Bei,Es,Er,In,Die,Wir,Man,Dort,Wir,Sie,Danach,Die,Fernab,Beträchtliche,Die,Der,Die,Bei,Die,Als,Wir,In,Die,,,,,,,,,,,,,,,,,,,,,,,10,0,10,0,0,0,0,0,,,,,,space,1.07323813438,space,2.36246609688,,,,2017_Feb_02_1247,59.1173353179,spr_backupper,001,Mi13,
,Stücke,nehme,g,haben,übergaben,hatte,wurden,dieser,dem,türmen,meinem,Eislaufbahnen,wurden,wurde,wurde,mussten,Scheel,unserer,der,verbrauchen,äußersten,wurde,keinen,Tonnen,Betten,den,Kinder,hatte,Uhr,Formen,machte,Blutdruck,ein,Autos,verlassen,g,stellt,Kinder,der,hatten,den,Stücke,ist,können,waren,Autos,Fernrohr,dieser,hat,äußeren,Lösung,das,Uhr,den,Kreditnehmer,Tonnen,dem,Gäste,hat,ein,Tuch,Teilnehmerinnen,sollten,Schule,mussten,verbrauchen,verlassen,haben,Linie,es,Schule,diesem,meinem,Fernrohr,nehme,der,waren,stellt,einer,Schuhe,konnten,machte,türmen,übergaben,haben,wurde,Gäste,des,Stücke,Schuhe,Flug,"Uhr,",unserer,Uhr,die,hatten,der,müden,,,,,,,,,,,,,,,,,,,,,,,10,0,10,0,0,1,1,1,,,,,,,,space,1.30822920799,,,,2017_Feb_02_1247,59.1173353179,spr_backupper,001,Mi13,
,saftiges,eine,brauner,jede,das,keine,Eimer,Methode,Essen,sich,Studium,wurden,Eimer,trotz,damals,uns,war,Ankunft,Tat,60,Rand,trotz,Umständen,gebrauchte,wurden,Kakao,fuhren,keine,schlug,wurden,mal,kann,Tropfen,beider,wegen,braunen,die,fuhren,Feier,in,Bürgermeister,wurden,genau,Kleidung,nur,beider,sahen,Methode,ein,Rand,wird,Essen,war,Kakao,sind,gebrauchter,Bürgermeister,suchen,uns,Tropfen,wurde,wussten,immer,verbraucht,uns,60,wegen,jede,101,"regnete,",verbraucht,Zirkus,Studium,sahen,eine,Feier,nur,die,Studie,in,dann,mal,sich,dem,die,die,suchen,Rummels,saftigen,in,zum,die,Ankunft,schlug,Sonne,in,Tat,Teilnehmer,,,,,,,,,,,,,,,,,,,,,,,10,0,10,0,0,2,2,2,,,,,,,,space,1.15685606003,,,,2017_Feb_02_1247,59.1173353179,spr_backupper,001,Mi13,
,Fleisch,große,Zucker,Menge,Auto,Lust,roter,kann,kann,Berge,habe,mit,rote,dem,schnell,durch,der,stand,wissen,Liter,der,des,können,Kleidung,mit,gehören,mit,Lust,"sporadisch,",unter,wieder,schon,königliches,beteiligter,dem,Zuckers,Masse,mit,gedachte,Dänemark,beschuldigten,aus,die,bei,kleinere,beteiligten,wir,kann,Hemd,der,mit,kann,aus,gehören,mit,Kleidung,beschuldigten,die,die,königlichen,dann,überwiegend,auf,260.000,durch,Liter,des,Menge,hält,hat,260.000,werden,las,wir,große,gedachte,kleinere,Masse,wurde,Größe,mit,wieder,Berge,Mann,Erlebnisse,Leinwand,die,wurde,Fleischs,Größe,Mond,er,stand,"sporadisch,","unterging,",Dänemark,wissen,wurden,,,,,,,,,,,,,,,,,,,,,,,10,0,10,0,0,3,3,3,,,,,,,,space,1.05649590492,,,,2017_Feb_02_1247,59.1173353179,spr_backupper,001,Mi13,
,wurden,Packung,sind,alten,dem,auf,Farbe,man,ich,schmutziger,ich,dauerhaftem,Farbe,bekannten,dank,Büschel,vierte,ein,wir,sprudelndes,Stadt,bekannten,Neuwahlen,landen,"üblichem,",immer,solch,auf,obschon,"regelmäßigem,",viel,bei,Blut,Fahrer,schönen,sind,mit,solchen,man,einen,die,"wertvollem,",richtige,ausreichendem,"Delikte,",Fahrer,den,man,aus,Stadt,"reichlichem,",ich,"Japan,",immer,"sämtlichem,",landen,die,Wohnung,Stimmung,Bluts,mit,"nicht,",warmem,Kilowattstunden,Büschel,sprudelnden,schönen,alten,nicht,uns,Kilowattstunden,die,ich,den,Packung,man,"Delikte,",mit,jetzt,36,"minimalem,",viel,schmutzige,das,bei,aus,Wohnung,schon,wurden,36,dauerte,"trug,",ein,obwohl,war,gelegentlich,wir,mit,,,,,,,,,,,,,,,,,,,,,,,10,0,10,0,0,4,4,4,,,,,,,,space,0.888987779617,,,,2017_Feb_02_1247,59.1173353179,spr_backupper,001,Mi13,
,serviert.,salziger,auf,Kram,Mann,noch,geschleudert.,eine,leider,Wäsche.,mehr,feinem,geschleudert.,Skandal,täglichem,frischen,Bundespräsident.,Glas,um,Trinkwasser.,liegen,Skandals,vor,im,harten,350,unzureichenden,noch,sie,kaltem,Lärm,minimalem,hat,wurden,Wetter,auf,einem,unzureichenden,der,gelegentlichen,Störenfriede,klassischen,"Zeit,",monatlichem,derer,wurden,roten,eine,feinem,liegen,purem,leider,die,350,künftigem,im,Störenfriede,des,ziemlich,hat,"reichem,",was,weichem,elektrische,frisches,Trinkwassers.,Wetters,Krams,am,die,elektrischer,Tiere,mehr,roten,salzige,den,deren,einem,"nachgewiesen,",würden,sauberen,Lärm,Wäsche.,Auto,"frischem,",seltenem,des,immer,serviert.,hätten,ungefähr,war,Glas,sie,die,einen,von,zusätzlichem,,,,,,,,,,,,,,,,,,,,,,,10,0,10,0,0,5,5,5,,,,,,,,space,0.604508876801,,,,2017_Feb_02_1247,59.1173353179,spr_backupper,001,Mi13,
,nan,Wurst,jeden,aus,mehr,eine,nan,große,nichts,nan,als,Kunsteis,nan,wiedergewählt.,grünen,Grases,nan,köstlicher,die,nan,die,wiedergewählt.,Dezember,Müll.,Schaumstoff,ml,Helmen,eine,defekt,Abduschen,um,täglichen,den,verschrottet.,die,jeden,Esslöffel,Helmen,Soldaten,Besucher.,jeden.,Schmuck,um,Taschengeld,sie,verschrottet.,Planeten,große,dichten,die,Alkohol,nichts,er,ml,Einkommen,Müll.,jeden.,Herrn,"vermiest,",den,goldenen,Tupperware,Untergrund,Energie.,Gras,nan,die,aus,Hauptbahnhof.,Stimmung,Energie.,artgerecht,als,Planet,Wurst,Soldaten,sie,Esslöffel,dass,seiner,Kraftstoff,um,nan,mehr,kaltem,dichten,Herrn,ruhig,nan,seiner,drei,aus,köstlichen,defekt,Flut,Besucher.,den,schwarzem,,,,,,,,,,,,,,,,,,,,,,,10,0,10,0,0,6,6,6,,,,,,,,space,0.518304109573,,,,2017_Feb_02_1247,59.1173353179,spr_backupper,001,Mi13,
,nan,mit,Fall,dem,als,Sammlung,nan,Menge,mitbringen.,nan,einmal,eingesprüht.,nan,nan,Tee,zwängen.,nan,Wein,Probleme,nan,Slums.,nan,stattfinden.,nan,gefertigt.,warme,zur,Sammlung,war.,gehärtet.,jede,Einsatz,Boden,nan,Wohnung.,Fall,warmem,zur,des,nan,nan,umgearbeitet.,Nadelhölzer,selber,überführt,nan,ganz,Menge,Stoff,Slums.,verdünnt.,mitbringen.,trug.,warmer,haftbar.,nan,nan,Gantenbeins.,dass,Boden,Besatz,ist.,liegen.,nan,zwängen.,nan,Wohnung.,dem,nan,ziemlich,nan,gehalten.,einmal,ganz,mit,des,überführt,warmen,das,Frau,fahren.,jede,nan,als,Saft,Gewebe,Gantenbein.,diskutiert.,nan,Frau,Tage.,Japan.,Weins,war.,zurückgekehrt.,nan,Problemen,Kaffee,,,,,,,,,,,,,,,,,,,,,,,10,0,10,0,0,7,7,7,,,,,,,,space,0.503473997116,,,,2017_Feb_02_1247,59.1173353179,spr_backupper,001,Mi13,
,,,,,,,,,,,,,,,,,,,,,,,,,,,,,,,,,,,,,,,,,,,,,,,,,,,,,,,,,,,,,,,,,,,,,,,,,,,,,,,,,,,,,,,,,,,,,,,,,,,,,,,,,,,,,,,,,,,,,,,,,10,0,10,0,,,,,,,,,,,,,,None,j,6.3733549118,2017_Feb_02_1247,59.1173353179,spr_backupper,001,Mi13,
,Beträchtliche,Ich,100,Wir,Wir,Sie,Es,Mit,Außer,Dort,In,Die,Es,Er,Ich,Wir,Walter,Bei,In,Sie,Am,Er,Unter,Viele,Alle,In,Die,Sie,Die,Die,Man,Ihr,Nicht,Die,Sie,100,Er,Die,Bei,Wir,Außer,Die,Jetzt,Jugendliche,Es,Die,Im,Mit,Er,Am,Die,Außer,Die,In,Manche,Viele,Außer,Die,Es,Nicht,Das,Die,Jungtiere,Die,Wir,Sie,Sie,Wir,Die,Dass,Die,In,In,Im,Ich,Bei,Es,Er,In,Die,Wir,Man,Dort,Wir,Sie,Danach,Die,Fernab,Beträchtliche,Die,Der,Die,Bei,Die,Als,Wir,In,Die,,,,,,,,,,,,,,,,,,,,,,,11,0,11,0,0,0,0,0,,,,,,space,1.00617194176,space,0.538495063782,,,,2017_Feb_02_1247,59.1173353179,spr_backupper,001,Mi13,
,Stücke,nehme,g,haben,übergaben,hatte,wurden,dieser,dem,türmen,meinem,Eislaufbahnen,wurden,wurde,wurde,mussten,Scheel,unserer,der,verbrauchen,äußersten,wurde,keinen,Tonnen,Betten,den,Kinder,hatte,Uhr,Formen,machte,Blutdruck,ein,Autos,verlassen,g,stellt,Kinder,der,hatten,den,Stücke,ist,können,waren,Autos,Fernrohr,dieser,hat,äußeren,Lösung,das,Uhr,den,Kreditnehmer,Tonnen,dem,Gäste,hat,ein,Tuch,Teilnehmerinnen,sollten,Schule,mussten,verbrauchen,verlassen,haben,Linie,es,Schule,diesem,meinem,Fernrohr,nehme,der,waren,stellt,einer,Schuhe,konnten,machte,türmen,übergaben,haben,wurde,Gäste,des,Stücke,Schuhe,Flug,"Uhr,",unserer,Uhr,die,hatten,der,müden,,,,,,,,,,,,,,,,,,,,,,,11,0,11,0,0,1,1,1,,,,,,,,space,0.47936797142,,,,2017_Feb_02_1247,59.1173353179,spr_backupper,001,Mi13,
,saftiges,eine,brauner,jede,das,keine,Eimer,Methode,Essen,sich,Studium,wurden,Eimer,trotz,damals,uns,war,Ankunft,Tat,60,Rand,trotz,Umständen,gebrauchte,wurden,Kakao,fuhren,keine,schlug,wurden,mal,kann,Tropfen,beider,wegen,braunen,die,fuhren,Feier,in,Bürgermeister,wurden,genau,Kleidung,nur,beider,sahen,Methode,ein,Rand,wird,Essen,war,Kakao,sind,gebrauchter,Bürgermeister,suchen,uns,Tropfen,wurde,wussten,immer,verbraucht,uns,60,wegen,jede,101,"regnete,",verbraucht,Zirkus,Studium,sahen,eine,Feier,nur,die,Studie,in,dann,mal,sich,dem,die,die,suchen,Rummels,saftigen,in,zum,die,Ankunft,schlug,Sonne,in,Tat,Teilnehmer,,,,,,,,,,,,,,,,,,,,,,,11,0,11,0,0,2,2,2,,,,,,,,space,0.712481975555,,,,2017_Feb_02_1247,59.1173353179,spr_backupper,001,Mi13,
,Fleisch,große,Zucker,Menge,Auto,Lust,roter,kann,kann,Berge,habe,mit,rote,dem,schnell,durch,der,stand,wissen,Liter,der,des,können,Kleidung,mit,gehören,mit,Lust,"sporadisch,",unter,wieder,schon,königliches,beteiligter,dem,Zuckers,Masse,mit,gedachte,Dänemark,beschuldigten,aus,die,bei,kleinere,beteiligten,wir,kann,Hemd,der,mit,kann,aus,gehören,mit,Kleidung,beschuldigten,die,die,königlichen,dann,überwiegend,auf,260.000,durch,Liter,des,Menge,hält,hat,260.000,werden,las,wir,große,gedachte,kleinere,Masse,wurde,Größe,mit,wieder,Berge,Mann,Erlebnisse,Leinwand,die,wurde,Fleischs,Größe,Mond,er,stand,"sporadisch,","unterging,",Dänemark,wissen,wurden,,,,,,,,,,,,,,,,,,,,,,,11,0,11,0,0,3,3,3,,,,,,,,space,0.50928902626,,,,2017_Feb_02_1247,59.1173353179,spr_backupper,001,Mi13,
,wurden,Packung,sind,alten,dem,auf,Farbe,man,ich,schmutziger,ich,dauerhaftem,Farbe,bekannten,dank,Büschel,vierte,ein,wir,sprudelndes,Stadt,bekannten,Neuwahlen,landen,"üblichem,",immer,solch,auf,obschon,"regelmäßigem,",viel,bei,Blut,Fahrer,schönen,sind,mit,solchen,man,einen,die,"wertvollem,",richtige,ausreichendem,"Delikte,",Fahrer,den,man,aus,Stadt,"reichlichem,",ich,"Japan,",immer,"sämtlichem,",landen,die,Wohnung,Stimmung,Bluts,mit,"nicht,",warmem,Kilowattstunden,Büschel,sprudelnden,schönen,alten,nicht,uns,Kilowattstunden,die,ich,den,Packung,man,"Delikte,",mit,jetzt,36,"minimalem,",viel,schmutzige,das,bei,aus,Wohnung,schon,wurden,36,dauerte,"trug,",ein,obwohl,war,gelegentlich,wir,mit,,,,,,,,,,,,,,,,,,,,,,,11,0,11,0,0,4,4,4,,,,,,,,space,0.503166913986,,,,2017_Feb_02_1247,59.1173353179,spr_backupper,001,Mi13,
,serviert.,salziger,auf,Kram,Mann,noch,geschleudert.,eine,leider,Wäsche.,mehr,feinem,geschleudert.,Skandal,täglichem,frischen,Bundespräsident.,Glas,um,Trinkwasser.,liegen,Skandals,vor,im,harten,350,unzureichenden,noch,sie,kaltem,Lärm,minimalem,hat,wurden,Wetter,auf,einem,unzureichenden,der,gelegentlichen,Störenfriede,klassischen,"Zeit,",monatlichem,derer,wurden,roten,eine,feinem,liegen,purem,leider,die,350,künftigem,im,Störenfriede,des,ziemlich,hat,"reichem,",was,weichem,elektrische,frisches,Trinkwassers.,Wetters,Krams,am,die,elektrischer,Tiere,mehr,roten,salzige,den,deren,einem,"nachgewiesen,",würden,sauberen,Lärm,Wäsche.,Auto,"frischem,",seltenem,des,immer,serviert.,hätten,ungefähr,war,Glas,sie,die,einen,von,zusätzlichem,,,,,,,,,,,,,,,,,,,,,,,11,0,11,0,0,5,5,5,,,,,,,,space,0.537894964218,,,,2017_Feb_02_1247,59.1173353179,spr_backupper,001,Mi13,
,nan,Wurst,jeden,aus,mehr,eine,nan,große,nichts,nan,als,Kunsteis,nan,wiedergewählt.,grünen,Grases,nan,köstlicher,die,nan,die,wiedergewählt.,Dezember,Müll.,Schaumstoff,ml,Helmen,eine,defekt,Abduschen,um,täglichen,den,verschrottet.,die,jeden,Esslöffel,Helmen,Soldaten,Besucher.,jeden.,Schmuck,um,Taschengeld,sie,verschrottet.,Planeten,große,dichten,die,Alkohol,nichts,er,ml,Einkommen,Müll.,jeden.,Herrn,"vermiest,",den,goldenen,Tupperware,Untergrund,Energie.,Gras,nan,die,aus,Hauptbahnhof.,Stimmung,Energie.,artgerecht,als,Planet,Wurst,Soldaten,sie,Esslöffel,dass,seiner,Kraftstoff,um,nan,mehr,kaltem,dichten,Herrn,ruhig,nan,seiner,drei,aus,köstlichen,defekt,Flut,Besucher.,den,schwarzem,,,,,,,,,,,,,,,,,,,,,,,11,0,11,0,0,6,6,6,,,,,,,,space,0.588152885437,,,,2017_Feb_02_1247,59.1173353179,spr_backupper,001,Mi13,
,,,,,,,,,,,,,,,,,,,,,,,,,,,,,,,,,,,,,,,,,,,,,,,,,,,,,,,,,,,,,,,,,,,,,,,,,,,,,,,,,,,,,,,,,,,,,,,,,,,,,,,,,,,,,,,,,,,,,,,,,11,0,11,0,,,,,,,,,,,,,,None,j,2.07871699333,2017_Feb_02_1247,59.1173353179,spr_backupper,001,Mi13,
,Beträchtliche,Ich,100,Wir,Wir,Sie,Es,Mit,Außer,Dort,In,Die,Es,Er,Ich,Wir,Walter,Bei,In,Sie,Am,Er,Unter,Viele,Alle,In,Die,Sie,Die,Die,Man,Ihr,Nicht,Die,Sie,100,Er,Die,Bei,Wir,Außer,Die,Jetzt,Jugendliche,Es,Die,Im,Mit,Er,Am,Die,Außer,Die,In,Manche,Viele,Außer,Die,Es,Nicht,Das,Die,Jungtiere,Die,Wir,Sie,Sie,Wir,Die,Dass,Die,In,In,Im,Ich,Bei,Es,Er,In,Die,Wir,Man,Dort,Wir,Sie,Danach,Die,Fernab,Beträchtliche,Die,Der,Die,Bei,Die,Als,Wir,In,Die,,,,,,,,,,,,,,,,,,,,,,,12,0,12,0,0,0,0,0,,,,,,space,1.02420902252,space,0.55756020546,,,,2017_Feb_02_1247,59.1173353179,spr_backupper,001,Mi13,
,Stücke,nehme,g,haben,übergaben,hatte,wurden,dieser,dem,türmen,meinem,Eislaufbahnen,wurden,wurde,wurde,mussten,Scheel,unserer,der,verbrauchen,äußersten,wurde,keinen,Tonnen,Betten,den,Kinder,hatte,Uhr,Formen,machte,Blutdruck,ein,Autos,verlassen,g,stellt,Kinder,der,hatten,den,Stücke,ist,können,waren,Autos,Fernrohr,dieser,hat,äußeren,Lösung,das,Uhr,den,Kreditnehmer,Tonnen,dem,Gäste,hat,ein,Tuch,Teilnehmerinnen,sollten,Schule,mussten,verbrauchen,verlassen,haben,Linie,es,Schule,diesem,meinem,Fernrohr,nehme,der,waren,stellt,einer,Schuhe,konnten,machte,türmen,übergaben,haben,wurde,Gäste,des,Stücke,Schuhe,Flug,"Uhr,",unserer,Uhr,die,hatten,der,müden,,,,,,,,,,,,,,,,,,,,,,,12,0,12,0,0,1,1,1,,,,,,,,space,0.533052921295,,,,2017_Feb_02_1247,59.1173353179,spr_backupper,001,Mi13,
,saftiges,eine,brauner,jede,das,keine,Eimer,Methode,Essen,sich,Studium,wurden,Eimer,trotz,damals,uns,war,Ankunft,Tat,60,Rand,trotz,Umständen,gebrauchte,wurden,Kakao,fuhren,keine,schlug,wurden,mal,kann,Tropfen,beider,wegen,braunen,die,fuhren,Feier,in,Bürgermeister,wurden,genau,Kleidung,nur,beider,sahen,Methode,ein,Rand,wird,Essen,war,Kakao,sind,gebrauchter,Bürgermeister,suchen,uns,Tropfen,wurde,wussten,immer,verbraucht,uns,60,wegen,jede,101,"regnete,",verbraucht,Zirkus,Studium,sahen,eine,Feier,nur,die,Studie,in,dann,mal,sich,dem,die,die,suchen,Rummels,saftigen,in,zum,die,Ankunft,schlug,Sonne,in,Tat,Teilnehmer,,,,,,,,,,,,,,,,,,,,,,,12,0,12,0,0,2,2,2,,,,,,,,space,0.846772193909,,,,2017_Feb_02_1247,59.1173353179,spr_backupper,001,Mi13,
,Fleisch,große,Zucker,Menge,Auto,Lust,roter,kann,kann,Berge,habe,mit,rote,dem,schnell,durch,der,stand,wissen,Liter,der,des,können,Kleidung,mit,gehören,mit,Lust,"sporadisch,",unter,wieder,schon,königliches,beteiligter,dem,Zuckers,Masse,mit,gedachte,Dänemark,beschuldigten,aus,die,bei,kleinere,beteiligten,wir,kann,Hemd,der,mit,kann,aus,gehören,mit,Kleidung,beschuldigten,die,die,königlichen,dann,überwiegend,auf,260.000,durch,Liter,des,Menge,hält,hat,260.000,werden,las,wir,große,gedachte,kleinere,Masse,wurde,Größe,mit,wieder,Berge,Mann,Erlebnisse,Leinwand,die,wurde,Fleischs,Größe,Mond,er,stand,"sporadisch,","unterging,",Dänemark,wissen,wurden,,,,,,,,,,,,,,,,,,,,,,,12,0,12,0,0,3,3,3,,,,,,,,space,0.486987829208,,,,2017_Feb_02_1247,59.1173353179,spr_backupper,001,Mi13,
,wurden,Packung,sind,alten,dem,auf,Farbe,man,ich,schmutziger,ich,dauerhaftem,Farbe,bekannten,dank,Büschel,vierte,ein,wir,sprudelndes,Stadt,bekannten,Neuwahlen,landen,"üblichem,",immer,solch,auf,obschon,"regelmäßigem,",viel,bei,Blut,Fahrer,schönen,sind,mit,solchen,man,einen,die,"wertvollem,",richtige,ausreichendem,"Delikte,",Fahrer,den,man,aus,Stadt,"reichlichem,",ich,"Japan,",immer,"sämtlichem,",landen,die,Wohnung,Stimmung,Bluts,mit,"nicht,",warmem,Kilowattstunden,Büschel,sprudelnden,schönen,alten,nicht,uns,Kilowattstunden,die,ich,den,Packung,man,"Delikte,",mit,jetzt,36,"minimalem,",viel,schmutzige,das,bei,aus,Wohnung,schon,wurden,36,dauerte,"trug,",ein,obwohl,war,gelegentlich,wir,mit,,,,,,,,,,,,,,,,,,,,,,,12,0,12,0,0,4,4,4,,,,,,,,space,0.502987146378,,,,2017_Feb_02_1247,59.1173353179,spr_backupper,001,Mi13,
,serviert.,salziger,auf,Kram,Mann,noch,geschleudert.,eine,leider,Wäsche.,mehr,feinem,geschleudert.,Skandal,täglichem,frischen,Bundespräsident.,Glas,um,Trinkwasser.,liegen,Skandals,vor,im,harten,350,unzureichenden,noch,sie,kaltem,Lärm,minimalem,hat,wurden,Wetter,auf,einem,unzureichenden,der,gelegentlichen,Störenfriede,klassischen,"Zeit,",monatlichem,derer,wurden,roten,eine,feinem,liegen,purem,leider,die,350,künftigem,im,Störenfriede,des,ziemlich,hat,"reichem,",was,weichem,elektrische,frisches,Trinkwassers.,Wetters,Krams,am,die,elektrischer,Tiere,mehr,roten,salzige,den,deren,einem,"nachgewiesen,",würden,sauberen,Lärm,Wäsche.,Auto,"frischem,",seltenem,des,immer,serviert.,hätten,ungefähr,war,Glas,sie,die,einen,von,zusätzlichem,,,,,,,,,,,,,,,,,,,,,,,12,0,12,0,0,5,5,5,,,,,,,,space,0.47577214241,,,,2017_Feb_02_1247,59.1173353179,spr_backupper,001,Mi13,
,nan,Wurst,jeden,aus,mehr,eine,nan,große,nichts,nan,als,Kunsteis,nan,wiedergewählt.,grünen,Grases,nan,köstlicher,die,nan,die,wiedergewählt.,Dezember,Müll.,Schaumstoff,ml,Helmen,eine,defekt,Abduschen,um,täglichen,den,verschrottet.,die,jeden,Esslöffel,Helmen,Soldaten,Besucher.,jeden.,Schmuck,um,Taschengeld,sie,verschrottet.,Planeten,große,dichten,die,Alkohol,nichts,er,ml,Einkommen,Müll.,jeden.,Herrn,"vermiest,",den,goldenen,Tupperware,Untergrund,Energie.,Gras,nan,die,aus,Hauptbahnhof.,Stimmung,Energie.,artgerecht,als,Planet,Wurst,Soldaten,sie,Esslöffel,dass,seiner,Kraftstoff,um,nan,mehr,kaltem,dichten,Herrn,ruhig,nan,seiner,drei,aus,köstlichen,defekt,Flut,Besucher.,den,schwarzem,,,,,,,,,,,,,,,,,,,,,,,12,0,12,0,0,6,6,6,,,,,,,,space,0.431506872177,,,,2017_Feb_02_1247,59.1173353179,spr_backupper,001,Mi13,
,nan,mit,Fall,dem,als,Sammlung,nan,Menge,mitbringen.,nan,einmal,eingesprüht.,nan,nan,Tee,zwängen.,nan,Wein,Probleme,nan,Slums.,nan,stattfinden.,nan,gefertigt.,warme,zur,Sammlung,war.,gehärtet.,jede,Einsatz,Boden,nan,Wohnung.,Fall,warmem,zur,des,nan,nan,umgearbeitet.,Nadelhölzer,selber,überführt,nan,ganz,Menge,Stoff,Slums.,verdünnt.,mitbringen.,trug.,warmer,haftbar.,nan,nan,Gantenbeins.,dass,Boden,Besatz,ist.,liegen.,nan,zwängen.,nan,Wohnung.,dem,nan,ziemlich,nan,gehalten.,einmal,ganz,mit,des,überführt,warmen,das,Frau,fahren.,jede,nan,als,Saft,Gewebe,Gantenbein.,diskutiert.,nan,Frau,Tage.,Japan.,Weins,war.,zurückgekehrt.,nan,Problemen,Kaffee,,,,,,,,,,,,,,,,,,,,,,,12,0,12,0,0,7,7,7,,,,,,,,space,1.30827212334,,,,2017_Feb_02_1247,59.1173353179,spr_backupper,001,Mi13,
,,,,,,,,,,,,,,,,,,,,,,,,,,,,,,,,,,,,,,,,,,,,,,,,,,,,,,,,,,,,,,,,,,,,,,,,,,,,,,,,,,,,,,,,,,,,,,,,,,,,,,,,,,,,,,,,,,,,,,,,,12,0,12,0,,,,,,,,,,,,,,None,j,3.89121985435,2017_Feb_02_1247,59.1173353179,spr_backupper,001,Mi13,
,Beträchtliche,Ich,100,Wir,Wir,Sie,Es,Mit,Außer,Dort,In,Die,Es,Er,Ich,Wir,Walter,Bei,In,Sie,Am,Er,Unter,Viele,Alle,In,Die,Sie,Die,Die,Man,Ihr,Nicht,Die,Sie,100,Er,Die,Bei,Wir,Außer,Die,Jetzt,Jugendliche,Es,Die,Im,Mit,Er,Am,Die,Außer,Die,In,Manche,Viele,Außer,Die,Es,Nicht,Das,Die,Jungtiere,Die,Wir,Sie,Sie,Wir,Die,Dass,Die,In,In,Im,Ich,Bei,Es,Er,In,Die,Wir,Man,Dort,Wir,Sie,Danach,Die,Fernab,Beträchtliche,Die,Der,Die,Bei,Die,Als,Wir,In,Die,,,,,,,,,,,,,,,,,,,,,,,13,0,13,0,0,0,0,0,,,,,,space,1.39280200005,space,0.570129156113,,,,2017_Feb_02_1247,59.1173353179,spr_backupper,001,Mi13,
,Stücke,nehme,g,haben,übergaben,hatte,wurden,dieser,dem,türmen,meinem,Eislaufbahnen,wurden,wurde,wurde,mussten,Scheel,unserer,der,verbrauchen,äußersten,wurde,keinen,Tonnen,Betten,den,Kinder,hatte,Uhr,Formen,machte,Blutdruck,ein,Autos,verlassen,g,stellt,Kinder,der,hatten,den,Stücke,ist,können,waren,Autos,Fernrohr,dieser,hat,äußeren,Lösung,das,Uhr,den,Kreditnehmer,Tonnen,dem,Gäste,hat,ein,Tuch,Teilnehmerinnen,sollten,Schule,mussten,verbrauchen,verlassen,haben,Linie,es,Schule,diesem,meinem,Fernrohr,nehme,der,waren,stellt,einer,Schuhe,konnten,machte,türmen,übergaben,haben,wurde,Gäste,des,Stücke,Schuhe,Flug,"Uhr,",unserer,Uhr,die,hatten,der,müden,,,,,,,,,,,,,,,,,,,,,,,13,0,13,0,0,1,1,1,,,,,,,,space,0.671203136444,,,,2017_Feb_02_1247,59.1173353179,spr_backupper,001,Mi13,
,saftiges,eine,brauner,jede,das,keine,Eimer,Methode,Essen,sich,Studium,wurden,Eimer,trotz,damals,uns,war,Ankunft,Tat,60,Rand,trotz,Umständen,gebrauchte,wurden,Kakao,fuhren,keine,schlug,wurden,mal,kann,Tropfen,beider,wegen,braunen,die,fuhren,Feier,in,Bürgermeister,wurden,genau,Kleidung,nur,beider,sahen,Methode,ein,Rand,wird,Essen,war,Kakao,sind,gebrauchter,Bürgermeister,suchen,uns,Tropfen,wurde,wussten,immer,verbraucht,uns,60,wegen,jede,101,"regnete,",verbraucht,Zirkus,Studium,sahen,eine,Feier,nur,die,Studie,in,dann,mal,sich,dem,die,die,suchen,Rummels,saftigen,in,zum,die,Ankunft,schlug,Sonne,in,Tat,Teilnehmer,,,,,,,,,,,,,,,,,,,,,,,13,0,13,0,0,2,2,2,,,,,,,,space,0.476801156998,,,,2017_Feb_02_1247,59.1173353179,spr_backupper,001,Mi13,
,Fleisch,große,Zucker,Menge,Auto,Lust,roter,kann,kann,Berge,habe,mit,rote,dem,schnell,durch,der,stand,wissen,Liter,der,des,können,Kleidung,mit,gehören,mit,Lust,"sporadisch,",unter,wieder,schon,königliches,beteiligter,dem,Zuckers,Masse,mit,gedachte,Dänemark,beschuldigten,aus,die,bei,kleinere,beteiligten,wir,kann,Hemd,der,mit,kann,aus,gehören,mit,Kleidung,beschuldigten,die,die,königlichen,dann,überwiegend,auf,260.000,durch,Liter,des,Menge,hält,hat,260.000,werden,las,wir,große,gedachte,kleinere,Masse,wurde,Größe,mit,wieder,Berge,Mann,Erlebnisse,Leinwand,die,wurde,Fleischs,Größe,Mond,er,stand,"sporadisch,","unterging,",Dänemark,wissen,wurden,,,,,,,,,,,,,,,,,,,,,,,13,0,13,0,0,3,3,3,,,,,,,,space,0.527397871017,,,,2017_Feb_02_1247,59.1173353179,spr_backupper,001,Mi13,
,wurden,Packung,sind,alten,dem,auf,Farbe,man,ich,schmutziger,ich,dauerhaftem,Farbe,bekannten,dank,Büschel,vierte,ein,wir,sprudelndes,Stadt,bekannten,Neuwahlen,landen,"üblichem,",immer,solch,auf,obschon,"regelmäßigem,",viel,bei,Blut,Fahrer,schönen,sind,mit,solchen,man,einen,die,"wertvollem,",richtige,ausreichendem,"Delikte,",Fahrer,den,man,aus,Stadt,"reichlichem,",ich,"Japan,",immer,"sämtlichem,",landen,die,Wohnung,Stimmung,Bluts,mit,"nicht,",warmem,Kilowattstunden,Büschel,sprudelnden,schönen,alten,nicht,uns,Kilowattstunden,die,ich,den,Packung,man,"Delikte,",mit,jetzt,36,"minimalem,",viel,schmutzige,das,bei,aus,Wohnung,schon,wurden,36,dauerte,"trug,",ein,obwohl,war,gelegentlich,wir,mit,,,,,,,,,,,,,,,,,,,,,,,13,0,13,0,0,4,4,4,,,,,,,,space,0.464992046356,,,,2017_Feb_02_1247,59.1173353179,spr_backupper,001,Mi13,
,serviert.,salziger,auf,Kram,Mann,noch,geschleudert.,eine,leider,Wäsche.,mehr,feinem,geschleudert.,Skandal,täglichem,frischen,Bundespräsident.,Glas,um,Trinkwasser.,liegen,Skandals,vor,im,harten,350,unzureichenden,noch,sie,kaltem,Lärm,minimalem,hat,wurden,Wetter,auf,einem,unzureichenden,der,gelegentlichen,Störenfriede,klassischen,"Zeit,",monatlichem,derer,wurden,roten,eine,feinem,liegen,purem,leider,die,350,künftigem,im,Störenfriede,des,ziemlich,hat,"reichem,",was,weichem,elektrische,frisches,Trinkwassers.,Wetters,Krams,am,die,elektrischer,Tiere,mehr,roten,salzige,den,deren,einem,"nachgewiesen,",würden,sauberen,Lärm,Wäsche.,Auto,"frischem,",seltenem,des,immer,serviert.,hätten,ungefähr,war,Glas,sie,die,einen,von,zusätzlichem,,,,,,,,,,,,,,,,,,,,,,,13,0,13,0,0,5,5,5,,,,,,,,space,0.51555109024,,,,2017_Feb_02_1247,59.1173353179,spr_backupper,001,Mi13,
,nan,Wurst,jeden,aus,mehr,eine,nan,große,nichts,nan,als,Kunsteis,nan,wiedergewählt.,grünen,Grases,nan,köstlicher,die,nan,die,wiedergewählt.,Dezember,Müll.,Schaumstoff,ml,Helmen,eine,defekt,Abduschen,um,täglichen,den,verschrottet.,die,jeden,Esslöffel,Helmen,Soldaten,Besucher.,jeden.,Schmuck,um,Taschengeld,sie,verschrottet.,Planeten,große,dichten,die,Alkohol,nichts,er,ml,Einkommen,Müll.,jeden.,Herrn,"vermiest,",den,goldenen,Tupperware,Untergrund,Energie.,Gras,nan,die,aus,Hauptbahnhof.,Stimmung,Energie.,artgerecht,als,Planet,Wurst,Soldaten,sie,Esslöffel,dass,seiner,Kraftstoff,um,nan,mehr,kaltem,dichten,Herrn,ruhig,nan,seiner,drei,aus,köstlichen,defekt,Flut,Besucher.,den,schwarzem,,,,,,,,,,,,,,,,,,,,,,,13,0,13,0,0,6,6,6,,,,,,,,space,0.487194061279,,,,2017_Feb_02_1247,59.1173353179,spr_backupper,001,Mi13,
,nan,mit,Fall,dem,als,Sammlung,nan,Menge,mitbringen.,nan,einmal,eingesprüht.,nan,nan,Tee,zwängen.,nan,Wein,Probleme,nan,Slums.,nan,stattfinden.,nan,gefertigt.,warme,zur,Sammlung,war.,gehärtet.,jede,Einsatz,Boden,nan,Wohnung.,Fall,warmem,zur,des,nan,nan,umgearbeitet.,Nadelhölzer,selber,überführt,nan,ganz,Menge,Stoff,Slums.,verdünnt.,mitbringen.,trug.,warmer,haftbar.,nan,nan,Gantenbeins.,dass,Boden,Besatz,ist.,liegen.,nan,zwängen.,nan,Wohnung.,dem,nan,ziemlich,nan,gehalten.,einmal,ganz,mit,des,überführt,warmen,das,Frau,fahren.,jede,nan,als,Saft,Gewebe,Gantenbein.,diskutiert.,nan,Frau,Tage.,Japan.,Weins,war.,zurückgekehrt.,nan,Problemen,Kaffee,,,,,,,,,,,,,,,,,,,,,,,13,0,13,0,0,7,7,7,,,,,,,,space,0.485042095184,,,,2017_Feb_02_1247,59.1173353179,spr_backupper,001,Mi13,
,nan,an,genug.,Haus,gerne.,dumme,nan,dunkle,nan,nan,Rilke,nan,nan,nan,wieder,nan,nan,schon,im,nan,nan,nan,nan,nan,nan,Milch.,Schule.,dummer,nan,nan,Menge,sinken.,berührt.,nan,nan,genug.,Honig,Schule.,zweiten,nan,nan,nan,umzusetzen.,kaufen.,wurden.,nan,deutlich.,dunkler,gefertigt.,nan,nan,nan,nan,Milch.,nan,nan,nan,nan,es,berührt.,rekonstruiert.,nan,nan,nan,nan,nan,nan,Haus,nan,vermiest.,nan,nan,Rilke.,deutlich.,an,zweiten,wurden.,Honigs,Medikament,gepasst,nan,Menge,nan,gerne.,besprochen.,wiederhergestellt.,nan,nan,nan,gepasst.,nan,nan,schon,nan,nan,nan,im,wiederbelebt.,,,,,,,,,,,,,,,,,,,,,,,13,0,13,0,0,8,8,8,,,,,,,,space,0.43263220787,,,,2017_Feb_02_1247,59.1173353179,spr_backupper,001,Mi13,
,nan,den,nan,geschafft.,nan,Sprüche.,nan,Materie,nan,nan,gelesen.,nan,nan,nan,fit.,nan,nan,auf,Landkreis.,nan,nan,nan,nan,nan,nan,nan,nan,Sprüche.,nan,nan,heiße,nan,nan,nan,nan,nan,her.,nan,Weltkriegs.,nan,nan,nan,nan,nan,nan,nan,nan,Materie,nan,nan,nan,nan,nan,nan,nan,nan,nan,nan,regnete.,nan,nan,nan,nan,nan,nan,nan,nan,geschafft.,nan,nan,nan,nan,nan,nan,den,Weltkriegs.,nan,her.,nicht,haben.,nan,heißer,nan,nan,nan,nan,nan,nan,nan,nan,nan,nan,auf,nan,nan,nan,Landkreis.,nan,,,,,,,,,,,,,,,,,,,,,,,13,0,13,0,0,9,9,9,,,,,,,,space,0.484441995621,,,,2017_Feb_02_1247,59.1173353179,spr_backupper,001,Mi13,
,nan,See.,nan,nan,nan,nan,nan,erzeugen.,nan,nan,nan,nan,nan,nan,nan,nan,nan,dem,nan,nan,nan,nan,nan,nan,nan,nan,nan,nan,nan,nan,Luft.,nan,nan,nan,nan,nan,nan,nan,nan,nan,nan,nan,nan,nan,nan,nan,nan,erzeugen.,nan,nan,nan,nan,nan,nan,nan,nan,nan,nan,nan,nan,nan,nan,nan,nan,nan,nan,nan,nan,nan,nan,nan,nan,nan,nan,See.,nan,nan,nan,wirkt.,nan,nan,Luft.,nan,nan,nan,nan,nan,nan,nan,nan,nan,nan,dem,nan,nan,nan,nan,nan,,,,,,,,,,,,,,,,,,,,,,,13,0,13,0,0,10,10,10,,,,,,,,space,0.537683963776,,,,2017_Feb_02_1247,59.1173353179,spr_backupper,001,Mi13,
,,,,,,,,,,,,,,,,,,,,,,,,,,,,,,,,,,,,,,,,,,,,,,,,,,,,,,,,,,,,,,,,,,,,,,,,,,,,,,,,,,,,,,,,,,,,,,,,,,,,,,,,,,,,,,,,,,,,,,,,,13,0,13,0,,,,,,,,,,,,,,None,n,11.0853900909,2017_Feb_02_1247,59.1173353179,spr_backupper,001,Mi13,
,Beträchtliche,Ich,100,Wir,Wir,Sie,Es,Mit,Außer,Dort,In,Die,Es,Er,Ich,Wir,Walter,Bei,In,Sie,Am,Er,Unter,Viele,Alle,In,Die,Sie,Die,Die,Man,Ihr,Nicht,Die,Sie,100,Er,Die,Bei,Wir,Außer,Die,Jetzt,Jugendliche,Es,Die,Im,Mit,Er,Am,Die,Außer,Die,In,Manche,Viele,Außer,Die,Es,Nicht,Das,Die,Jungtiere,Die,Wir,Sie,Sie,Wir,Die,Dass,Die,In,In,Im,Ich,Bei,Es,Er,In,Die,Wir,Man,Dort,Wir,Sie,Danach,Die,Fernab,Beträchtliche,Die,Der,Die,Bei,Die,Als,Wir,In,Die,,,,,,,,,,,,,,,,,,,,,,,14,0,14,0,0,0,0,0,,,,,,space,1.05661988258,space,0.580513954163,,,,2017_Feb_02_1247,59.1173353179,spr_backupper,001,Mi13,
,Stücke,nehme,g,haben,übergaben,hatte,wurden,dieser,dem,türmen,meinem,Eislaufbahnen,wurden,wurde,wurde,mussten,Scheel,unserer,der,verbrauchen,äußersten,wurde,keinen,Tonnen,Betten,den,Kinder,hatte,Uhr,Formen,machte,Blutdruck,ein,Autos,verlassen,g,stellt,Kinder,der,hatten,den,Stücke,ist,können,waren,Autos,Fernrohr,dieser,hat,äußeren,Lösung,das,Uhr,den,Kreditnehmer,Tonnen,dem,Gäste,hat,ein,Tuch,Teilnehmerinnen,sollten,Schule,mussten,verbrauchen,verlassen,haben,Linie,es,Schule,diesem,meinem,Fernrohr,nehme,der,waren,stellt,einer,Schuhe,konnten,machte,türmen,übergaben,haben,wurde,Gäste,des,Stücke,Schuhe,Flug,"Uhr,",unserer,Uhr,die,hatten,der,müden,,,,,,,,,,,,,,,,,,,,,,,14,0,14,0,0,1,1,1,,,,,,,,space,0.475269794464,,,,2017_Feb_02_1247,59.1173353179,spr_backupper,001,Mi13,
