text,sent48,sent9,sent8,sent15,sent3,sent2,sent1,sent14,sent7,sent6,sent5,sent4,sent57,sent56,sent55,sent54,sent53,sent52,sent51,sent50,sent13,sent12,sent11,sent10,sent17,sent16,sent59,sent58,sent93,sent92,sent91,sent90,sent97,sent96,sent95,sent94,sent98,sent22,sent23,sent20,sent21,sent26,sent27,sent24,sent25,sent28,sent29,sent68,sent69,sent66,sent67,sent64,sent65,sent62,sent63,sent60,sent61,sent31,sent30,sent33,sent32,sent35,sent34,sent37,sent36,sent39,sent38,sent79,sent78,sent75,sent74,sent77,sent76,sent71,sent70,sent73,sent72,sent19,sent49,sent18,sent44,sent45,sent84,sent85,sent86,sent87,sent80,sent81,sent82,sent83,sent40,sent41,sent42,sent43,sent88,sent89,sent46,sent47,intros.thisRepN,intros.thisTrialN,intros.thisN,intros.thisIndex,trials.thisRepN,trials.thisTrialN,trials.thisN,trials.thisIndex,testWords.thisRepN,testWords.thisTrialN,testWords.thisN,testWords.thisIndex,test1,test3,test2,test5,test4,test7,test6,test9,test8,test10,realTrials.thisRepN,realTrials.thisTrialN,realTrials.thisN,realTrials.thisIndex,words.thisRepN,words.thisTrialN,words.thisN,words.thisIndex,key_resp_3.keys,key_resp_3.rt,key_resp_8.keys,key_resp_8.rt,key_resp_10.keys,key_resp_10.rt,key_resp_6.keys,key_resp_6.rt,wordRead.keys,wordRead.rt,key_resp_5.keys,questAnswer.keys,questAnswer.rt,key_resp_5.rt,date,frameRate,expName,session,participant,
"Vielen Dank, dass Sie an diesem Experiment teilnehmen. Vor dem eigentlichen Experiment sehen Sie nun zuerst eine kurze Erläuterung, und Sie absolvieren ein kurze Übungsphase.

Das Experiment dauert insgesamt nicht mehr als 45 Minuten.",,,,,,,,,,,,,,,,,,,,,,,,,,,,,,,,,,,,,,,,,,,,,,,,,,,,,,,,,,,,,,,,,,,,,,,,,,,,,,,,,,,,,,,,,,,,,,,,,,,0,0,0,0,,,,,,,,,,,,,,,,,,,,,,,,,,,,,,,,,,,,,,,,,2017_Feb_02_1522,59.3527425659,spr_backupper,001,Mi15,
"In diesem Experiment lesen Sie deutsche Sätze, indem Sie sich von Wort zu Wort mit der Leertaste durch den Satz klicken.",,,,,,,,,,,,,,,,,,,,,,,,,,,,,,,,,,,,,,,,,,,,,,,,,,,,,,,,,,,,,,,,,,,,,,,,,,,,,,,,,,,,,,,,,,,,,,,,,,,0,1,1,1,,,,,,,,,,,,,,,,,,,,,,,,,,,,,,,,,,,,,,,,,2017_Feb_02_1522,59.3527425659,spr_backupper,001,Mi15,
"Sie sehen dabei immer nur das aktuelle Wort. Die Lesegeschwindigkeit bestimmen Sie vollständig selber. Vor jedem Satz sehen Sie in der Bildschirmmitte für zwei Sekunden ein + an der Stelle, an der dann die Wörter erscheinen.",,,,,,,,,,,,,,,,,,,,,,,,,,,,,,,,,,,,,,,,,,,,,,,,,,,,,,,,,,,,,,,,,,,,,,,,,,,,,,,,,,,,,,,,,,,,,,,,,,,0,2,2,2,,,,,,,,,,,,,,,,,,,,,,,,,,,,,,,,,,,,,,,,,2017_Feb_02_1522,59.3527425659,spr_backupper,001,Mi15,
"Nach jedem Satz wird Ihnen eine Ja/Nein-Verständnisfrage zum zuvor gelesenen Satz gestellt, die Sie mit der J-Taste für "Ja" und der N-Taste für "Nein" beantworten. Antworten Sie möglichst spontan und ohne lange Nachzudenken.",,,,,,,,,,,,,,,,,,,,,,,,,,,,,,,,,,,,,,,,,,,,,,,,,,,,,,,,,,,,,,,,,,,,,,,,,,,,,,,,,,,,,,,,,,,,,,,,,,,0,3,3,3,,,,,,,,,,,,,,,,,,,,,,,,,,,,,,,,,,,,,,,,,2017_Feb_02_1522,59.3527425659,spr_backupper,001,Mi15,
"Unterbrechen Sie das Experiment bitte auf keinen Fall, stellen Sie den ExperimentatorInnen nach dem Experimentbeginn keine Fragen, und lassen Sie sich nicht durch Umgebungsgeräusche ablenken.",,,,,,,,,,,,,,,,,,,,,,,,,,,,,,,,,,,,,,,,,,,,,,,,,,,,,,,,,,,,,,,,,,,,,,,,,,,,,,,,,,,,,,,,,,,,,,,,,,,0,4,4,4,,,,,,,,,,,,,,,,,,,,,,,,,,,,,,,,,,,,,,,,,2017_Feb_02_1522,59.3527425659,spr_backupper,001,Mi15,
"Im nächsten Schritt beantworten Sie bitte eine Frage zu Ihren Deutschkenntnissen. Danach beginnt eine Übungseinheit, mit der Sie sich an die Art der Durchführung dieses Experiments gewöhnen können.",,,,,,,,,,,,,,,,,,,,,,,,,,,,,,,,,,,,,,,,,,,,,,,,,,,,,,,,,,,,,,,,,,,,,,,,,,,,,,,,,,,,,,,,,,,,,,,,,,,0,5,5,5,,,,,,,,,,,,,,,,,,,,,,,,,,,,,,,,,,,,,,,,,2017_Feb_02_1522,59.3527425659,spr_backupper,001,Mi15,
,,,,,,,,,,,,,,,,,,,,,,,,,,,,,,,,,,,,,,,,,,,,,,,,,,,,,,,,,,,,,,,,,,,,,,,,,,,,,,,,,,,,,,,,,,,,,,,,,,,,,,,,,,,,,,,,,,,,,,,,,,,,,,,,,j,8.25015902519,,,,,,,,,,,,,2017_Feb_02_1522,59.3527425659,spr_backupper,001,Mi15,
,,,,,,,,,,,,,,,,,,,,,,,,,,,,,,,,,,,,,,,,,,,,,,,,,,,,,,,,,,,,,,,,,,,,,,,,,,,,,,,,,,,,,,,,,,,,,,,,,,,,,,,0,0,0,0,,,,,,,,,,,,,,,,,,,,,,,,,None,,,,,,,,,,,,2017_Feb_02_1522,59.3527425659,spr_backupper,001,Mi15,
,,,,,,,,,,,,,,,,,,,,,,,,,,,,,,,,,,,,,,,,,,,,,,,,,,,,,,,,,,,,,,,,,,,,,,,,,,,,,,,,,,,,,,,,,,,,,,,,,,,,,,,1,0,1,0,,,,,,,,,,,,,,,,,,,,,,,,,space,1.09164905548,,,,,,,,,,,2017_Feb_02_1522,59.3527425659,spr_backupper,001,Mi15,
,,,,,,,,,,,,,,,,,,,,,,,,,,,,,,,,,,,,,,,,,,,,,,,,,,,,,,,,,,,,,,,,,,,,,,,,,,,,,,,,,,,,,,,,,,,,,,,,,,,,,,,2,0,2,0,,,,,,,,,,,,,,,,,,,,,,,,,space,0.65452003479,,,,,,,,,,,2017_Feb_02_1522,59.3527425659,spr_backupper,001,Mi15,
,,,,,,,,,,,,,,,,,,,,,,,,,,,,,,,,,,,,,,,,,,,,,,,,,,,,,,,,,,,,,,,,,,,,,,,,,,,,,,,,,,,,,,,,,,,,,,,,,,,,,,,3,0,3,0,,,,,,,,,,,,,,,,,,,,,,,,,None,,,,,,,,,,,,2017_Feb_02_1522,59.3527425659,spr_backupper,001,Mi15,
,,,,,,,,,,,,,,,,,,,,,,,,,,,,,,,,,,,,,,,,,,,,,,,,,,,,,,,,,,,,,,,,,,,,,,,,,,,,,,,,,,,,,,,,,,,,,,,,,,,,,,,4,0,4,0,,,,,,,,,,,,,,,,,,,,,,,,,None,,,,,,,,,,,,2017_Feb_02_1522,59.3527425659,spr_backupper,001,Mi15,
,,,,,,,,,,,,,,,,,,,,,,,,,,,,,,,,,,,,,,,,,,,,,,,,,,,,,,,,,,,,,,,,,,,,,,,,,,,,,,,,,,,,,,,,,,,,,,,,,,,,,,,5,0,5,0,,,,,,,,,,,,,,,,,,,,,,,,,None,,,,,,,,,,,,2017_Feb_02_1522,59.3527425659,spr_backupper,001,Mi15,
,,,,,,,,,,,,,,,,,,,,,,,,,,,,,,,,,,,,,,,,,,,,,,,,,,,,,,,,,,,,,,,,,,,,,,,,,,,,,,,,,,,,,,,,,,,,,,,,,,,,,,,6,0,6,0,,,,,,,,,,,,,,,,,,,,,,,,,None,,,,,,,,,,,,2017_Feb_02_1522,59.3527425659,spr_backupper,001,Mi15,
,,,,,,,,,,,,,,,,,,,,,,,,,,,,,,,,,,,,,,,,,,,,,,,,,,,,,,,,,,,,,,,,,,,,,,,,,,,,,,,,,,,,,,,,,,,,,,,,,,,,,,,7,0,7,0,,,,,,,,,,,,,,,,,,,,,,,,,None,,,,,,,,,,,,2017_Feb_02_1522,59.3527425659,spr_backupper,001,Mi15,
,,,,,,,,,,,,,,,,,,,,,,,,,,,,,,,,,,,,,,,,,,,,,,,,,,,,,,,,,,,,,,,,,,,,,,,,,,,,,,,,,,,,,,,,,,,,,,,,,,,,,,,8,0,8,0,,,,,,,,,,,,,,,,,,,,,,,,,space,1.1580119133,,,,,,,,,,,2017_Feb_02_1522,59.3527425659,spr_backupper,001,Mi15,
,,,,,,,,,,,,,,,,,,,,,,,,,,,,,,,,,,,,,,,,,,,,,,,,,,,,,,,,,,,,,,,,,,,,,,,,,,,,,,,,,,,,,,,,,,,,,,,,,,,,,,,9,0,9,0,,,,,,,,,,,,,,,,,,,,,,,,,None,,,,,,,,,,,,2017_Feb_02_1522,59.3527425659,spr_backupper,001,Mi15,
,,,,,,,,,,,,,,,,,,,,,,,,,,,,,,,,,,,,,,,,,,,,,,,,,,,,,,,,,,,,,,,,,,,,,,,,,,,,,,,,,,,,,,,,,,,,,,,,,,,,,,,,,,,,,,,,,,,,,,,,,,,,,,,,,,,,,space,1.97852897644,,,,,,,,,2017_Feb_02_1522,59.3527425659,spr_backupper,001,Mi15,
,Ich,In,Jugendliche,Beträchtliche,100,Es,Das,Nicht,In,Die,Man,Wir,Die,Manche,Außer,Sie,Die,Ich,Bei,Am,Im,Er,Die,Die,Am,Die,Bei,In,Man,Mit,Sie,Ihr,Er,Die,Wir,Wir,Im,Unter,Der,Jetzt,Die,Sie,Jungtiere,Wir,Wir,Die,In,Beträchtliche,In,In,Die,Viele,Wir,Es,In,Dass,Die,Außer,Alle,Er,Mit,Sie,Die,Außer,Es,In,Viele,Es,Ich,Wir,Außer,100,Die,Als,Er,Fernab,Die,Die,Die,Bei,Sie,Es,Er,Nicht,Danach,Sie,Die,Sie,Die,Die,Wir,Dort,Wir,Die,Walter,Dort,Bei,Die,,,,,,,,,,,,,,,,,,,,,,,0,0,0,0,0,0,0,0,,,,,,,space,1.20807790756,space,0.503891944885,,,,,2017_Feb_02_1522,59.3527425659,spr_backupper,001,Mi15,
,nehme,meinem,können,Stücke,g,wurden,Tuch,ein,der,Uhr,machte,haben,Schuhe,Kreditnehmer,dem,verbrauchen,Kinder,wurde,unserer,äußeren,Fernrohr,stellt,müden,Kinder,äußersten,Autos,der,meinem,machte,dieser,verlassen,Blutdruck,hat,Uhr,mussten,haben,Fernrohr,keinen,Flug,ist,Eislaufbahnen,verlassen,sollten,mussten,übergaben,"Uhr,",einer,Stücke,diesem,der,Autos,Tonnen,hatten,wurden,den,es,Schule,dem,Betten,wurde,dieser,verbrauchen,Schule,den,waren,den,Tonnen,waren,nehme,übergaben,das,g,Linie,die,stellt,des,Lösung,Teilnehmerinnen,Schuhe,unserer,hatte,hat,wurde,ein,wurde,haben,Uhr,hatte,Gäste,Formen,hatten,türmen,konnten,Stücke,Scheel,türmen,der,Gäste,,,,,,,,,,,,,,,,,,,,,,,0,0,0,0,0,1,1,1,,,,,,,,,space,0.335319042206,,,,,2017_Feb_02_1522,59.3527425659,spr_backupper,001,Mi15,
,eine,Studium,Kleidung,saftiges,brauner,Eimer,wurde,Tropfen,Tat,schlug,mal,jede,in,sind,Bürgermeister,60,fuhren,damals,Ankunft,Rand,sahen,die,Teilnehmer,fuhren,Rand,beider,Feier,Studium,mal,Methode,wegen,kann,ein,schlug,uns,jede,sahen,Umständen,zum,genau,wurden,wegen,immer,uns,das,die,Studie,saftigen,Zirkus,Tat,beider,gebrauchter,in,Eimer,Kakao,"regnete,",verbraucht,Essen,wurden,trotz,Methode,60,verbraucht,Bürgermeister,nur,Kakao,gebrauchte,nur,eine,dem,Essen,braunen,101,Sonne,die,Rummels,wird,wussten,in,Ankunft,keine,uns,trotz,Tropfen,die,die,war,keine,suchen,wurden,in,sich,dann,wurden,war,sich,Feier,suchen,,,,,,,,,,,,,,,,,,,,,,,0,0,0,0,0,2,2,2,,,,,,,,,space,0.520458936691,,,,,2017_Feb_02_1522,59.3527425659,spr_backupper,001,Mi15,
,große,habe,bei,Fleisch,Zucker,roter,dann,königlichen,wissen,"sporadisch,",wieder,Menge,Größe,mit,beschuldigten,Liter,mit,schnell,stand,der,wir,Masse,wurden,mit,der,beteiligten,gedachte,las,wieder,kann,dem,schon,Hemd,"sporadisch,",durch,Menge,wir,können,Mond,die,mit,des,auf,durch,Auto,er,wurde,Fleischs,werden,wissen,beteiligter,Kleidung,Dänemark,rote,gehören,hat,260.000,kann,mit,des,kann,Liter,260.000,beschuldigten,kleinere,gehören,Kleidung,kleinere,große,Mann,kann,Zuckers,hält,"unterging,",Masse,wurde,mit,überwiegend,Größe,stand,Lust,die,dem,königliches,Leinwand,Erlebnisse,aus,Lust,die,unter,Dänemark,Berge,mit,aus,der,Berge,gedachte,die,,,,,,,,,,,,,,,,,,,,,,,0,0,0,0,0,3,3,3,,,,,,,,,space,0.370030879974,,,,,2017_Feb_02_1522,59.3527425659,spr_backupper,001,Mi15,
,Packung,ich,ausreichendem,wurden,sind,Farbe,mit,Bluts,wir,obwohl,viel,alten,36,"sämtlichem,",die,sprudelndes,solch,dank,ein,Stadt,den,mit,mit,solchen,Stadt,Fahrer,man,ich,viel,man,schönen,bei,aus,obschon,Büschel,alten,den,Neuwahlen,dauerte,richtige,dauerhaftem,schönen,warmem,Büschel,dem,"trug,",jetzt,wurden,die,wir,Fahrer,landen,gelegentlich,Farbe,immer,uns,Kilowattstunden,ich,"üblichem,",bekannten,man,sprudelnden,Kilowattstunden,die,"Delikte,",immer,landen,"Delikte,",Packung,das,ich,sind,nicht,war,mit,schon,"reichlichem,","nicht,",36,ein,auf,Stimmung,bekannten,Blut,aus,bei,"Japan,",auf,Wohnung,"regelmäßigem,",einen,schmutziger,"minimalem,","wertvollem,",vierte,schmutzige,man,Wohnung,,,,,,,,,,,,,,,,,,,,,,,0,0,0,0,0,4,4,4,,,,,,,,,space,0.298541069031,,,,,2017_Feb_02_1522,59.3527425659,spr_backupper,001,Mi15,
,salziger,mehr,monatlichem,serviert.,auf,geschleudert.,"reichem,",hat,von,sie,Lärm,Kram,hätten,künftigem,Störenfriede,Trinkwasser.,unzureichenden,täglichem,Glas,liegen,roten,einem,zusätzlichem,unzureichenden,liegen,wurden,den,mehr,Lärm,eine,Wetter,minimalem,feinem,sie,frischen,Krams,roten,vor,ungefähr,"Zeit,",feinem,Wetters,weichem,frisches,Mann,war,"nachgewiesen,",serviert.,Tiere,um,wurden,im,einen,geschleudert.,350,die,elektrischer,leider,harten,Skandals,eine,Trinkwassers.,elektrische,Störenfriede,derer,350,im,deren,salzige,Auto,leider,auf,am,die,einem,immer,purem,was,würden,Glas,noch,ziemlich,Skandal,hat,seltenem,"frischem,",die,noch,des,kaltem,gelegentlichen,Wäsche.,sauberen,klassischen,Bundespräsident.,Wäsche.,der,des,,,,,,,,,,,,,,,,,,,,,,,0,0,0,0,0,5,5,5,,,,,,,,,space,0.358182907104,,,,,2017_Feb_02_1522,59.3527425659,spr_backupper,001,Mi15,
,Wurst,als,Taschengeld,nan,jeden,nan,goldenen,den,den,defekt,um,aus,seiner,Einkommen,jeden.,nan,Helmen,grünen,köstlicher,die,Planeten,Esslöffel,schwarzem,Helmen,die,verschrottet.,Soldaten,als,um,große,die,täglichen,dichten,defekt,Grases,aus,Planet,Dezember,drei,um,Kunsteis,die,Untergrund,Gras,mehr,aus,dass,nan,artgerecht,die,verschrottet.,Müll.,Besucher.,nan,ml,Stimmung,Energie.,nichts,Schaumstoff,wiedergewählt.,große,nan,Energie.,jeden.,sie,ml,Müll.,sie,Wurst,mehr,nichts,jeden,Hauptbahnhof.,Flut,Esslöffel,ruhig,Alkohol,Tupperware,seiner,köstlichen,eine,"vermiest,",wiedergewählt.,den,dichten,kaltem,er,eine,Herrn,Abduschen,Besucher.,nan,Kraftstoff,Schmuck,nan,nan,Soldaten,Herrn,,,,,,,,,,,,,,,,,,,,,,,0,0,0,0,0,6,6,6,,,,,,,,,space,0.352771997452,,,,,2017_Feb_02_1522,59.3527425659,spr_backupper,001,Mi15,
,mit,einmal,selber,nan,Fall,nan,Besatz,Boden,Problemen,war.,jede,dem,Frau,haftbar.,nan,nan,zur,Tee,Wein,Slums.,ganz,warmen,Kaffee,zur,Slums.,nan,des,einmal,jede,Menge,Wohnung.,Einsatz,Stoff,war.,zwängen.,dem,ganz,stattfinden.,Tage.,Nadelhölzer,eingesprüht.,Wohnung.,liegen.,zwängen.,als,Japan.,das,nan,gehalten.,Probleme,nan,nan,nan,nan,warmer,ziemlich,nan,mitbringen.,gefertigt.,nan,Menge,nan,nan,nan,überführt,warme,nan,überführt,mit,als,mitbringen.,Fall,nan,zurückgekehrt.,warmem,diskutiert.,verdünnt.,ist.,Frau,Weins,Sammlung,dass,nan,Boden,Gewebe,Saft,trug.,Sammlung,Gantenbein.,gehärtet.,nan,nan,fahren.,umgearbeitet.,nan,nan,des,Gantenbeins.,,,,,,,,,,,,,,,,,,,,,,,0,0,0,0,0,7,7,7,,,,,,,,,space,0.419981956482,,,,,2017_Feb_02_1522,59.3527425659,spr_backupper,001,Mi15,
,an,Rilke,kaufen.,nan,genug.,nan,rekonstruiert.,berührt.,im,nan,Menge,Haus,gepasst.,nan,nan,nan,Schule.,wieder,schon,nan,deutlich.,Honigs,wiederbelebt.,Schule.,nan,nan,zweiten,Rilke.,Menge,dunkler,nan,sinken.,gefertigt.,nan,nan,Haus,deutlich.,nan,nan,umzusetzen.,nan,nan,nan,nan,gerne.,nan,Medikament,nan,nan,im,nan,nan,nan,nan,Milch.,vermiest.,nan,nan,nan,nan,dunkle,nan,nan,nan,wurden.,Milch.,nan,wurden.,an,gerne.,nan,genug.,nan,nan,Honig,nan,nan,nan,gepasst,schon,dumme,es,nan,berührt.,wiederhergestellt.,besprochen.,nan,dummer,nan,nan,nan,nan,nan,nan,nan,nan,zweiten,nan,,,,,,,,,,,,,,,,,,,,,,,0,0,0,0,0,8,8,8,,,,,,,,,space,0.339081048965,,,,,2017_Feb_02_1522,59.3527425659,spr_backupper,001,Mi15,
,,,,,,,,,,,,,,,,,,,,,,,,,,,,,,,,,,,,,,,,,,,,,,,,,,,,,,,,,,,,,,,,,,,,,,,,,,,,,,,,,,,,,,,,,,,,,,,,,,,,,,,,,,,,,,,,,,,,,,,,,0,0,0,0,,,,,,,,,,,,,,,None,j,2.68323802948,,2017_Feb_02_1522,59.3527425659,spr_backupper,001,Mi15,
,Ich,In,Jugendliche,Beträchtliche,100,Es,Das,Nicht,In,Die,Man,Wir,Die,Manche,Außer,Sie,Die,Ich,Bei,Am,Im,Er,Die,Die,Am,Die,Bei,In,Man,Mit,Sie,Ihr,Er,Die,Wir,Wir,Im,Unter,Der,Jetzt,Die,Sie,Jungtiere,Wir,Wir,Die,In,Beträchtliche,In,In,Die,Viele,Wir,Es,In,Dass,Die,Außer,Alle,Er,Mit,Sie,Die,Außer,Es,In,Viele,Es,Ich,Wir,Außer,100,Die,Als,Er,Fernab,Die,Die,Die,Bei,Sie,Es,Er,Nicht,Danach,Sie,Die,Sie,Die,Die,Wir,Dort,Wir,Die,Walter,Dort,Bei,Die,,,,,,,,,,,,,,,,,,,,,,,1,0,1,0,0,0,0,0,,,,,,,space,0.721474170685,space,0.436210870743,,,,,2017_Feb_02_1522,59.3527425659,spr_backupper,001,Mi15,
,nehme,meinem,können,Stücke,g,wurden,Tuch,ein,der,Uhr,machte,haben,Schuhe,Kreditnehmer,dem,verbrauchen,Kinder,wurde,unserer,äußeren,Fernrohr,stellt,müden,Kinder,äußersten,Autos,der,meinem,machte,dieser,verlassen,Blutdruck,hat,Uhr,mussten,haben,Fernrohr,keinen,Flug,ist,Eislaufbahnen,verlassen,sollten,mussten,übergaben,"Uhr,",einer,Stücke,diesem,der,Autos,Tonnen,hatten,wurden,den,es,Schule,dem,Betten,wurde,dieser,verbrauchen,Schule,den,waren,den,Tonnen,waren,nehme,übergaben,das,g,Linie,die,stellt,des,Lösung,Teilnehmerinnen,Schuhe,unserer,hatte,hat,wurde,ein,wurde,haben,Uhr,hatte,Gäste,Formen,hatten,türmen,konnten,Stücke,Scheel,türmen,der,Gäste,,,,,,,,,,,,,,,,,,,,,,,1,0,1,0,0,1,1,1,,,,,,,,,space,0.261912107468,,,,,2017_Feb_02_1522,59.3527425659,spr_backupper,001,Mi15,
,eine,Studium,Kleidung,saftiges,brauner,Eimer,wurde,Tropfen,Tat,schlug,mal,jede,in,sind,Bürgermeister,60,fuhren,damals,Ankunft,Rand,sahen,die,Teilnehmer,fuhren,Rand,beider,Feier,Studium,mal,Methode,wegen,kann,ein,schlug,uns,jede,sahen,Umständen,zum,genau,wurden,wegen,immer,uns,das,die,Studie,saftigen,Zirkus,Tat,beider,gebrauchter,in,Eimer,Kakao,"regnete,",verbraucht,Essen,wurden,trotz,Methode,60,verbraucht,Bürgermeister,nur,Kakao,gebrauchte,nur,eine,dem,Essen,braunen,101,Sonne,die,Rummels,wird,wussten,in,Ankunft,keine,uns,trotz,Tropfen,die,die,war,keine,suchen,wurden,in,sich,dann,wurden,war,sich,Feier,suchen,,,,,,,,,,,,,,,,,,,,,,,1,0,1,0,0,2,2,2,,,,,,,,,space,0.326195001602,,,,,2017_Feb_02_1522,59.3527425659,spr_backupper,001,Mi15,
,große,habe,bei,Fleisch,Zucker,roter,dann,königlichen,wissen,"sporadisch,",wieder,Menge,Größe,mit,beschuldigten,Liter,mit,schnell,stand,der,wir,Masse,wurden,mit,der,beteiligten,gedachte,las,wieder,kann,dem,schon,Hemd,"sporadisch,",durch,Menge,wir,können,Mond,die,mit,des,auf,durch,Auto,er,wurde,Fleischs,werden,wissen,beteiligter,Kleidung,Dänemark,rote,gehören,hat,260.000,kann,mit,des,kann,Liter,260.000,beschuldigten,kleinere,gehören,Kleidung,kleinere,große,Mann,kann,Zuckers,hält,"unterging,",Masse,wurde,mit,überwiegend,Größe,stand,Lust,die,dem,königliches,Leinwand,Erlebnisse,aus,Lust,die,unter,Dänemark,Berge,mit,aus,der,Berge,gedachte,die,,,,,,,,,,,,,,,,,,,,,,,1,0,1,0,0,3,3,3,,,,,,,,,space,0.303564071655,,,,,2017_Feb_02_1522,59.3527425659,spr_backupper,001,Mi15,
,Packung,ich,ausreichendem,wurden,sind,Farbe,mit,Bluts,wir,obwohl,viel,alten,36,"sämtlichem,",die,sprudelndes,solch,dank,ein,Stadt,den,mit,mit,solchen,Stadt,Fahrer,man,ich,viel,man,schönen,bei,aus,obschon,Büschel,alten,den,Neuwahlen,dauerte,richtige,dauerhaftem,schönen,warmem,Büschel,dem,"trug,",jetzt,wurden,die,wir,Fahrer,landen,gelegentlich,Farbe,immer,uns,Kilowattstunden,ich,"üblichem,",bekannten,man,sprudelnden,Kilowattstunden,die,"Delikte,",immer,landen,"Delikte,",Packung,das,ich,sind,nicht,war,mit,schon,"reichlichem,","nicht,",36,ein,auf,Stimmung,bekannten,Blut,aus,bei,"Japan,",auf,Wohnung,"regelmäßigem,",einen,schmutziger,"minimalem,","wertvollem,",vierte,schmutzige,man,Wohnung,,,,,,,,,,,,,,,,,,,,,,,1,0,1,0,0,4,4,4,,,,,,,,,space,0.307816028595,,,,,2017_Feb_02_1522,59.3527425659,spr_backupper,001,Mi15,
,salziger,mehr,monatlichem,serviert.,auf,geschleudert.,"reichem,",hat,von,sie,Lärm,Kram,hätten,künftigem,Störenfriede,Trinkwasser.,unzureichenden,täglichem,Glas,liegen,roten,einem,zusätzlichem,unzureichenden,liegen,wurden,den,mehr,Lärm,eine,Wetter,minimalem,feinem,sie,frischen,Krams,roten,vor,ungefähr,"Zeit,",feinem,Wetters,weichem,frisches,Mann,war,"nachgewiesen,",serviert.,Tiere,um,wurden,im,einen,geschleudert.,350,die,elektrischer,leider,harten,Skandals,eine,Trinkwassers.,elektrische,Störenfriede,derer,350,im,deren,salzige,Auto,leider,auf,am,die,einem,immer,purem,was,würden,Glas,noch,ziemlich,Skandal,hat,seltenem,"frischem,",die,noch,des,kaltem,gelegentlichen,Wäsche.,sauberen,klassischen,Bundespräsident.,Wäsche.,der,des,,,,,,,,,,,,,,,,,,,,,,,1,0,1,0,0,5,5,5,,,,,,,,,space,0.362762928009,,,,,2017_Feb_02_1522,59.3527425659,spr_backupper,001,Mi15,
,,,,,,,,,,,,,,,,,,,,,,,,,,,,,,,,,,,,,,,,,,,,,,,,,,,,,,,,,,,,,,,,,,,,,,,,,,,,,,,,,,,,,,,,,,,,,,,,,,,,,,,,,,,,,,,,,,,,,,,,,1,0,1,0,,,,,,,,,,,,,,,None,n,3.94127488136,,2017_Feb_02_1522,59.3527425659,spr_backupper,001,Mi15,
,Ich,In,Jugendliche,Beträchtliche,100,Es,Das,Nicht,In,Die,Man,Wir,Die,Manche,Außer,Sie,Die,Ich,Bei,Am,Im,Er,Die,Die,Am,Die,Bei,In,Man,Mit,Sie,Ihr,Er,Die,Wir,Wir,Im,Unter,Der,Jetzt,Die,Sie,Jungtiere,Wir,Wir,Die,In,Beträchtliche,In,In,Die,Viele,Wir,Es,In,Dass,Die,Außer,Alle,Er,Mit,Sie,Die,Außer,Es,In,Viele,Es,Ich,Wir,Außer,100,Die,Als,Er,Fernab,Die,Die,Die,Bei,Sie,Es,Er,Nicht,Danach,Sie,Die,Sie,Die,Die,Wir,Dort,Wir,Die,Walter,Dort,Bei,Die,,,,,,,,,,,,,,,,,,,,,,,2,0,2,0,0,0,0,0,,,,,,,space,0.637176036835,space,0.46629691124,,,,,2017_Feb_02_1522,59.3527425659,spr_backupper,001,Mi15,
,nehme,meinem,können,Stücke,g,wurden,Tuch,ein,der,Uhr,machte,haben,Schuhe,Kreditnehmer,dem,verbrauchen,Kinder,wurde,unserer,äußeren,Fernrohr,stellt,müden,Kinder,äußersten,Autos,der,meinem,machte,dieser,verlassen,Blutdruck,hat,Uhr,mussten,haben,Fernrohr,keinen,Flug,ist,Eislaufbahnen,verlassen,sollten,mussten,übergaben,"Uhr,",einer,Stücke,diesem,der,Autos,Tonnen,hatten,wurden,den,es,Schule,dem,Betten,wurde,dieser,verbrauchen,Schule,den,waren,den,Tonnen,waren,nehme,übergaben,das,g,Linie,die,stellt,des,Lösung,Teilnehmerinnen,Schuhe,unserer,hatte,hat,wurde,ein,wurde,haben,Uhr,hatte,Gäste,Formen,hatten,türmen,konnten,Stücke,Scheel,türmen,der,Gäste,,,,,,,,,,,,,,,,,,,,,,,2,0,2,0,0,1,1,1,,,,,,,,,space,0.670936107635,,,,,2017_Feb_02_1522,59.3527425659,spr_backupper,001,Mi15,
,eine,Studium,Kleidung,saftiges,brauner,Eimer,wurde,Tropfen,Tat,schlug,mal,jede,in,sind,Bürgermeister,60,fuhren,damals,Ankunft,Rand,sahen,die,Teilnehmer,fuhren,Rand,beider,Feier,Studium,mal,Methode,wegen,kann,ein,schlug,uns,jede,sahen,Umständen,zum,genau,wurden,wegen,immer,uns,das,die,Studie,saftigen,Zirkus,Tat,beider,gebrauchter,in,Eimer,Kakao,"regnete,",verbraucht,Essen,wurden,trotz,Methode,60,verbraucht,Bürgermeister,nur,Kakao,gebrauchte,nur,eine,dem,Essen,braunen,101,Sonne,die,Rummels,wird,wussten,in,Ankunft,keine,uns,trotz,Tropfen,die,die,war,keine,suchen,wurden,in,sich,dann,wurden,war,sich,Feier,suchen,,,,,,,,,,,,,,,,,,,,,,,2,0,2,0,0,2,2,2,,,,,,,,,space,0.340531110764,,,,,2017_Feb_02_1522,59.3527425659,spr_backupper,001,Mi15,
,große,habe,bei,Fleisch,Zucker,roter,dann,königlichen,wissen,"sporadisch,",wieder,Menge,Größe,mit,beschuldigten,Liter,mit,schnell,stand,der,wir,Masse,wurden,mit,der,beteiligten,gedachte,las,wieder,kann,dem,schon,Hemd,"sporadisch,",durch,Menge,wir,können,Mond,die,mit,des,auf,durch,Auto,er,wurde,Fleischs,werden,wissen,beteiligter,Kleidung,Dänemark,rote,gehören,hat,260.000,kann,mit,des,kann,Liter,260.000,beschuldigten,kleinere,gehören,Kleidung,kleinere,große,Mann,kann,Zuckers,hält,"unterging,",Masse,wurde,mit,überwiegend,Größe,stand,Lust,die,dem,königliches,Leinwand,Erlebnisse,aus,Lust,die,unter,Dänemark,Berge,mit,aus,der,Berge,gedachte,die,,,,,,,,,,,,,,,,,,,,,,,2,0,2,0,0,3,3,3,,,,,,,,,space,0.249770879745,,,,,2017_Feb_02_1522,59.3527425659,spr_backupper,001,Mi15,
,Packung,ich,ausreichendem,wurden,sind,Farbe,mit,Bluts,wir,obwohl,viel,alten,36,"sämtlichem,",die,sprudelndes,solch,dank,ein,Stadt,den,mit,mit,solchen,Stadt,Fahrer,man,ich,viel,man,schönen,bei,aus,obschon,Büschel,alten,den,Neuwahlen,dauerte,richtige,dauerhaftem,schönen,warmem,Büschel,dem,"trug,",jetzt,wurden,die,wir,Fahrer,landen,gelegentlich,Farbe,immer,uns,Kilowattstunden,ich,"üblichem,",bekannten,man,sprudelnden,Kilowattstunden,die,"Delikte,",immer,landen,"Delikte,",Packung,das,ich,sind,nicht,war,mit,schon,"reichlichem,","nicht,",36,ein,auf,Stimmung,bekannten,Blut,aus,bei,"Japan,",auf,Wohnung,"regelmäßigem,",einen,schmutziger,"minimalem,","wertvollem,",vierte,schmutzige,man,Wohnung,,,,,,,,,,,,,,,,,,,,,,,2,0,2,0,0,4,4,4,,,,,,,,,space,0.352699041367,,,,,2017_Feb_02_1522,59.3527425659,spr_backupper,001,Mi15,
,salziger,mehr,monatlichem,serviert.,auf,geschleudert.,"reichem,",hat,von,sie,Lärm,Kram,hätten,künftigem,Störenfriede,Trinkwasser.,unzureichenden,täglichem,Glas,liegen,roten,einem,zusätzlichem,unzureichenden,liegen,wurden,den,mehr,Lärm,eine,Wetter,minimalem,feinem,sie,frischen,Krams,roten,vor,ungefähr,"Zeit,",feinem,Wetters,weichem,frisches,Mann,war,"nachgewiesen,",serviert.,Tiere,um,wurden,im,einen,geschleudert.,350,die,elektrischer,leider,harten,Skandals,eine,Trinkwassers.,elektrische,Störenfriede,derer,350,im,deren,salzige,Auto,leider,auf,am,die,einem,immer,purem,was,würden,Glas,noch,ziemlich,Skandal,hat,seltenem,"frischem,",die,noch,des,kaltem,gelegentlichen,Wäsche.,sauberen,klassischen,Bundespräsident.,Wäsche.,der,des,,,,,,,,,,,,,,,,,,,,,,,2,0,2,0,0,5,5,5,,,,,,,,,space,0.277176856995,,,,,2017_Feb_02_1522,59.3527425659,spr_backupper,001,Mi15,
,Wurst,als,Taschengeld,nan,jeden,nan,goldenen,den,den,defekt,um,aus,seiner,Einkommen,jeden.,nan,Helmen,grünen,köstlicher,die,Planeten,Esslöffel,schwarzem,Helmen,die,verschrottet.,Soldaten,als,um,große,die,täglichen,dichten,defekt,Grases,aus,Planet,Dezember,drei,um,Kunsteis,die,Untergrund,Gras,mehr,aus,dass,nan,artgerecht,die,verschrottet.,Müll.,Besucher.,nan,ml,Stimmung,Energie.,nichts,Schaumstoff,wiedergewählt.,große,nan,Energie.,jeden.,sie,ml,Müll.,sie,Wurst,mehr,nichts,jeden,Hauptbahnhof.,Flut,Esslöffel,ruhig,Alkohol,Tupperware,seiner,köstlichen,eine,"vermiest,",wiedergewählt.,den,dichten,kaltem,er,eine,Herrn,Abduschen,Besucher.,nan,Kraftstoff,Schmuck,nan,nan,Soldaten,Herrn,,,,,,,,,,,,,,,,,,,,,,,2,0,2,0,0,6,6,6,,,,,,,,,space,0.358707904816,,,,,2017_Feb_02_1522,59.3527425659,spr_backupper,001,Mi15,
,mit,einmal,selber,nan,Fall,nan,Besatz,Boden,Problemen,war.,jede,dem,Frau,haftbar.,nan,nan,zur,Tee,Wein,Slums.,ganz,warmen,Kaffee,zur,Slums.,nan,des,einmal,jede,Menge,Wohnung.,Einsatz,Stoff,war.,zwängen.,dem,ganz,stattfinden.,Tage.,Nadelhölzer,eingesprüht.,Wohnung.,liegen.,zwängen.,als,Japan.,das,nan,gehalten.,Probleme,nan,nan,nan,nan,warmer,ziemlich,nan,mitbringen.,gefertigt.,nan,Menge,nan,nan,nan,überführt,warme,nan,überführt,mit,als,mitbringen.,Fall,nan,zurückgekehrt.,warmem,diskutiert.,verdünnt.,ist.,Frau,Weins,Sammlung,dass,nan,Boden,Gewebe,Saft,trug.,Sammlung,Gantenbein.,gehärtet.,nan,nan,fahren.,umgearbeitet.,nan,nan,des,Gantenbeins.,,,,,,,,,,,,,,,,,,,,,,,2,0,2,0,0,7,7,7,,,,,,,,,space,0.346600055695,,,,,2017_Feb_02_1522,59.3527425659,spr_backupper,001,Mi15,
,an,Rilke,kaufen.,nan,genug.,nan,rekonstruiert.,berührt.,im,nan,Menge,Haus,gepasst.,nan,nan,nan,Schule.,wieder,schon,nan,deutlich.,Honigs,wiederbelebt.,Schule.,nan,nan,zweiten,Rilke.,Menge,dunkler,nan,sinken.,gefertigt.,nan,nan,Haus,deutlich.,nan,nan,umzusetzen.,nan,nan,nan,nan,gerne.,nan,Medikament,nan,nan,im,nan,nan,nan,nan,Milch.,vermiest.,nan,nan,nan,nan,dunkle,nan,nan,nan,wurden.,Milch.,nan,wurden.,an,gerne.,nan,genug.,nan,nan,Honig,nan,nan,nan,gepasst,schon,dumme,es,nan,berührt.,wiederhergestellt.,besprochen.,nan,dummer,nan,nan,nan,nan,nan,nan,nan,nan,zweiten,nan,,,,,,,,,,,,,,,,,,,,,,,2,0,2,0,0,8,8,8,,,,,,,,,space,0.369467020035,,,,,2017_Feb_02_1522,59.3527425659,spr_backupper,001,Mi15,
,,,,,,,,,,,,,,,,,,,,,,,,,,,,,,,,,,,,,,,,,,,,,,,,,,,,,,,,,,,,,,,,,,,,,,,,,,,,,,,,,,,,,,,,,,,,,,,,,,,,,,,,,,,,,,,,,,,,,,,,,2,0,2,0,,,,,,,,,,,,,,,None,n,5.21219396591,,2017_Feb_02_1522,59.3527425659,spr_backupper,001,Mi15,
,Ich,In,Jugendliche,Beträchtliche,100,Es,Das,Nicht,In,Die,Man,Wir,Die,Manche,Außer,Sie,Die,Ich,Bei,Am,Im,Er,Die,Die,Am,Die,Bei,In,Man,Mit,Sie,Ihr,Er,Die,Wir,Wir,Im,Unter,Der,Jetzt,Die,Sie,Jungtiere,Wir,Wir,Die,In,Beträchtliche,In,In,Die,Viele,Wir,Es,In,Dass,Die,Außer,Alle,Er,Mit,Sie,Die,Außer,Es,In,Viele,Es,Ich,Wir,Außer,100,Die,Als,Er,Fernab,Die,Die,Die,Bei,Sie,Es,Er,Nicht,Danach,Sie,Die,Sie,Die,Die,Wir,Dort,Wir,Die,Walter,Dort,Bei,Die,,,,,,,,,,,,,,,,,,,,,,,3,0,3,0,0,0,0,0,,,,,,,space,0.90590596199,space,0.456001996994,,,,,2017_Feb_02_1522,59.3527425659,spr_backupper,001,Mi15,
,nehme,meinem,können,Stücke,g,wurden,Tuch,ein,der,Uhr,machte,haben,Schuhe,Kreditnehmer,dem,verbrauchen,Kinder,wurde,unserer,äußeren,Fernrohr,stellt,müden,Kinder,äußersten,Autos,der,meinem,machte,dieser,verlassen,Blutdruck,hat,Uhr,mussten,haben,Fernrohr,keinen,Flug,ist,Eislaufbahnen,verlassen,sollten,mussten,übergaben,"Uhr,",einer,Stücke,diesem,der,Autos,Tonnen,hatten,wurden,den,es,Schule,dem,Betten,wurde,dieser,verbrauchen,Schule,den,waren,den,Tonnen,waren,nehme,übergaben,das,g,Linie,die,stellt,des,Lösung,Teilnehmerinnen,Schuhe,unserer,hatte,hat,wurde,ein,wurde,haben,Uhr,hatte,Gäste,Formen,hatten,türmen,konnten,Stücke,Scheel,türmen,der,Gäste,,,,,,,,,,,,,,,,,,,,,,,3,0,3,0,0,1,1,1,,,,,,,,,space,0.342116117477,,,,,2017_Feb_02_1522,59.3527425659,spr_backupper,001,Mi15,
,eine,Studium,Kleidung,saftiges,brauner,Eimer,wurde,Tropfen,Tat,schlug,mal,jede,in,sind,Bürgermeister,60,fuhren,damals,Ankunft,Rand,sahen,die,Teilnehmer,fuhren,Rand,beider,Feier,Studium,mal,Methode,wegen,kann,ein,schlug,uns,jede,sahen,Umständen,zum,genau,wurden,wegen,immer,uns,das,die,Studie,saftigen,Zirkus,Tat,beider,gebrauchter,in,Eimer,Kakao,"regnete,",verbraucht,Essen,wurden,trotz,Methode,60,verbraucht,Bürgermeister,nur,Kakao,gebrauchte,nur,eine,dem,Essen,braunen,101,Sonne,die,Rummels,wird,wussten,in,Ankunft,keine,uns,trotz,Tropfen,die,die,war,keine,suchen,wurden,in,sich,dann,wurden,war,sich,Feier,suchen,,,,,,,,,,,,,,,,,,,,,,,3,0,3,0,0,2,2,2,,,,,,,,,space,0.431438922882,,,,,2017_Feb_02_1522,59.3527425659,spr_backupper,001,Mi15,
,große,habe,bei,Fleisch,Zucker,roter,dann,königlichen,wissen,"sporadisch,",wieder,Menge,Größe,mit,beschuldigten,Liter,mit,schnell,stand,der,wir,Masse,wurden,mit,der,beteiligten,gedachte,las,wieder,kann,dem,schon,Hemd,"sporadisch,",durch,Menge,wir,können,Mond,die,mit,des,auf,durch,Auto,er,wurde,Fleischs,werden,wissen,beteiligter,Kleidung,Dänemark,rote,gehören,hat,260.000,kann,mit,des,kann,Liter,260.000,beschuldigten,kleinere,gehören,Kleidung,kleinere,große,Mann,kann,Zuckers,hält,"unterging,",Masse,wurde,mit,überwiegend,Größe,stand,Lust,die,dem,königliches,Leinwand,Erlebnisse,aus,Lust,die,unter,Dänemark,Berge,mit,aus,der,Berge,gedachte,die,,,,,,,,,,,,,,,,,,,,,,,3,0,3,0,0,3,3,3,,,,,,,,,space,0.342069149017,,,,,2017_Feb_02_1522,59.3527425659,spr_backupper,001,Mi15,
,Packung,ich,ausreichendem,wurden,sind,Farbe,mit,Bluts,wir,obwohl,viel,alten,36,"sämtlichem,",die,sprudelndes,solch,dank,ein,Stadt,den,mit,mit,solchen,Stadt,Fahrer,man,ich,viel,man,schönen,bei,aus,obschon,Büschel,alten,den,Neuwahlen,dauerte,richtige,dauerhaftem,schönen,warmem,Büschel,dem,"trug,",jetzt,wurden,die,wir,Fahrer,landen,gelegentlich,Farbe,immer,uns,Kilowattstunden,ich,"üblichem,",bekannten,man,sprudelnden,Kilowattstunden,die,"Delikte,",immer,landen,"Delikte,",Packung,das,ich,sind,nicht,war,mit,schon,"reichlichem,","nicht,",36,ein,auf,Stimmung,bekannten,Blut,aus,bei,"Japan,",auf,Wohnung,"regelmäßigem,",einen,schmutziger,"minimalem,","wertvollem,",vierte,schmutzige,man,Wohnung,,,,,,,,,,,,,,,,,,,,,,,3,0,3,0,0,4,4,4,,,,,,,,,space,0.301212072372,,,,,2017_Feb_02_1522,59.3527425659,spr_backupper,001,Mi15,
,salziger,mehr,monatlichem,serviert.,auf,geschleudert.,"reichem,",hat,von,sie,Lärm,Kram,hätten,künftigem,Störenfriede,Trinkwasser.,unzureichenden,täglichem,Glas,liegen,roten,einem,zusätzlichem,unzureichenden,liegen,wurden,den,mehr,Lärm,eine,Wetter,minimalem,feinem,sie,frischen,Krams,roten,vor,ungefähr,"Zeit,",feinem,Wetters,weichem,frisches,Mann,war,"nachgewiesen,",serviert.,Tiere,um,wurden,im,einen,geschleudert.,350,die,elektrischer,leider,harten,Skandals,eine,Trinkwassers.,elektrische,Störenfriede,derer,350,im,deren,salzige,Auto,leider,auf,am,die,einem,immer,purem,was,würden,Glas,noch,ziemlich,Skandal,hat,seltenem,"frischem,",die,noch,des,kaltem,gelegentlichen,Wäsche.,sauberen,klassischen,Bundespräsident.,Wäsche.,der,des,,,,,,,,,,,,,,,,,,,,,,,3,0,3,0,0,5,5,5,,,,,,,,,space,0.306666135788,,,,,2017_Feb_02_1522,59.3527425659,spr_backupper,001,Mi15,
,Wurst,als,Taschengeld,nan,jeden,nan,goldenen,den,den,defekt,um,aus,seiner,Einkommen,jeden.,nan,Helmen,grünen,köstlicher,die,Planeten,Esslöffel,schwarzem,Helmen,die,verschrottet.,Soldaten,als,um,große,die,täglichen,dichten,defekt,Grases,aus,Planet,Dezember,drei,um,Kunsteis,die,Untergrund,Gras,mehr,aus,dass,nan,artgerecht,die,verschrottet.,Müll.,Besucher.,nan,ml,Stimmung,Energie.,nichts,Schaumstoff,wiedergewählt.,große,nan,Energie.,jeden.,sie,ml,Müll.,sie,Wurst,mehr,nichts,jeden,Hauptbahnhof.,Flut,Esslöffel,ruhig,Alkohol,Tupperware,seiner,köstlichen,eine,"vermiest,",wiedergewählt.,den,dichten,kaltem,er,eine,Herrn,Abduschen,Besucher.,nan,Kraftstoff,Schmuck,nan,nan,Soldaten,Herrn,,,,,,,,,,,,,,,,,,,,,,,3,0,3,0,0,6,6,6,,,,,,,,,space,0.386756896973,,,,,2017_Feb_02_1522,59.3527425659,spr_backupper,001,Mi15,
,mit,einmal,selber,nan,Fall,nan,Besatz,Boden,Problemen,war.,jede,dem,Frau,haftbar.,nan,nan,zur,Tee,Wein,Slums.,ganz,warmen,Kaffee,zur,Slums.,nan,des,einmal,jede,Menge,Wohnung.,Einsatz,Stoff,war.,zwängen.,dem,ganz,stattfinden.,Tage.,Nadelhölzer,eingesprüht.,Wohnung.,liegen.,zwängen.,als,Japan.,das,nan,gehalten.,Probleme,nan,nan,nan,nan,warmer,ziemlich,nan,mitbringen.,gefertigt.,nan,Menge,nan,nan,nan,überführt,warme,nan,überführt,mit,als,mitbringen.,Fall,nan,zurückgekehrt.,warmem,diskutiert.,verdünnt.,ist.,Frau,Weins,Sammlung,dass,nan,Boden,Gewebe,Saft,trug.,Sammlung,Gantenbein.,gehärtet.,nan,nan,fahren.,umgearbeitet.,nan,nan,des,Gantenbeins.,,,,,,,,,,,,,,,,,,,,,,,3,0,3,0,0,7,7,7,,,,,,,,,space,0.363984107971,,,,,2017_Feb_02_1522,59.3527425659,spr_backupper,001,Mi15,
,an,Rilke,kaufen.,nan,genug.,nan,rekonstruiert.,berührt.,im,nan,Menge,Haus,gepasst.,nan,nan,nan,Schule.,wieder,schon,nan,deutlich.,Honigs,wiederbelebt.,Schule.,nan,nan,zweiten,Rilke.,Menge,dunkler,nan,sinken.,gefertigt.,nan,nan,Haus,deutlich.,nan,nan,umzusetzen.,nan,nan,nan,nan,gerne.,nan,Medikament,nan,nan,im,nan,nan,nan,nan,Milch.,vermiest.,nan,nan,nan,nan,dunkle,nan,nan,nan,wurden.,Milch.,nan,wurden.,an,gerne.,nan,genug.,nan,nan,Honig,nan,nan,nan,gepasst,schon,dumme,es,nan,berührt.,wiederhergestellt.,besprochen.,nan,dummer,nan,nan,nan,nan,nan,nan,nan,nan,zweiten,nan,,,,,,,,,,,,,,,,,,,,,,,3,0,3,0,0,8,8,8,,,,,,,,,space,0.31502699852,,,,,2017_Feb_02_1522,59.3527425659,spr_backupper,001,Mi15,
,den,gelesen.,nan,nan,nan,nan,nan,nan,Landkreis.,nan,heißer,geschafft.,nan,nan,nan,nan,nan,fit.,auf,nan,nan,her.,nan,nan,nan,nan,Weltkriegs.,nan,heiße,Materie,nan,nan,nan,nan,nan,geschafft.,nan,nan,nan,nan,nan,nan,nan,nan,nan,nan,nicht,nan,nan,Landkreis.,nan,nan,nan,nan,nan,nan,nan,nan,nan,nan,Materie,nan,nan,nan,nan,nan,nan,nan,den,nan,nan,nan,nan,nan,her.,nan,nan,nan,haben.,auf,Sprüche.,regnete.,nan,nan,nan,nan,nan,Sprüche.,nan,nan,nan,nan,nan,nan,nan,nan,Weltkriegs.,nan,,,,,,,,,,,,,,,,,,,,,,,3,0,3,0,0,9,9,9,,,,,,,,,space,0.426172018051,,,,,2017_Feb_02_1522,59.3527425659,spr_backupper,001,Mi15,
,,,,,,,,,,,,,,,,,,,,,,,,,,,,,,,,,,,,,,,,,,,,,,,,,,,,,,,,,,,,,,,,,,,,,,,,,,,,,,,,,,,,,,,,,,,,,,,,,,,,,,,,,,,,,,,,,,,,,,,,,3,0,3,0,,,,,,,,,,,,,,,None,j,3.9551820755,,2017_Feb_02_1522,59.3527425659,spr_backupper,001,Mi15,
,Ich,In,Jugendliche,Beträchtliche,100,Es,Das,Nicht,In,Die,Man,Wir,Die,Manche,Außer,Sie,Die,Ich,Bei,Am,Im,Er,Die,Die,Am,Die,Bei,In,Man,Mit,Sie,Ihr,Er,Die,Wir,Wir,Im,Unter,Der,Jetzt,Die,Sie,Jungtiere,Wir,Wir,Die,In,Beträchtliche,In,In,Die,Viele,Wir,Es,In,Dass,Die,Außer,Alle,Er,Mit,Sie,Die,Außer,Es,In,Viele,Es,Ich,Wir,Außer,100,Die,Als,Er,Fernab,Die,Die,Die,Bei,Sie,Es,Er,Nicht,Danach,Sie,Die,Sie,Die,Die,Wir,Dort,Wir,Die,Walter,Dort,Bei,Die,,,,,,,,,,,,,,,,,,,,,,,4,0,4,0,0,0,0,0,,,,,,,space,0.821291208267,space,0.314083814621,,,,,2017_Feb_02_1522,59.3527425659,spr_backupper,001,Mi15,
,nehme,meinem,können,Stücke,g,wurden,Tuch,ein,der,Uhr,machte,haben,Schuhe,Kreditnehmer,dem,verbrauchen,Kinder,wurde,unserer,äußeren,Fernrohr,stellt,müden,Kinder,äußersten,Autos,der,meinem,machte,dieser,verlassen,Blutdruck,hat,Uhr,mussten,haben,Fernrohr,keinen,Flug,ist,Eislaufbahnen,verlassen,sollten,mussten,übergaben,"Uhr,",einer,Stücke,diesem,der,Autos,Tonnen,hatten,wurden,den,es,Schule,dem,Betten,wurde,dieser,verbrauchen,Schule,den,waren,den,Tonnen,waren,nehme,übergaben,das,g,Linie,die,stellt,des,Lösung,Teilnehmerinnen,Schuhe,unserer,hatte,hat,wurde,ein,wurde,haben,Uhr,hatte,Gäste,Formen,hatten,türmen,konnten,Stücke,Scheel,türmen,der,Gäste,,,,,,,,,,,,,,,,,,,,,,,4,0,4,0,0,1,1,1,,,,,,,,,space,0.313026189804,,,,,2017_Feb_02_1522,59.3527425659,spr_backupper,001,Mi15,
,eine,Studium,Kleidung,saftiges,brauner,Eimer,wurde,Tropfen,Tat,schlug,mal,jede,in,sind,Bürgermeister,60,fuhren,damals,Ankunft,Rand,sahen,die,Teilnehmer,fuhren,Rand,beider,Feier,Studium,mal,Methode,wegen,kann,ein,schlug,uns,jede,sahen,Umständen,zum,genau,wurden,wegen,immer,uns,das,die,Studie,saftigen,Zirkus,Tat,beider,gebrauchter,in,Eimer,Kakao,"regnete,",verbraucht,Essen,wurden,trotz,Methode,60,verbraucht,Bürgermeister,nur,Kakao,gebrauchte,nur,eine,dem,Essen,braunen,101,Sonne,die,Rummels,wird,wussten,in,Ankunft,keine,uns,trotz,Tropfen,die,die,war,keine,suchen,wurden,in,sich,dann,wurden,war,sich,Feier,suchen,,,,,,,,,,,,,,,,,,,,,,,4,0,4,0,0,2,2,2,,,,,,,,,space,0.285038948059,,,,,2017_Feb_02_1522,59.3527425659,spr_backupper,001,Mi15,
,große,habe,bei,Fleisch,Zucker,roter,dann,königlichen,wissen,"sporadisch,",wieder,Menge,Größe,mit,beschuldigten,Liter,mit,schnell,stand,der,wir,Masse,wurden,mit,der,beteiligten,gedachte,las,wieder,kann,dem,schon,Hemd,"sporadisch,",durch,Menge,wir,können,Mond,die,mit,des,auf,durch,Auto,er,wurde,Fleischs,werden,wissen,beteiligter,Kleidung,Dänemark,rote,gehören,hat,260.000,kann,mit,des,kann,Liter,260.000,beschuldigten,kleinere,gehören,Kleidung,kleinere,große,Mann,kann,Zuckers,hält,"unterging,",Masse,wurde,mit,überwiegend,Größe,stand,Lust,die,dem,königliches,Leinwand,Erlebnisse,aus,Lust,die,unter,Dänemark,Berge,mit,aus,der,Berge,gedachte,die,,,,,,,,,,,,,,,,,,,,,,,4,0,4,0,0,3,3,3,,,,,,,,,space,0.302304029465,,,,,2017_Feb_02_1522,59.3527425659,spr_backupper,001,Mi15,
,Packung,ich,ausreichendem,wurden,sind,Farbe,mit,Bluts,wir,obwohl,viel,alten,36,"sämtlichem,",die,sprudelndes,solch,dank,ein,Stadt,den,mit,mit,solchen,Stadt,Fahrer,man,ich,viel,man,schönen,bei,aus,obschon,Büschel,alten,den,Neuwahlen,dauerte,richtige,dauerhaftem,schönen,warmem,Büschel,dem,"trug,",jetzt,wurden,die,wir,Fahrer,landen,gelegentlich,Farbe,immer,uns,Kilowattstunden,ich,"üblichem,",bekannten,man,sprudelnden,Kilowattstunden,die,"Delikte,",immer,landen,"Delikte,",Packung,das,ich,sind,nicht,war,mit,schon,"reichlichem,","nicht,",36,ein,auf,Stimmung,bekannten,Blut,aus,bei,"Japan,",auf,Wohnung,"regelmäßigem,",einen,schmutziger,"minimalem,","wertvollem,",vierte,schmutzige,man,Wohnung,,,,,,,,,,,,,,,,,,,,,,,4,0,4,0,0,4,4,4,,,,,,,,,space,0.284396886826,,,,,2017_Feb_02_1522,59.3527425659,spr_backupper,001,Mi15,
,salziger,mehr,monatlichem,serviert.,auf,geschleudert.,"reichem,",hat,von,sie,Lärm,Kram,hätten,künftigem,Störenfriede,Trinkwasser.,unzureichenden,täglichem,Glas,liegen,roten,einem,zusätzlichem,unzureichenden,liegen,wurden,den,mehr,Lärm,eine,Wetter,minimalem,feinem,sie,frischen,Krams,roten,vor,ungefähr,"Zeit,",feinem,Wetters,weichem,frisches,Mann,war,"nachgewiesen,",serviert.,Tiere,um,wurden,im,einen,geschleudert.,350,die,elektrischer,leider,harten,Skandals,eine,Trinkwassers.,elektrische,Störenfriede,derer,350,im,deren,salzige,Auto,leider,auf,am,die,einem,immer,purem,was,würden,Glas,noch,ziemlich,Skandal,hat,seltenem,"frischem,",die,noch,des,kaltem,gelegentlichen,Wäsche.,sauberen,klassischen,Bundespräsident.,Wäsche.,der,des,,,,,,,,,,,,,,,,,,,,,,,4,0,4,0,0,5,5,5,,,,,,,,,space,0.318713188171,,,,,2017_Feb_02_1522,59.3527425659,spr_backupper,001,Mi15,
,Wurst,als,Taschengeld,nan,jeden,nan,goldenen,den,den,defekt,um,aus,seiner,Einkommen,jeden.,nan,Helmen,grünen,köstlicher,die,Planeten,Esslöffel,schwarzem,Helmen,die,verschrottet.,Soldaten,als,um,große,die,täglichen,dichten,defekt,Grases,aus,Planet,Dezember,drei,um,Kunsteis,die,Untergrund,Gras,mehr,aus,dass,nan,artgerecht,die,verschrottet.,Müll.,Besucher.,nan,ml,Stimmung,Energie.,nichts,Schaumstoff,wiedergewählt.,große,nan,Energie.,jeden.,sie,ml,Müll.,sie,Wurst,mehr,nichts,jeden,Hauptbahnhof.,Flut,Esslöffel,ruhig,Alkohol,Tupperware,seiner,köstlichen,eine,"vermiest,",wiedergewählt.,den,dichten,kaltem,er,eine,Herrn,Abduschen,Besucher.,nan,Kraftstoff,Schmuck,nan,nan,Soldaten,Herrn,,,,,,,,,,,,,,,,,,,,,,,4,0,4,0,0,6,6,6,,,,,,,,,space,0.318969011307,,,,,2017_Feb_02_1522,59.3527425659,spr_backupper,001,Mi15,
,mit,einmal,selber,nan,Fall,nan,Besatz,Boden,Problemen,war.,jede,dem,Frau,haftbar.,nan,nan,zur,Tee,Wein,Slums.,ganz,warmen,Kaffee,zur,Slums.,nan,des,einmal,jede,Menge,Wohnung.,Einsatz,Stoff,war.,zwängen.,dem,ganz,stattfinden.,Tage.,Nadelhölzer,eingesprüht.,Wohnung.,liegen.,zwängen.,als,Japan.,das,nan,gehalten.,Probleme,nan,nan,nan,nan,warmer,ziemlich,nan,mitbringen.,gefertigt.,nan,Menge,nan,nan,nan,überführt,warme,nan,überführt,mit,als,mitbringen.,Fall,nan,zurückgekehrt.,warmem,diskutiert.,verdünnt.,ist.,Frau,Weins,Sammlung,dass,nan,Boden,Gewebe,Saft,trug.,Sammlung,Gantenbein.,gehärtet.,nan,nan,fahren.,umgearbeitet.,nan,nan,des,Gantenbeins.,,,,,,,,,,,,,,,,,,,,,,,4,0,4,0,0,7,7,7,,,,,,,,,space,0.346211910248,,,,,2017_Feb_02_1522,59.3527425659,spr_backupper,001,Mi15,
,an,Rilke,kaufen.,nan,genug.,nan,rekonstruiert.,berührt.,im,nan,Menge,Haus,gepasst.,nan,nan,nan,Schule.,wieder,schon,nan,deutlich.,Honigs,wiederbelebt.,Schule.,nan,nan,zweiten,Rilke.,Menge,dunkler,nan,sinken.,gefertigt.,nan,nan,Haus,deutlich.,nan,nan,umzusetzen.,nan,nan,nan,nan,gerne.,nan,Medikament,nan,nan,im,nan,nan,nan,nan,Milch.,vermiest.,nan,nan,nan,nan,dunkle,nan,nan,nan,wurden.,Milch.,nan,wurden.,an,gerne.,nan,genug.,nan,nan,Honig,nan,nan,nan,gepasst,schon,dumme,es,nan,berührt.,wiederhergestellt.,besprochen.,nan,dummer,nan,nan,nan,nan,nan,nan,nan,nan,zweiten,nan,,,,,,,,,,,,,,,,,,,,,,,4,0,4,0,0,8,8,8,,,,,,,,,space,0.290600061417,,,,,2017_Feb_02_1522,59.3527425659,spr_backupper,001,Mi15,
,den,gelesen.,nan,nan,nan,nan,nan,nan,Landkreis.,nan,heißer,geschafft.,nan,nan,nan,nan,nan,fit.,auf,nan,nan,her.,nan,nan,nan,nan,Weltkriegs.,nan,heiße,Materie,nan,nan,nan,nan,nan,geschafft.,nan,nan,nan,nan,nan,nan,nan,nan,nan,nan,nicht,nan,nan,Landkreis.,nan,nan,nan,nan,nan,nan,nan,nan,nan,nan,Materie,nan,nan,nan,nan,nan,nan,nan,den,nan,nan,nan,nan,nan,her.,nan,nan,nan,haben.,auf,Sprüche.,regnete.,nan,nan,nan,nan,nan,Sprüche.,nan,nan,nan,nan,nan,nan,nan,nan,Weltkriegs.,nan,,,,,,,,,,,,,,,,,,,,,,,4,0,4,0,0,9,9,9,,,,,,,,,space,0.335562944412,,,,,2017_Feb_02_1522,59.3527425659,spr_backupper,001,Mi15,
,See.,nan,nan,nan,nan,nan,nan,nan,nan,nan,Luft.,nan,nan,nan,nan,nan,nan,nan,dem,nan,nan,nan,nan,nan,nan,nan,nan,nan,Luft.,erzeugen.,nan,nan,nan,nan,nan,nan,nan,nan,nan,nan,nan,nan,nan,nan,nan,nan,wirkt.,nan,nan,nan,nan,nan,nan,nan,nan,nan,nan,nan,nan,nan,erzeugen.,nan,nan,nan,nan,nan,nan,nan,See.,nan,nan,nan,nan,nan,nan,nan,nan,nan,nan,dem,nan,nan,nan,nan,nan,nan,nan,nan,nan,nan,nan,nan,nan,nan,nan,nan,nan,nan,,,,,,,,,,,,,,,,,,,,,,,4,0,4,0,0,10,10,10,,,,,,,,,space,0.336694002151,,,,,2017_Feb_02_1522,59.3527425659,spr_backupper,001,Mi15,
,,,,,,,,,,,,,,,,,,,,,,,,,,,,,,,,,,,,,,,,,,,,,,,,,,,,,,,,,,,,,,,,,,,,,,,,,,,,,,,,,,,,,,,,,,,,,,,,,,,,,,,,,,,,,,,,,,,,,,,,,4,0,4,0,,,,,,,,,,,,,,,None,n,3.23767399788,,2017_Feb_02_1522,59.3527425659,spr_backupper,001,Mi15,
,Ich,In,Jugendliche,Beträchtliche,100,Es,Das,Nicht,In,Die,Man,Wir,Die,Manche,Außer,Sie,Die,Ich,Bei,Am,Im,Er,Die,Die,Am,Die,Bei,In,Man,Mit,Sie,Ihr,Er,Die,Wir,Wir,Im,Unter,Der,Jetzt,Die,Sie,Jungtiere,Wir,Wir,Die,In,Beträchtliche,In,In,Die,Viele,Wir,Es,In,Dass,Die,Außer,Alle,Er,Mit,Sie,Die,Außer,Es,In,Viele,Es,Ich,Wir,Außer,100,Die,Als,Er,Fernab,Die,Die,Die,Bei,Sie,Es,Er,Nicht,Danach,Sie,Die,Sie,Die,Die,Wir,Dort,Wir,Die,Walter,Dort,Bei,Die,,,,,,,,,,,,,,,,,,,,,,,5,0,5,0,0,0,0,0,,,,,,,space,0.519511938095,space,0.319853067398,,,,,2017_Feb_02_1522,59.3527425659,spr_backupper,001,Mi15,
,nehme,meinem,können,Stücke,g,wurden,Tuch,ein,der,Uhr,machte,haben,Schuhe,Kreditnehmer,dem,verbrauchen,Kinder,wurde,unserer,äußeren,Fernrohr,stellt,müden,Kinder,äußersten,Autos,der,meinem,machte,dieser,verlassen,Blutdruck,hat,Uhr,mussten,haben,Fernrohr,keinen,Flug,ist,Eislaufbahnen,verlassen,sollten,mussten,übergaben,"Uhr,",einer,Stücke,diesem,der,Autos,Tonnen,hatten,wurden,den,es,Schule,dem,Betten,wurde,dieser,verbrauchen,Schule,den,waren,den,Tonnen,waren,nehme,übergaben,das,g,Linie,die,stellt,des,Lösung,Teilnehmerinnen,Schuhe,unserer,hatte,hat,wurde,ein,wurde,haben,Uhr,hatte,Gäste,Formen,hatten,türmen,konnten,Stücke,Scheel,türmen,der,Gäste,,,,,,,,,,,,,,,,,,,,,,,5,0,5,0,0,1,1,1,,,,,,,,,space,0.266473054886,,,,,2017_Feb_02_1522,59.3527425659,spr_backupper,001,Mi15,
,eine,Studium,Kleidung,saftiges,brauner,Eimer,wurde,Tropfen,Tat,schlug,mal,jede,in,sind,Bürgermeister,60,fuhren,damals,Ankunft,Rand,sahen,die,Teilnehmer,fuhren,Rand,beider,Feier,Studium,mal,Methode,wegen,kann,ein,schlug,uns,jede,sahen,Umständen,zum,genau,wurden,wegen,immer,uns,das,die,Studie,saftigen,Zirkus,Tat,beider,gebrauchter,in,Eimer,Kakao,"regnete,",verbraucht,Essen,wurden,trotz,Methode,60,verbraucht,Bürgermeister,nur,Kakao,gebrauchte,nur,eine,dem,Essen,braunen,101,Sonne,die,Rummels,wird,wussten,in,Ankunft,keine,uns,trotz,Tropfen,die,die,war,keine,suchen,wurden,in,sich,dann,wurden,war,sich,Feier,suchen,,,,,,,,,,,,,,,,,,,,,,,5,0,5,0,0,2,2,2,,,,,,,,,space,0.30966091156,,,,,2017_Feb_02_1522,59.3527425659,spr_backupper,001,Mi15,
,große,habe,bei,Fleisch,Zucker,roter,dann,königlichen,wissen,"sporadisch,",wieder,Menge,Größe,mit,beschuldigten,Liter,mit,schnell,stand,der,wir,Masse,wurden,mit,der,beteiligten,gedachte,las,wieder,kann,dem,schon,Hemd,"sporadisch,",durch,Menge,wir,können,Mond,die,mit,des,auf,durch,Auto,er,wurde,Fleischs,werden,wissen,beteiligter,Kleidung,Dänemark,rote,gehören,hat,260.000,kann,mit,des,kann,Liter,260.000,beschuldigten,kleinere,gehören,Kleidung,kleinere,große,Mann,kann,Zuckers,hält,"unterging,",Masse,wurde,mit,überwiegend,Größe,stand,Lust,die,dem,königliches,Leinwand,Erlebnisse,aus,Lust,die,unter,Dänemark,Berge,mit,aus,der,Berge,gedachte,die,,,,,,,,,,,,,,,,,,,,,,,5,0,5,0,0,3,3,3,,,,,,,,,space,0.273017883301,,,,,2017_Feb_02_1522,59.3527425659,spr_backupper,001,Mi15,
,Packung,ich,ausreichendem,wurden,sind,Farbe,mit,Bluts,wir,obwohl,viel,alten,36,"sämtlichem,",die,sprudelndes,solch,dank,ein,Stadt,den,mit,mit,solchen,Stadt,Fahrer,man,ich,viel,man,schönen,bei,aus,obschon,Büschel,alten,den,Neuwahlen,dauerte,richtige,dauerhaftem,schönen,warmem,Büschel,dem,"trug,",jetzt,wurden,die,wir,Fahrer,landen,gelegentlich,Farbe,immer,uns,Kilowattstunden,ich,"üblichem,",bekannten,man,sprudelnden,Kilowattstunden,die,"Delikte,",immer,landen,"Delikte,",Packung,das,ich,sind,nicht,war,mit,schon,"reichlichem,","nicht,",36,ein,auf,Stimmung,bekannten,Blut,aus,bei,"Japan,",auf,Wohnung,"regelmäßigem,",einen,schmutziger,"minimalem,","wertvollem,",vierte,schmutzige,man,Wohnung,,,,,,,,,,,,,,,,,,,,,,,5,0,5,0,0,4,4,4,,,,,,,,,space,0.334969043732,,,,,2017_Feb_02_1522,59.3527425659,spr_backupper,001,Mi15,
,salziger,mehr,monatlichem,serviert.,auf,geschleudert.,"reichem,",hat,von,sie,Lärm,Kram,hätten,künftigem,Störenfriede,Trinkwasser.,unzureichenden,täglichem,Glas,liegen,roten,einem,zusätzlichem,unzureichenden,liegen,wurden,den,mehr,Lärm,eine,Wetter,minimalem,feinem,sie,frischen,Krams,roten,vor,ungefähr,"Zeit,",feinem,Wetters,weichem,frisches,Mann,war,"nachgewiesen,",serviert.,Tiere,um,wurden,im,einen,geschleudert.,350,die,elektrischer,leider,harten,Skandals,eine,Trinkwassers.,elektrische,Störenfriede,derer,350,im,deren,salzige,Auto,leider,auf,am,die,einem,immer,purem,was,würden,Glas,noch,ziemlich,Skandal,hat,seltenem,"frischem,",die,noch,des,kaltem,gelegentlichen,Wäsche.,sauberen,klassischen,Bundespräsident.,Wäsche.,der,des,,,,,,,,,,,,,,,,,,,,,,,5,0,5,0,0,5,5,5,,,,,,,,,space,0.285804986954,,,,,2017_Feb_02_1522,59.3527425659,spr_backupper,001,Mi15,
,Wurst,als,Taschengeld,nan,jeden,nan,goldenen,den,den,defekt,um,aus,seiner,Einkommen,jeden.,nan,Helmen,grünen,köstlicher,die,Planeten,Esslöffel,schwarzem,Helmen,die,verschrottet.,Soldaten,als,um,große,die,täglichen,dichten,defekt,Grases,aus,Planet,Dezember,drei,um,Kunsteis,die,Untergrund,Gras,mehr,aus,dass,nan,artgerecht,die,verschrottet.,Müll.,Besucher.,nan,ml,Stimmung,Energie.,nichts,Schaumstoff,wiedergewählt.,große,nan,Energie.,jeden.,sie,ml,Müll.,sie,Wurst,mehr,nichts,jeden,Hauptbahnhof.,Flut,Esslöffel,ruhig,Alkohol,Tupperware,seiner,köstlichen,eine,"vermiest,",wiedergewählt.,den,dichten,kaltem,er,eine,Herrn,Abduschen,Besucher.,nan,Kraftstoff,Schmuck,nan,nan,Soldaten,Herrn,,,,,,,,,,,,,,,,,,,,,,,5,0,5,0,0,6,6,6,,,,,,,,,space,0.249706029892,,,,,2017_Feb_02_1522,59.3527425659,spr_backupper,001,Mi15,
,mit,einmal,selber,nan,Fall,nan,Besatz,Boden,Problemen,war.,jede,dem,Frau,haftbar.,nan,nan,zur,Tee,Wein,Slums.,ganz,warmen,Kaffee,zur,Slums.,nan,des,einmal,jede,Menge,Wohnung.,Einsatz,Stoff,war.,zwängen.,dem,ganz,stattfinden.,Tage.,Nadelhölzer,eingesprüht.,Wohnung.,liegen.,zwängen.,als,Japan.,das,nan,gehalten.,Probleme,nan,nan,nan,nan,warmer,ziemlich,nan,mitbringen.,gefertigt.,nan,Menge,nan,nan,nan,überführt,warme,nan,überführt,mit,als,mitbringen.,Fall,nan,zurückgekehrt.,warmem,diskutiert.,verdünnt.,ist.,Frau,Weins,Sammlung,dass,nan,Boden,Gewebe,Saft,trug.,Sammlung,Gantenbein.,gehärtet.,nan,nan,fahren.,umgearbeitet.,nan,nan,des,Gantenbeins.,,,,,,,,,,,,,,,,,,,,,,,5,0,5,0,0,7,7,7,,,,,,,,,space,0.291763067245,,,,,2017_Feb_02_1522,59.3527425659,spr_backupper,001,Mi15,
,,,,,,,,,,,,,,,,,,,,,,,,,,,,,,,,,,,,,,,,,,,,,,,,,,,,,,,,,,,,,,,,,,,,,,,,,,,,,,,,,,,,,,,,,,,,,,,,,,,,,,,,,,,,,,,,,,,,,,,,,5,0,5,0,,,,,,,,,,,,,,,None,n,3.69147396088,,2017_Feb_02_1522,59.3527425659,spr_backupper,001,Mi15,
,Ich,In,Jugendliche,Beträchtliche,100,Es,Das,Nicht,In,Die,Man,Wir,Die,Manche,Außer,Sie,Die,Ich,Bei,Am,Im,Er,Die,Die,Am,Die,Bei,In,Man,Mit,Sie,Ihr,Er,Die,Wir,Wir,Im,Unter,Der,Jetzt,Die,Sie,Jungtiere,Wir,Wir,Die,In,Beträchtliche,In,In,Die,Viele,Wir,Es,In,Dass,Die,Außer,Alle,Er,Mit,Sie,Die,Außer,Es,In,Viele,Es,Ich,Wir,Außer,100,Die,Als,Er,Fernab,Die,Die,Die,Bei,Sie,Es,Er,Nicht,Danach,Sie,Die,Sie,Die,Die,Wir,Dort,Wir,Die,Walter,Dort,Bei,Die,,,,,,,,,,,,,,,,,,,,,,,6,0,6,0,0,0,0,0,,,,,,,space,0.905428886414,space,0.380724906921,,,,,2017_Feb_02_1522,59.3527425659,spr_backupper,001,Mi15,
,nehme,meinem,können,Stücke,g,wurden,Tuch,ein,der,Uhr,machte,haben,Schuhe,Kreditnehmer,dem,verbrauchen,Kinder,wurde,unserer,äußeren,Fernrohr,stellt,müden,Kinder,äußersten,Autos,der,meinem,machte,dieser,verlassen,Blutdruck,hat,Uhr,mussten,haben,Fernrohr,keinen,Flug,ist,Eislaufbahnen,verlassen,sollten,mussten,übergaben,"Uhr,",einer,Stücke,diesem,der,Autos,Tonnen,hatten,wurden,den,es,Schule,dem,Betten,wurde,dieser,verbrauchen,Schule,den,waren,den,Tonnen,waren,nehme,übergaben,das,g,Linie,die,stellt,des,Lösung,Teilnehmerinnen,Schuhe,unserer,hatte,hat,wurde,ein,wurde,haben,Uhr,hatte,Gäste,Formen,hatten,türmen,konnten,Stücke,Scheel,türmen,der,Gäste,,,,,,,,,,,,,,,,,,,,,,,6,0,6,0,0,1,1,1,,,,,,,,,space,0.342272996902,,,,,2017_Feb_02_1522,59.3527425659,spr_backupper,001,Mi15,
,eine,Studium,Kleidung,saftiges,brauner,Eimer,wurde,Tropfen,Tat,schlug,mal,jede,in,sind,Bürgermeister,60,fuhren,damals,Ankunft,Rand,sahen,die,Teilnehmer,fuhren,Rand,beider,Feier,Studium,mal,Methode,wegen,kann,ein,schlug,uns,jede,sahen,Umständen,zum,genau,wurden,wegen,immer,uns,das,die,Studie,saftigen,Zirkus,Tat,beider,gebrauchter,in,Eimer,Kakao,"regnete,",verbraucht,Essen,wurden,trotz,Methode,60,verbraucht,Bürgermeister,nur,Kakao,gebrauchte,nur,eine,dem,Essen,braunen,101,Sonne,die,Rummels,wird,wussten,in,Ankunft,keine,uns,trotz,Tropfen,die,die,war,keine,suchen,wurden,in,sich,dann,wurden,war,sich,Feier,suchen,,,,,,,,,,,,,,,,,,,,,,,6,0,6,0,0,2,2,2,,,,,,,,,space,0.327162027359,,,,,2017_Feb_02_1522,59.3527425659,spr_backupper,001,Mi15,
,große,habe,bei,Fleisch,Zucker,roter,dann,königlichen,wissen,"sporadisch,",wieder,Menge,Größe,mit,beschuldigten,Liter,mit,schnell,stand,der,wir,Masse,wurden,mit,der,beteiligten,gedachte,las,wieder,kann,dem,schon,Hemd,"sporadisch,",durch,Menge,wir,können,Mond,die,mit,des,auf,durch,Auto,er,wurde,Fleischs,werden,wissen,beteiligter,Kleidung,Dänemark,rote,gehören,hat,260.000,kann,mit,des,kann,Liter,260.000,beschuldigten,kleinere,gehören,Kleidung,kleinere,große,Mann,kann,Zuckers,hält,"unterging,",Masse,wurde,mit,überwiegend,Größe,stand,Lust,die,dem,königliches,Leinwand,Erlebnisse,aus,Lust,die,unter,Dänemark,Berge,mit,aus,der,Berge,gedachte,die,,,,,,,,,,,,,,,,,,,,,,,6,0,6,0,0,3,3,3,,,,,,,,,space,0.307548046112,,,,,2017_Feb_02_1522,59.3527425659,spr_backupper,001,Mi15,
,Packung,ich,ausreichendem,wurden,sind,Farbe,mit,Bluts,wir,obwohl,viel,alten,36,"sämtlichem,",die,sprudelndes,solch,dank,ein,Stadt,den,mit,mit,solchen,Stadt,Fahrer,man,ich,viel,man,schönen,bei,aus,obschon,Büschel,alten,den,Neuwahlen,dauerte,richtige,dauerhaftem,schönen,warmem,Büschel,dem,"trug,",jetzt,wurden,die,wir,Fahrer,landen,gelegentlich,Farbe,immer,uns,Kilowattstunden,ich,"üblichem,",bekannten,man,sprudelnden,Kilowattstunden,die,"Delikte,",immer,landen,"Delikte,",Packung,das,ich,sind,nicht,war,mit,schon,"reichlichem,","nicht,",36,ein,auf,Stimmung,bekannten,Blut,aus,bei,"Japan,",auf,Wohnung,"regelmäßigem,",einen,schmutziger,"minimalem,","wertvollem,",vierte,schmutzige,man,Wohnung,,,,,,,,,,,,,,,,,,,,,,,6,0,6,0,0,4,4,4,,,,,,,,,space,0.336438179016,,,,,2017_Feb_02_1522,59.3527425659,spr_backupper,001,Mi15,
,salziger,mehr,monatlichem,serviert.,auf,geschleudert.,"reichem,",hat,von,sie,Lärm,Kram,hätten,künftigem,Störenfriede,Trinkwasser.,unzureichenden,täglichem,Glas,liegen,roten,einem,zusätzlichem,unzureichenden,liegen,wurden,den,mehr,Lärm,eine,Wetter,minimalem,feinem,sie,frischen,Krams,roten,vor,ungefähr,"Zeit,",feinem,Wetters,weichem,frisches,Mann,war,"nachgewiesen,",serviert.,Tiere,um,wurden,im,einen,geschleudert.,350,die,elektrischer,leider,harten,Skandals,eine,Trinkwassers.,elektrische,Störenfriede,derer,350,im,deren,salzige,Auto,leider,auf,am,die,einem,immer,purem,was,würden,Glas,noch,ziemlich,Skandal,hat,seltenem,"frischem,",die,noch,des,kaltem,gelegentlichen,Wäsche.,sauberen,klassischen,Bundespräsident.,Wäsche.,der,des,,,,,,,,,,,,,,,,,,,,,,,6,0,6,0,0,5,5,5,,,,,,,,,space,0.32451581955,,,,,2017_Feb_02_1522,59.3527425659,spr_backupper,001,Mi15,
,Wurst,als,Taschengeld,nan,jeden,nan,goldenen,den,den,defekt,um,aus,seiner,Einkommen,jeden.,nan,Helmen,grünen,köstlicher,die,Planeten,Esslöffel,schwarzem,Helmen,die,verschrottet.,Soldaten,als,um,große,die,täglichen,dichten,defekt,Grases,aus,Planet,Dezember,drei,um,Kunsteis,die,Untergrund,Gras,mehr,aus,dass,nan,artgerecht,die,verschrottet.,Müll.,Besucher.,nan,ml,Stimmung,Energie.,nichts,Schaumstoff,wiedergewählt.,große,nan,Energie.,jeden.,sie,ml,Müll.,sie,Wurst,mehr,nichts,jeden,Hauptbahnhof.,Flut,Esslöffel,ruhig,Alkohol,Tupperware,seiner,köstlichen,eine,"vermiest,",wiedergewählt.,den,dichten,kaltem,er,eine,Herrn,Abduschen,Besucher.,nan,Kraftstoff,Schmuck,nan,nan,Soldaten,Herrn,,,,,,,,,,,,,,,,,,,,,,,6,0,6,0,0,6,6,6,,,,,,,,,space,0.352910995483,,,,,2017_Feb_02_1522,59.3527425659,spr_backupper,001,Mi15,
,mit,einmal,selber,nan,Fall,nan,Besatz,Boden,Problemen,war.,jede,dem,Frau,haftbar.,nan,nan,zur,Tee,Wein,Slums.,ganz,warmen,Kaffee,zur,Slums.,nan,des,einmal,jede,Menge,Wohnung.,Einsatz,Stoff,war.,zwängen.,dem,ganz,stattfinden.,Tage.,Nadelhölzer,eingesprüht.,Wohnung.,liegen.,zwängen.,als,Japan.,das,nan,gehalten.,Probleme,nan,nan,nan,nan,warmer,ziemlich,nan,mitbringen.,gefertigt.,nan,Menge,nan,nan,nan,überführt,warme,nan,überführt,mit,als,mitbringen.,Fall,nan,zurückgekehrt.,warmem,diskutiert.,verdünnt.,ist.,Frau,Weins,Sammlung,dass,nan,Boden,Gewebe,Saft,trug.,Sammlung,Gantenbein.,gehärtet.,nan,nan,fahren.,umgearbeitet.,nan,nan,des,Gantenbeins.,,,,,,,,,,,,,,,,,,,,,,,6,0,6,0,0,7,7,7,,,,,,,,,space,0.407048940659,,,,,2017_Feb_02_1522,59.3527425659,spr_backupper,001,Mi15,
,an,Rilke,kaufen.,nan,genug.,nan,rekonstruiert.,berührt.,im,nan,Menge,Haus,gepasst.,nan,nan,nan,Schule.,wieder,schon,nan,deutlich.,Honigs,wiederbelebt.,Schule.,nan,nan,zweiten,Rilke.,Menge,dunkler,nan,sinken.,gefertigt.,nan,nan,Haus,deutlich.,nan,nan,umzusetzen.,nan,nan,nan,nan,gerne.,nan,Medikament,nan,nan,im,nan,nan,nan,nan,Milch.,vermiest.,nan,nan,nan,nan,dunkle,nan,nan,nan,wurden.,Milch.,nan,wurden.,an,gerne.,nan,genug.,nan,nan,Honig,nan,nan,nan,gepasst,schon,dumme,es,nan,berührt.,wiederhergestellt.,besprochen.,nan,dummer,nan,nan,nan,nan,nan,nan,nan,nan,zweiten,nan,,,,,,,,,,,,,,,,,,,,,,,6,0,6,0,0,8,8,8,,,,,,,,,space,0.370754957199,,,,,2017_Feb_02_1522,59.3527425659,spr_backupper,001,Mi15,
,den,gelesen.,nan,nan,nan,nan,nan,nan,Landkreis.,nan,heißer,geschafft.,nan,nan,nan,nan,nan,fit.,auf,nan,nan,her.,nan,nan,nan,nan,Weltkriegs.,nan,heiße,Materie,nan,nan,nan,nan,nan,geschafft.,nan,nan,nan,nan,nan,nan,nan,nan,nan,nan,nicht,nan,nan,Landkreis.,nan,nan,nan,nan,nan,nan,nan,nan,nan,nan,Materie,nan,nan,nan,nan,nan,nan,nan,den,nan,nan,nan,nan,nan,her.,nan,nan,nan,haben.,auf,Sprüche.,regnete.,nan,nan,nan,nan,nan,Sprüche.,nan,nan,nan,nan,nan,nan,nan,nan,Weltkriegs.,nan,,,,,,,,,,,,,,,,,,,,,,,6,0,6,0,0,9,9,9,,,,,,,,,space,0.372265100479,,,,,2017_Feb_02_1522,59.3527425659,spr_backupper,001,Mi15,
,,,,,,,,,,,,,,,,,,,,,,,,,,,,,,,,,,,,,,,,,,,,,,,,,,,,,,,,,,,,,,,,,,,,,,,,,,,,,,,,,,,,,,,,,,,,,,,,,,,,,,,,,,,,,,,,,,,,,,,,,6,0,6,0,,,,,,,,,,,,,,,None,j,2.70910406113,,2017_Feb_02_1522,59.3527425659,spr_backupper,001,Mi15,
,Ich,In,Jugendliche,Beträchtliche,100,Es,Das,Nicht,In,Die,Man,Wir,Die,Manche,Außer,Sie,Die,Ich,Bei,Am,Im,Er,Die,Die,Am,Die,Bei,In,Man,Mit,Sie,Ihr,Er,Die,Wir,Wir,Im,Unter,Der,Jetzt,Die,Sie,Jungtiere,Wir,Wir,Die,In,Beträchtliche,In,In,Die,Viele,Wir,Es,In,Dass,Die,Außer,Alle,Er,Mit,Sie,Die,Außer,Es,In,Viele,Es,Ich,Wir,Außer,100,Die,Als,Er,Fernab,Die,Die,Die,Bei,Sie,Es,Er,Nicht,Danach,Sie,Die,Sie,Die,Die,Wir,Dort,Wir,Die,Walter,Dort,Bei,Die,,,,,,,,,,,,,,,,,,,,,,,7,0,7,0,0,0,0,0,,,,,,,space,0.871649026871,space,0.454261064529,,,,,2017_Feb_02_1522,59.3527425659,spr_backupper,001,Mi15,
,nehme,meinem,können,Stücke,g,wurden,Tuch,ein,der,Uhr,machte,haben,Schuhe,Kreditnehmer,dem,verbrauchen,Kinder,wurde,unserer,äußeren,Fernrohr,stellt,müden,Kinder,äußersten,Autos,der,meinem,machte,dieser,verlassen,Blutdruck,hat,Uhr,mussten,haben,Fernrohr,keinen,Flug,ist,Eislaufbahnen,verlassen,sollten,mussten,übergaben,"Uhr,",einer,Stücke,diesem,der,Autos,Tonnen,hatten,wurden,den,es,Schule,dem,Betten,wurde,dieser,verbrauchen,Schule,den,waren,den,Tonnen,waren,nehme,übergaben,das,g,Linie,die,stellt,des,Lösung,Teilnehmerinnen,Schuhe,unserer,hatte,hat,wurde,ein,wurde,haben,Uhr,hatte,Gäste,Formen,hatten,türmen,konnten,Stücke,Scheel,türmen,der,Gäste,,,,,,,,,,,,,,,,,,,,,,,7,0,7,0,0,1,1,1,,,,,,,,,space,0.307337999344,,,,,2017_Feb_02_1522,59.3527425659,spr_backupper,001,Mi15,
,eine,Studium,Kleidung,saftiges,brauner,Eimer,wurde,Tropfen,Tat,schlug,mal,jede,in,sind,Bürgermeister,60,fuhren,damals,Ankunft,Rand,sahen,die,Teilnehmer,fuhren,Rand,beider,Feier,Studium,mal,Methode,wegen,kann,ein,schlug,uns,jede,sahen,Umständen,zum,genau,wurden,wegen,immer,uns,das,die,Studie,saftigen,Zirkus,Tat,beider,gebrauchter,in,Eimer,Kakao,"regnete,",verbraucht,Essen,wurden,trotz,Methode,60,verbraucht,Bürgermeister,nur,Kakao,gebrauchte,nur,eine,dem,Essen,braunen,101,Sonne,die,Rummels,wird,wussten,in,Ankunft,keine,uns,trotz,Tropfen,die,die,war,keine,suchen,wurden,in,sich,dann,wurden,war,sich,Feier,suchen,,,,,,,,,,,,,,,,,,,,,,,7,0,7,0,0,2,2,2,,,,,,,,,space,0.336501836777,,,,,2017_Feb_02_1522,59.3527425659,spr_backupper,001,Mi15,
,große,habe,bei,Fleisch,Zucker,roter,dann,königlichen,wissen,"sporadisch,",wieder,Menge,Größe,mit,beschuldigten,Liter,mit,schnell,stand,der,wir,Masse,wurden,mit,der,beteiligten,gedachte,las,wieder,kann,dem,schon,Hemd,"sporadisch,",durch,Menge,wir,können,Mond,die,mit,des,auf,durch,Auto,er,wurde,Fleischs,werden,wissen,beteiligter,Kleidung,Dänemark,rote,gehören,hat,260.000,kann,mit,des,kann,Liter,260.000,beschuldigten,kleinere,gehören,Kleidung,kleinere,große,Mann,kann,Zuckers,hält,"unterging,",Masse,wurde,mit,überwiegend,Größe,stand,Lust,die,dem,königliches,Leinwand,Erlebnisse,aus,Lust,die,unter,Dänemark,Berge,mit,aus,der,Berge,gedachte,die,,,,,,,,,,,,,,,,,,,,,,,7,0,7,0,0,3,3,3,,,,,,,,,space,0.327476978302,,,,,2017_Feb_02_1522,59.3527425659,spr_backupper,001,Mi15,
,Packung,ich,ausreichendem,wurden,sind,Farbe,mit,Bluts,wir,obwohl,viel,alten,36,"sämtlichem,",die,sprudelndes,solch,dank,ein,Stadt,den,mit,mit,solchen,Stadt,Fahrer,man,ich,viel,man,schönen,bei,aus,obschon,Büschel,alten,den,Neuwahlen,dauerte,richtige,dauerhaftem,schönen,warmem,Büschel,dem,"trug,",jetzt,wurden,die,wir,Fahrer,landen,gelegentlich,Farbe,immer,uns,Kilowattstunden,ich,"üblichem,",bekannten,man,sprudelnden,Kilowattstunden,die,"Delikte,",immer,landen,"Delikte,",Packung,das,ich,sind,nicht,war,mit,schon,"reichlichem,","nicht,",36,ein,auf,Stimmung,bekannten,Blut,aus,bei,"Japan,",auf,Wohnung,"regelmäßigem,",einen,schmutziger,"minimalem,","wertvollem,",vierte,schmutzige,man,Wohnung,,,,,,,,,,,,,,,,,,,,,,,7,0,7,0,0,4,4,4,,,,,,,,,space,0.521060943604,,,,,2017_Feb_02_1522,59.3527425659,spr_backupper,001,Mi15,
,salziger,mehr,monatlichem,serviert.,auf,geschleudert.,"reichem,",hat,von,sie,Lärm,Kram,hätten,künftigem,Störenfriede,Trinkwasser.,unzureichenden,täglichem,Glas,liegen,roten,einem,zusätzlichem,unzureichenden,liegen,wurden,den,mehr,Lärm,eine,Wetter,minimalem,feinem,sie,frischen,Krams,roten,vor,ungefähr,"Zeit,",feinem,Wetters,weichem,frisches,Mann,war,"nachgewiesen,",serviert.,Tiere,um,wurden,im,einen,geschleudert.,350,die,elektrischer,leider,harten,Skandals,eine,Trinkwassers.,elektrische,Störenfriede,derer,350,im,deren,salzige,Auto,leider,auf,am,die,einem,immer,purem,was,würden,Glas,noch,ziemlich,Skandal,hat,seltenem,"frischem,",die,noch,des,kaltem,gelegentlichen,Wäsche.,sauberen,klassischen,Bundespräsident.,Wäsche.,der,des,,,,,,,,,,,,,,,,,,,,,,,7,0,7,0,0,5,5,5,,,,,,,,,space,0.498905897141,,,,,2017_Feb_02_1522,59.3527425659,spr_backupper,001,Mi15,
,Wurst,als,Taschengeld,nan,jeden,nan,goldenen,den,den,defekt,um,aus,seiner,Einkommen,jeden.,nan,Helmen,grünen,köstlicher,die,Planeten,Esslöffel,schwarzem,Helmen,die,verschrottet.,Soldaten,als,um,große,die,täglichen,dichten,defekt,Grases,aus,Planet,Dezember,drei,um,Kunsteis,die,Untergrund,Gras,mehr,aus,dass,nan,artgerecht,die,verschrottet.,Müll.,Besucher.,nan,ml,Stimmung,Energie.,nichts,Schaumstoff,wiedergewählt.,große,nan,Energie.,jeden.,sie,ml,Müll.,sie,Wurst,mehr,nichts,jeden,Hauptbahnhof.,Flut,Esslöffel,ruhig,Alkohol,Tupperware,seiner,köstlichen,eine,"vermiest,",wiedergewählt.,den,dichten,kaltem,er,eine,Herrn,Abduschen,Besucher.,nan,Kraftstoff,Schmuck,nan,nan,Soldaten,Herrn,,,,,,,,,,,,,,,,,,,,,,,7,0,7,0,0,6,6,6,,,,,,,,,space,0.513828992844,,,,,2017_Feb_02_1522,59.3527425659,spr_backupper,001,Mi15,
,mit,einmal,selber,nan,Fall,nan,Besatz,Boden,Problemen,war.,jede,dem,Frau,haftbar.,nan,nan,zur,Tee,Wein,Slums.,ganz,warmen,Kaffee,zur,Slums.,nan,des,einmal,jede,Menge,Wohnung.,Einsatz,Stoff,war.,zwängen.,dem,ganz,stattfinden.,Tage.,Nadelhölzer,eingesprüht.,Wohnung.,liegen.,zwängen.,als,Japan.,das,nan,gehalten.,Probleme,nan,nan,nan,nan,warmer,ziemlich,nan,mitbringen.,gefertigt.,nan,Menge,nan,nan,nan,überführt,warme,nan,überführt,mit,als,mitbringen.,Fall,nan,zurückgekehrt.,warmem,diskutiert.,verdünnt.,ist.,Frau,Weins,Sammlung,dass,nan,Boden,Gewebe,Saft,trug.,Sammlung,Gantenbein.,gehärtet.,nan,nan,fahren.,umgearbeitet.,nan,nan,des,Gantenbeins.,,,,,,,,,,,,,,,,,,,,,,,7,0,7,0,0,7,7,7,,,,,,,,,space,0.50159406662,,,,,2017_Feb_02_1522,59.3527425659,spr_backupper,001,Mi15,
,an,Rilke,kaufen.,nan,genug.,nan,rekonstruiert.,berührt.,im,nan,Menge,Haus,gepasst.,nan,nan,nan,Schule.,wieder,schon,nan,deutlich.,Honigs,wiederbelebt.,Schule.,nan,nan,zweiten,Rilke.,Menge,dunkler,nan,sinken.,gefertigt.,nan,nan,Haus,deutlich.,nan,nan,umzusetzen.,nan,nan,nan,nan,gerne.,nan,Medikament,nan,nan,im,nan,nan,nan,nan,Milch.,vermiest.,nan,nan,nan,nan,dunkle,nan,nan,nan,wurden.,Milch.,nan,wurden.,an,gerne.,nan,genug.,nan,nan,Honig,nan,nan,nan,gepasst,schon,dumme,es,nan,berührt.,wiederhergestellt.,besprochen.,nan,dummer,nan,nan,nan,nan,nan,nan,nan,nan,zweiten,nan,,,,,,,,,,,,,,,,,,,,,,,7,0,7,0,0,8,8,8,,,,,,,,,space,0.508922100067,,,,,2017_Feb_02_1522,59.3527425659,spr_backupper,001,Mi15,
,,,,,,,,,,,,,,,,,,,,,,,,,,,,,,,,,,,,,,,,,,,,,,,,,,,,,,,,,,,,,,,,,,,,,,,,,,,,,,,,,,,,,,,,,,,,,,,,,,,,,,,,,,,,,,,,,,,,,,,,,7,0,7,0,,,,,,,,,,,,,,,None,n,10.2744290829,,2017_Feb_02_1522,59.3527425659,spr_backupper,001,Mi15,
,Ich,In,Jugendliche,Beträchtliche,100,Es,Das,Nicht,In,Die,Man,Wir,Die,Manche,Außer,Sie,Die,Ich,Bei,Am,Im,Er,Die,Die,Am,Die,Bei,In,Man,Mit,Sie,Ihr,Er,Die,Wir,Wir,Im,Unter,Der,Jetzt,Die,Sie,Jungtiere,Wir,Wir,Die,In,Beträchtliche,In,In,Die,Viele,Wir,Es,In,Dass,Die,Außer,Alle,Er,Mit,Sie,Die,Außer,Es,In,Viele,Es,Ich,Wir,Außer,100,Die,Als,Er,Fernab,Die,Die,Die,Bei,Sie,Es,Er,Nicht,Danach,Sie,Die,Sie,Die,Die,Wir,Dort,Wir,Die,Walter,Dort,Bei,Die,,,,,,,,,,,,,,,,,,,,,,,8,0,8,0,0,0,0,0,,,,,,,None,,space,0.0354509353638,,,,,2017_Feb_02_1522,59.3527425659,spr_backupper,001,Mi15,
,nehme,meinem,können,Stücke,g,wurden,Tuch,ein,der,Uhr,machte,haben,Schuhe,Kreditnehmer,dem,verbrauchen,Kinder,wurde,unserer,äußeren,Fernrohr,stellt,müden,Kinder,äußersten,Autos,der,meinem,machte,dieser,verlassen,Blutdruck,hat,Uhr,mussten,haben,Fernrohr,keinen,Flug,ist,Eislaufbahnen,verlassen,sollten,mussten,übergaben,"Uhr,",einer,Stücke,diesem,der,Autos,Tonnen,hatten,wurden,den,es,Schule,dem,Betten,wurde,dieser,verbrauchen,Schule,den,waren,den,Tonnen,waren,nehme,übergaben,das,g,Linie,die,stellt,des,Lösung,Teilnehmerinnen,Schuhe,unserer,hatte,hat,wurde,ein,wurde,haben,Uhr,hatte,Gäste,Formen,hatten,türmen,konnten,Stücke,Scheel,türmen,der,Gäste,,,,,,,,,,,,,,,,,,,,,,,8,0,8,0,0,1,1,1,,,,,,,,,space,0.906655073166,,,,,2017_Feb_02_1522,59.3527425659,spr_backupper,001,Mi15,
,eine,Studium,Kleidung,saftiges,brauner,Eimer,wurde,Tropfen,Tat,schlug,mal,jede,in,sind,Bürgermeister,60,fuhren,damals,Ankunft,Rand,sahen,die,Teilnehmer,fuhren,Rand,beider,Feier,Studium,mal,Methode,wegen,kann,ein,schlug,uns,jede,sahen,Umständen,zum,genau,wurden,wegen,immer,uns,das,die,Studie,saftigen,Zirkus,Tat,beider,gebrauchter,in,Eimer,Kakao,"regnete,",verbraucht,Essen,wurden,trotz,Methode,60,verbraucht,Bürgermeister,nur,Kakao,gebrauchte,nur,eine,dem,Essen,braunen,101,Sonne,die,Rummels,wird,wussten,in,Ankunft,keine,uns,trotz,Tropfen,die,die,war,keine,suchen,wurden,in,sich,dann,wurden,war,sich,Feier,suchen,,,,,,,,,,,,,,,,,,,,,,,8,0,8,0,0,2,2,2,,,,,,,,,space,0.40894317627,,,,,2017_Feb_02_1522,59.3527425659,spr_backupper,001,Mi15,
,große,habe,bei,Fleisch,Zucker,roter,dann,königlichen,wissen,"sporadisch,",wieder,Menge,Größe,mit,beschuldigten,Liter,mit,schnell,stand,der,wir,Masse,wurden,mit,der,beteiligten,gedachte,las,wieder,kann,dem,schon,Hemd,"sporadisch,",durch,Menge,wir,können,Mond,die,mit,des,auf,durch,Auto,er,wurde,Fleischs,werden,wissen,beteiligter,Kleidung,Dänemark,rote,gehören,hat,260.000,kann,mit,des,kann,Liter,260.000,beschuldigten,kleinere,gehören,Kleidung,kleinere,große,Mann,kann,Zuckers,hält,"unterging,",Masse,wurde,mit,überwiegend,Größe,stand,Lust,die,dem,königliches,Leinwand,Erlebnisse,aus,Lust,die,unter,Dänemark,Berge,mit,aus,der,Berge,gedachte,die,,,,,,,,,,,,,,,,,,,,,,,8,0,8,0,0,3,3,3,,,,,,,,,space,0.319274902344,,,,,2017_Feb_02_1522,59.3527425659,spr_backupper,001,Mi15,
,Packung,ich,ausreichendem,wurden,sind,Farbe,mit,Bluts,wir,obwohl,viel,alten,36,"sämtlichem,",die,sprudelndes,solch,dank,ein,Stadt,den,mit,mit,solchen,Stadt,Fahrer,man,ich,viel,man,schönen,bei,aus,obschon,Büschel,alten,den,Neuwahlen,dauerte,richtige,dauerhaftem,schönen,warmem,Büschel,dem,"trug,",jetzt,wurden,die,wir,Fahrer,landen,gelegentlich,Farbe,immer,uns,Kilowattstunden,ich,"üblichem,",bekannten,man,sprudelnden,Kilowattstunden,die,"Delikte,",immer,landen,"Delikte,",Packung,das,ich,sind,nicht,war,mit,schon,"reichlichem,","nicht,",36,ein,auf,Stimmung,bekannten,Blut,aus,bei,"Japan,",auf,Wohnung,"regelmäßigem,",einen,schmutziger,"minimalem,","wertvollem,",vierte,schmutzige,man,Wohnung,,,,,,,,,,,,,,,,,,,,,,,8,0,8,0,0,4,4,4,,,,,,,,,space,0.302701950073,,,,,2017_Feb_02_1522,59.3527425659,spr_backupper,001,Mi15,
,salziger,mehr,monatlichem,serviert.,auf,geschleudert.,"reichem,",hat,von,sie,Lärm,Kram,hätten,künftigem,Störenfriede,Trinkwasser.,unzureichenden,täglichem,Glas,liegen,roten,einem,zusätzlichem,unzureichenden,liegen,wurden,den,mehr,Lärm,eine,Wetter,minimalem,feinem,sie,frischen,Krams,roten,vor,ungefähr,"Zeit,",feinem,Wetters,weichem,frisches,Mann,war,"nachgewiesen,",serviert.,Tiere,um,wurden,im,einen,geschleudert.,350,die,elektrischer,leider,harten,Skandals,eine,Trinkwassers.,elektrische,Störenfriede,derer,350,im,deren,salzige,Auto,leider,auf,am,die,einem,immer,purem,was,würden,Glas,noch,ziemlich,Skandal,hat,seltenem,"frischem,",die,noch,des,kaltem,gelegentlichen,Wäsche.,sauberen,klassischen,Bundespräsident.,Wäsche.,der,des,,,,,,,,,,,,,,,,,,,,,,,8,0,8,0,0,5,5,5,,,,,,,,,space,0.301503181458,,,,,2017_Feb_02_1522,59.3527425659,spr_backupper,001,Mi15,
,Wurst,als,Taschengeld,nan,jeden,nan,goldenen,den,den,defekt,um,aus,seiner,Einkommen,jeden.,nan,Helmen,grünen,köstlicher,die,Planeten,Esslöffel,schwarzem,Helmen,die,verschrottet.,Soldaten,als,um,große,die,täglichen,dichten,defekt,Grases,aus,Planet,Dezember,drei,um,Kunsteis,die,Untergrund,Gras,mehr,aus,dass,nan,artgerecht,die,verschrottet.,Müll.,Besucher.,nan,ml,Stimmung,Energie.,nichts,Schaumstoff,wiedergewählt.,große,nan,Energie.,jeden.,sie,ml,Müll.,sie,Wurst,mehr,nichts,jeden,Hauptbahnhof.,Flut,Esslöffel,ruhig,Alkohol,Tupperware,seiner,köstlichen,eine,"vermiest,",wiedergewählt.,den,dichten,kaltem,er,eine,Herrn,Abduschen,Besucher.,nan,Kraftstoff,Schmuck,nan,nan,Soldaten,Herrn,,,,,,,,,,,,,,,,,,,,,,,8,0,8,0,0,6,6,6,,,,,,,,,space,0.308163166046,,,,,2017_Feb_02_1522,59.3527425659,spr_backupper,001,Mi15,
,mit,einmal,selber,nan,Fall,nan,Besatz,Boden,Problemen,war.,jede,dem,Frau,haftbar.,nan,nan,zur,Tee,Wein,Slums.,ganz,warmen,Kaffee,zur,Slums.,nan,des,einmal,jede,Menge,Wohnung.,Einsatz,Stoff,war.,zwängen.,dem,ganz,stattfinden.,Tage.,Nadelhölzer,eingesprüht.,Wohnung.,liegen.,zwängen.,als,Japan.,das,nan,gehalten.,Probleme,nan,nan,nan,nan,warmer,ziemlich,nan,mitbringen.,gefertigt.,nan,Menge,nan,nan,nan,überführt,warme,nan,überführt,mit,als,mitbringen.,Fall,nan,zurückgekehrt.,warmem,diskutiert.,verdünnt.,ist.,Frau,Weins,Sammlung,dass,nan,Boden,Gewebe,Saft,trug.,Sammlung,Gantenbein.,gehärtet.,nan,nan,fahren.,umgearbeitet.,nan,nan,des,Gantenbeins.,,,,,,,,,,,,,,,,,,,,,,,8,0,8,0,0,7,7,7,,,,,,,,,space,0.336228132248,,,,,2017_Feb_02_1522,59.3527425659,spr_backupper,001,Mi15,
,an,Rilke,kaufen.,nan,genug.,nan,rekonstruiert.,berührt.,im,nan,Menge,Haus,gepasst.,nan,nan,nan,Schule.,wieder,schon,nan,deutlich.,Honigs,wiederbelebt.,Schule.,nan,nan,zweiten,Rilke.,Menge,dunkler,nan,sinken.,gefertigt.,nan,nan,Haus,deutlich.,nan,nan,umzusetzen.,nan,nan,nan,nan,gerne.,nan,Medikament,nan,nan,im,nan,nan,nan,nan,Milch.,vermiest.,nan,nan,nan,nan,dunkle,nan,nan,nan,wurden.,Milch.,nan,wurden.,an,gerne.,nan,genug.,nan,nan,Honig,nan,nan,nan,gepasst,schon,dumme,es,nan,berührt.,wiederhergestellt.,besprochen.,nan,dummer,nan,nan,nan,nan,nan,nan,nan,nan,zweiten,nan,,,,,,,,,,,,,,,,,,,,,,,8,0,8,0,0,8,8,8,,,,,,,,,space,0.342883110046,,,,,2017_Feb_02_1522,59.3527425659,spr_backupper,001,Mi15,
,den,gelesen.,nan,nan,nan,nan,nan,nan,Landkreis.,nan,heißer,geschafft.,nan,nan,nan,nan,nan,fit.,auf,nan,nan,her.,nan,nan,nan,nan,Weltkriegs.,nan,heiße,Materie,nan,nan,nan,nan,nan,geschafft.,nan,nan,nan,nan,nan,nan,nan,nan,nan,nan,nicht,nan,nan,Landkreis.,nan,nan,nan,nan,nan,nan,nan,nan,nan,nan,Materie,nan,nan,nan,nan,nan,nan,nan,den,nan,nan,nan,nan,nan,her.,nan,nan,nan,haben.,auf,Sprüche.,regnete.,nan,nan,nan,nan,nan,Sprüche.,nan,nan,nan,nan,nan,nan,nan,nan,Weltkriegs.,nan,,,,,,,,,,,,,,,,,,,,,,,8,0,8,0,0,9,9,9,,,,,,,,,space,0.684702157974,,,,,2017_Feb_02_1522,59.3527425659,spr_backupper,001,Mi15,
,,,,,,,,,,,,,,,,,,,,,,,,,,,,,,,,,,,,,,,,,,,,,,,,,,,,,,,,,,,,,,,,,,,,,,,,,,,,,,,,,,,,,,,,,,,,,,,,,,,,,,,,,,,,,,,,,,,,,,,,,8,0,8,0,,,,,,,,,,,,,,,None,j,3.15424895287,,2017_Feb_02_1522,59.3527425659,spr_backupper,001,Mi15,
,Ich,In,Jugendliche,Beträchtliche,100,Es,Das,Nicht,In,Die,Man,Wir,Die,Manche,Außer,Sie,Die,Ich,Bei,Am,Im,Er,Die,Die,Am,Die,Bei,In,Man,Mit,Sie,Ihr,Er,Die,Wir,Wir,Im,Unter,Der,Jetzt,Die,Sie,Jungtiere,Wir,Wir,Die,In,Beträchtliche,In,In,Die,Viele,Wir,Es,In,Dass,Die,Außer,Alle,Er,Mit,Sie,Die,Außer,Es,In,Viele,Es,Ich,Wir,Außer,100,Die,Als,Er,Fernab,Die,Die,Die,Bei,Sie,Es,Er,Nicht,Danach,Sie,Die,Sie,Die,Die,Wir,Dort,Wir,Die,Walter,Dort,Bei,Die,,,,,,,,,,,,,,,,,,,,,,,9,0,9,0,0,0,0,0,,,,,,,space,0.586850166321,space,0.337404966354,,,,,2017_Feb_02_1522,59.3527425659,spr_backupper,001,Mi15,
,nehme,meinem,können,Stücke,g,wurden,Tuch,ein,der,Uhr,machte,haben,Schuhe,Kreditnehmer,dem,verbrauchen,Kinder,wurde,unserer,äußeren,Fernrohr,stellt,müden,Kinder,äußersten,Autos,der,meinem,machte,dieser,verlassen,Blutdruck,hat,Uhr,mussten,haben,Fernrohr,keinen,Flug,ist,Eislaufbahnen,verlassen,sollten,mussten,übergaben,"Uhr,",einer,Stücke,diesem,der,Autos,Tonnen,hatten,wurden,den,es,Schule,dem,Betten,wurde,dieser,verbrauchen,Schule,den,waren,den,Tonnen,waren,nehme,übergaben,das,g,Linie,die,stellt,des,Lösung,Teilnehmerinnen,Schuhe,unserer,hatte,hat,wurde,ein,wurde,haben,Uhr,hatte,Gäste,Formen,hatten,türmen,konnten,Stücke,Scheel,türmen,der,Gäste,,,,,,,,,,,,,,,,,,,,,,,9,0,9,0,0,1,1,1,,,,,,,,,space,0.345968961716,,,,,2017_Feb_02_1522,59.3527425659,spr_backupper,001,Mi15,
,eine,Studium,Kleidung,saftiges,brauner,Eimer,wurde,Tropfen,Tat,schlug,mal,jede,in,sind,Bürgermeister,60,fuhren,damals,Ankunft,Rand,sahen,die,Teilnehmer,fuhren,Rand,beider,Feier,Studium,mal,Methode,wegen,kann,ein,schlug,uns,jede,sahen,Umständen,zum,genau,wurden,wegen,immer,uns,das,die,Studie,saftigen,Zirkus,Tat,beider,gebrauchter,in,Eimer,Kakao,"regnete,",verbraucht,Essen,wurden,trotz,Methode,60,verbraucht,Bürgermeister,nur,Kakao,gebrauchte,nur,eine,dem,Essen,braunen,101,Sonne,die,Rummels,wird,wussten,in,Ankunft,keine,uns,trotz,Tropfen,die,die,war,keine,suchen,wurden,in,sich,dann,wurden,war,sich,Feier,suchen,,,,,,,,,,,,,,,,,,,,,,,9,0,9,0,0,2,2,2,,,,,,,,,space,0.285305976868,,,,,2017_Feb_02_1522,59.3527425659,spr_backupper,001,Mi15,
,große,habe,bei,Fleisch,Zucker,roter,dann,königlichen,wissen,"sporadisch,",wieder,Menge,Größe,mit,beschuldigten,Liter,mit,schnell,stand,der,wir,Masse,wurden,mit,der,beteiligten,gedachte,las,wieder,kann,dem,schon,Hemd,"sporadisch,",durch,Menge,wir,können,Mond,die,mit,des,auf,durch,Auto,er,wurde,Fleischs,werden,wissen,beteiligter,Kleidung,Dänemark,rote,gehören,hat,260.000,kann,mit,des,kann,Liter,260.000,beschuldigten,kleinere,gehören,Kleidung,kleinere,große,Mann,kann,Zuckers,hält,"unterging,",Masse,wurde,mit,überwiegend,Größe,stand,Lust,die,dem,königliches,Leinwand,Erlebnisse,aus,Lust,die,unter,Dänemark,Berge,mit,aus,der,Berge,gedachte,die,,,,,,,,,,,,,,,,,,,,,,,9,0,9,0,0,3,3,3,,,,,,,,,space,0.336452960968,,,,,2017_Feb_02_1522,59.3527425659,spr_backupper,001,Mi15,
,Packung,ich,ausreichendem,wurden,sind,Farbe,mit,Bluts,wir,obwohl,viel,alten,36,"sämtlichem,",die,sprudelndes,solch,dank,ein,Stadt,den,mit,mit,solchen,Stadt,Fahrer,man,ich,viel,man,schönen,bei,aus,obschon,Büschel,alten,den,Neuwahlen,dauerte,richtige,dauerhaftem,schönen,warmem,Büschel,dem,"trug,",jetzt,wurden,die,wir,Fahrer,landen,gelegentlich,Farbe,immer,uns,Kilowattstunden,ich,"üblichem,",bekannten,man,sprudelnden,Kilowattstunden,die,"Delikte,",immer,landen,"Delikte,",Packung,das,ich,sind,nicht,war,mit,schon,"reichlichem,","nicht,",36,ein,auf,Stimmung,bekannten,Blut,aus,bei,"Japan,",auf,Wohnung,"regelmäßigem,",einen,schmutziger,"minimalem,","wertvollem,",vierte,schmutzige,man,Wohnung,,,,,,,,,,,,,,,,,,,,,,,9,0,9,0,0,4,4,4,,,,,,,,,space,0.324647903442,,,,,2017_Feb_02_1522,59.3527425659,spr_backupper,001,Mi15,
,salziger,mehr,monatlichem,serviert.,auf,geschleudert.,"reichem,",hat,von,sie,Lärm,Kram,hätten,künftigem,Störenfriede,Trinkwasser.,unzureichenden,täglichem,Glas,liegen,roten,einem,zusätzlichem,unzureichenden,liegen,wurden,den,mehr,Lärm,eine,Wetter,minimalem,feinem,sie,frischen,Krams,roten,vor,ungefähr,"Zeit,",feinem,Wetters,weichem,frisches,Mann,war,"nachgewiesen,",serviert.,Tiere,um,wurden,im,einen,geschleudert.,350,die,elektrischer,leider,harten,Skandals,eine,Trinkwassers.,elektrische,Störenfriede,derer,350,im,deren,salzige,Auto,leider,auf,am,die,einem,immer,purem,was,würden,Glas,noch,ziemlich,Skandal,hat,seltenem,"frischem,",die,noch,des,kaltem,gelegentlichen,Wäsche.,sauberen,klassischen,Bundespräsident.,Wäsche.,der,des,,,,,,,,,,,,,,,,,,,,,,,9,0,9,0,0,5,5,5,,,,,,,,,space,0.305288076401,,,,,2017_Feb_02_1522,59.3527425659,spr_backupper,001,Mi15,
,Wurst,als,Taschengeld,nan,jeden,nan,goldenen,den,den,defekt,um,aus,seiner,Einkommen,jeden.,nan,Helmen,grünen,köstlicher,die,Planeten,Esslöffel,schwarzem,Helmen,die,verschrottet.,Soldaten,als,um,große,die,täglichen,dichten,defekt,Grases,aus,Planet,Dezember,drei,um,Kunsteis,die,Untergrund,Gras,mehr,aus,dass,nan,artgerecht,die,verschrottet.,Müll.,Besucher.,nan,ml,Stimmung,Energie.,nichts,Schaumstoff,wiedergewählt.,große,nan,Energie.,jeden.,sie,ml,Müll.,sie,Wurst,mehr,nichts,jeden,Hauptbahnhof.,Flut,Esslöffel,ruhig,Alkohol,Tupperware,seiner,köstlichen,eine,"vermiest,",wiedergewählt.,den,dichten,kaltem,er,eine,Herrn,Abduschen,Besucher.,nan,Kraftstoff,Schmuck,nan,nan,Soldaten,Herrn,,,,,,,,,,,,,,,,,,,,,,,9,0,9,0,0,6,6,6,,,,,,,,,space,0.340656042099,,,,,2017_Feb_02_1522,59.3527425659,spr_backupper,001,Mi15,
,mit,einmal,selber,nan,Fall,nan,Besatz,Boden,Problemen,war.,jede,dem,Frau,haftbar.,nan,nan,zur,Tee,Wein,Slums.,ganz,warmen,Kaffee,zur,Slums.,nan,des,einmal,jede,Menge,Wohnung.,Einsatz,Stoff,war.,zwängen.,dem,ganz,stattfinden.,Tage.,Nadelhölzer,eingesprüht.,Wohnung.,liegen.,zwängen.,als,Japan.,das,nan,gehalten.,Probleme,nan,nan,nan,nan,warmer,ziemlich,nan,mitbringen.,gefertigt.,nan,Menge,nan,nan,nan,überführt,warme,nan,überführt,mit,als,mitbringen.,Fall,nan,zurückgekehrt.,warmem,diskutiert.,verdünnt.,ist.,Frau,Weins,Sammlung,dass,nan,Boden,Gewebe,Saft,trug.,Sammlung,Gantenbein.,gehärtet.,nan,nan,fahren.,umgearbeitet.,nan,nan,des,Gantenbeins.,,,,,,,,,,,,,,,,,,,,,,,9,0,9,0,0,7,7,7,,,,,,,,,space,0.486817121506,,,,,2017_Feb_02_1522,59.3527425659,spr_backupper,001,Mi15,
,an,Rilke,kaufen.,nan,genug.,nan,rekonstruiert.,berührt.,im,nan,Menge,Haus,gepasst.,nan,nan,nan,Schule.,wieder,schon,nan,deutlich.,Honigs,wiederbelebt.,Schule.,nan,nan,zweiten,Rilke.,Menge,dunkler,nan,sinken.,gefertigt.,nan,nan,Haus,deutlich.,nan,nan,umzusetzen.,nan,nan,nan,nan,gerne.,nan,Medikament,nan,nan,im,nan,nan,nan,nan,Milch.,vermiest.,nan,nan,nan,nan,dunkle,nan,nan,nan,wurden.,Milch.,nan,wurden.,an,gerne.,nan,genug.,nan,nan,Honig,nan,nan,nan,gepasst,schon,dumme,es,nan,berührt.,wiederhergestellt.,besprochen.,nan,dummer,nan,nan,nan,nan,nan,nan,nan,nan,zweiten,nan,,,,,,,,,,,,,,,,,,,,,,,9,0,9,0,0,8,8,8,,,,,,,,,space,0.353266954422,,,,,2017_Feb_02_1522,59.3527425659,spr_backupper,001,Mi15,
,,,,,,,,,,,,,,,,,,,,,,,,,,,,,,,,,,,,,,,,,,,,,,,,,,,,,,,,,,,,,,,,,,,,,,,,,,,,,,,,,,,,,,,,,,,,,,,,,,,,,,,,,,,,,,,,,,,,,,,,,9,0,9,0,,,,,,,,,,,,,,,None,n,9.19676208496,,2017_Feb_02_1522,59.3527425659,spr_backupper,001,Mi15,
,Ich,In,Jugendliche,Beträchtliche,100,Es,Das,Nicht,In,Die,Man,Wir,Die,Manche,Außer,Sie,Die,Ich,Bei,Am,Im,Er,Die,Die,Am,Die,Bei,In,Man,Mit,Sie,Ihr,Er,Die,Wir,Wir,Im,Unter,Der,Jetzt,Die,Sie,Jungtiere,Wir,Wir,Die,In,Beträchtliche,In,In,Die,Viele,Wir,Es,In,Dass,Die,Außer,Alle,Er,Mit,Sie,Die,Außer,Es,In,Viele,Es,Ich,Wir,Außer,100,Die,Als,Er,Fernab,Die,Die,Die,Bei,Sie,Es,Er,Nicht,Danach,Sie,Die,Sie,Die,Die,Wir,Dort,Wir,Die,Walter,Dort,Bei,Die,,,,,,,,,,,,,,,,,,,,,,,10,0,10,0,0,0,0,0,,,,,,,space,0.755342960358,space,0.470643997192,,,,,2017_Feb_02_1522,59.3527425659,spr_backupper,001,Mi15,
,nehme,meinem,können,Stücke,g,wurden,Tuch,ein,der,Uhr,machte,haben,Schuhe,Kreditnehmer,dem,verbrauchen,Kinder,wurde,unserer,äußeren,Fernrohr,stellt,müden,Kinder,äußersten,Autos,der,meinem,machte,dieser,verlassen,Blutdruck,hat,Uhr,mussten,haben,Fernrohr,keinen,Flug,ist,Eislaufbahnen,verlassen,sollten,mussten,übergaben,"Uhr,",einer,Stücke,diesem,der,Autos,Tonnen,hatten,wurden,den,es,Schule,dem,Betten,wurde,dieser,verbrauchen,Schule,den,waren,den,Tonnen,waren,nehme,übergaben,das,g,Linie,die,stellt,des,Lösung,Teilnehmerinnen,Schuhe,unserer,hatte,hat,wurde,ein,wurde,haben,Uhr,hatte,Gäste,Formen,hatten,türmen,konnten,Stücke,Scheel,türmen,der,Gäste,,,,,,,,,,,,,,,,,,,,,,,10,0,10,0,0,1,1,1,,,,,,,,,space,0.370105981827,,,,,2017_Feb_02_1522,59.3527425659,spr_backupper,001,Mi15,
,eine,Studium,Kleidung,saftiges,brauner,Eimer,wurde,Tropfen,Tat,schlug,mal,jede,in,sind,Bürgermeister,60,fuhren,damals,Ankunft,Rand,sahen,die,Teilnehmer,fuhren,Rand,beider,Feier,Studium,mal,Methode,wegen,kann,ein,schlug,uns,jede,sahen,Umständen,zum,genau,wurden,wegen,immer,uns,das,die,Studie,saftigen,Zirkus,Tat,beider,gebrauchter,in,Eimer,Kakao,"regnete,",verbraucht,Essen,wurden,trotz,Methode,60,verbraucht,Bürgermeister,nur,Kakao,gebrauchte,nur,eine,dem,Essen,braunen,101,Sonne,die,Rummels,wird,wussten,in,Ankunft,keine,uns,trotz,Tropfen,die,die,war,keine,suchen,wurden,in,sich,dann,wurden,war,sich,Feier,suchen,,,,,,,,,,,,,,,,,,,,,,,10,0,10,0,0,2,2,2,,,,,,,,,space,0.423418998718,,,,,2017_Feb_02_1522,59.3527425659,spr_backupper,001,Mi15,
,große,habe,bei,Fleisch,Zucker,roter,dann,königlichen,wissen,"sporadisch,",wieder,Menge,Größe,mit,beschuldigten,Liter,mit,schnell,stand,der,wir,Masse,wurden,mit,der,beteiligten,gedachte,las,wieder,kann,dem,schon,Hemd,"sporadisch,",durch,Menge,wir,können,Mond,die,mit,des,auf,durch,Auto,er,wurde,Fleischs,werden,wissen,beteiligter,Kleidung,Dänemark,rote,gehören,hat,260.000,kann,mit,des,kann,Liter,260.000,beschuldigten,kleinere,gehören,Kleidung,kleinere,große,Mann,kann,Zuckers,hält,"unterging,",Masse,wurde,mit,überwiegend,Größe,stand,Lust,die,dem,königliches,Leinwand,Erlebnisse,aus,Lust,die,unter,Dänemark,Berge,mit,aus,der,Berge,gedachte,die,,,,,,,,,,,,,,,,,,,,,,,10,0,10,0,0,3,3,3,,,,,,,,,space,0.327939033508,,,,,2017_Feb_02_1522,59.3527425659,spr_backupper,001,Mi15,
,Packung,ich,ausreichendem,wurden,sind,Farbe,mit,Bluts,wir,obwohl,viel,alten,36,"sämtlichem,",die,sprudelndes,solch,dank,ein,Stadt,den,mit,mit,solchen,Stadt,Fahrer,man,ich,viel,man,schönen,bei,aus,obschon,Büschel,alten,den,Neuwahlen,dauerte,richtige,dauerhaftem,schönen,warmem,Büschel,dem,"trug,",jetzt,wurden,die,wir,Fahrer,landen,gelegentlich,Farbe,immer,uns,Kilowattstunden,ich,"üblichem,",bekannten,man,sprudelnden,Kilowattstunden,die,"Delikte,",immer,landen,"Delikte,",Packung,das,ich,sind,nicht,war,mit,schon,"reichlichem,","nicht,",36,ein,auf,Stimmung,bekannten,Blut,aus,bei,"Japan,",auf,Wohnung,"regelmäßigem,",einen,schmutziger,"minimalem,","wertvollem,",vierte,schmutzige,man,Wohnung,,,,,,,,,,,,,,,,,,,,,,,10,0,10,0,0,4,4,4,,,,,,,,,space,0.324905157089,,,,,2017_Feb_02_1522,59.3527425659,spr_backupper,001,Mi15,
,salziger,mehr,monatlichem,serviert.,auf,geschleudert.,"reichem,",hat,von,sie,Lärm,Kram,hätten,künftigem,Störenfriede,Trinkwasser.,unzureichenden,täglichem,Glas,liegen,roten,einem,zusätzlichem,unzureichenden,liegen,wurden,den,mehr,Lärm,eine,Wetter,minimalem,feinem,sie,frischen,Krams,roten,vor,ungefähr,"Zeit,",feinem,Wetters,weichem,frisches,Mann,war,"nachgewiesen,",serviert.,Tiere,um,wurden,im,einen,geschleudert.,350,die,elektrischer,leider,harten,Skandals,eine,Trinkwassers.,elektrische,Störenfriede,derer,350,im,deren,salzige,Auto,leider,auf,am,die,einem,immer,purem,was,würden,Glas,noch,ziemlich,Skandal,hat,seltenem,"frischem,",die,noch,des,kaltem,gelegentlichen,Wäsche.,sauberen,klassischen,Bundespräsident.,Wäsche.,der,des,,,,,,,,,,,,,,,,,,,,,,,10,0,10,0,0,5,5,5,,,,,,,,,space,0.312536001205,,,,,2017_Feb_02_1522,59.3527425659,spr_backupper,001,Mi15,
,Wurst,als,Taschengeld,nan,jeden,nan,goldenen,den,den,defekt,um,aus,seiner,Einkommen,jeden.,nan,Helmen,grünen,köstlicher,die,Planeten,Esslöffel,schwarzem,Helmen,die,verschrottet.,Soldaten,als,um,große,die,täglichen,dichten,defekt,Grases,aus,Planet,Dezember,drei,um,Kunsteis,die,Untergrund,Gras,mehr,aus,dass,nan,artgerecht,die,verschrottet.,Müll.,Besucher.,nan,ml,Stimmung,Energie.,nichts,Schaumstoff,wiedergewählt.,große,nan,Energie.,jeden.,sie,ml,Müll.,sie,Wurst,mehr,nichts,jeden,Hauptbahnhof.,Flut,Esslöffel,ruhig,Alkohol,Tupperware,seiner,köstlichen,eine,"vermiest,",wiedergewählt.,den,dichten,kaltem,er,eine,Herrn,Abduschen,Besucher.,nan,Kraftstoff,Schmuck,nan,nan,Soldaten,Herrn,,,,,,,,,,,,,,,,,,,,,,,10,0,10,0,0,6,6,6,,,,,,,,,space,0.458798885345,,,,,2017_Feb_02_1522,59.3527425659,spr_backupper,001,Mi15,
,mit,einmal,selber,nan,Fall,nan,Besatz,Boden,Problemen,war.,jede,dem,Frau,haftbar.,nan,nan,zur,Tee,Wein,Slums.,ganz,warmen,Kaffee,zur,Slums.,nan,des,einmal,jede,Menge,Wohnung.,Einsatz,Stoff,war.,zwängen.,dem,ganz,stattfinden.,Tage.,Nadelhölzer,eingesprüht.,Wohnung.,liegen.,zwängen.,als,Japan.,das,nan,gehalten.,Probleme,nan,nan,nan,nan,warmer,ziemlich,nan,mitbringen.,gefertigt.,nan,Menge,nan,nan,nan,überführt,warme,nan,überführt,mit,als,mitbringen.,Fall,nan,zurückgekehrt.,warmem,diskutiert.,verdünnt.,ist.,Frau,Weins,Sammlung,dass,nan,Boden,Gewebe,Saft,trug.,Sammlung,Gantenbein.,gehärtet.,nan,nan,fahren.,umgearbeitet.,nan,nan,des,Gantenbeins.,,,,,,,,,,,,,,,,,,,,,,,10,0,10,0,0,7,7,7,,,,,,,,,space,0.548081874847,,,,,2017_Feb_02_1522,59.3527425659,spr_backupper,001,Mi15,
,an,Rilke,kaufen.,nan,genug.,nan,rekonstruiert.,berührt.,im,nan,Menge,Haus,gepasst.,nan,nan,nan,Schule.,wieder,schon,nan,deutlich.,Honigs,wiederbelebt.,Schule.,nan,nan,zweiten,Rilke.,Menge,dunkler,nan,sinken.,gefertigt.,nan,nan,Haus,deutlich.,nan,nan,umzusetzen.,nan,nan,nan,nan,gerne.,nan,Medikament,nan,nan,im,nan,nan,nan,nan,Milch.,vermiest.,nan,nan,nan,nan,dunkle,nan,nan,nan,wurden.,Milch.,nan,wurden.,an,gerne.,nan,genug.,nan,nan,Honig,nan,nan,nan,gepasst,schon,dumme,es,nan,berührt.,wiederhergestellt.,besprochen.,nan,dummer,nan,nan,nan,nan,nan,nan,nan,nan,zweiten,nan,,,,,,,,,,,,,,,,,,,,,,,10,0,10,0,0,8,8,8,,,,,,,,,space,0.356306791306,,,,,2017_Feb_02_1522,59.3527425659,spr_backupper,001,Mi15,
,,,,,,,,,,,,,,,,,,,,,,,,,,,,,,,,,,,,,,,,,,,,,,,,,,,,,,,,,,,,,,,,,,,,,,,,,,,,,,,,,,,,,,,,,,,,,,,,,,,,,,,,,,,,,,,,,,,,,,,,,10,0,10,0,,,,,,,,,,,,,,,None,n,2.76327300072,,2017_Feb_02_1522,59.3527425659,spr_backupper,001,Mi15,
,Ich,In,Jugendliche,Beträchtliche,100,Es,Das,Nicht,In,Die,Man,Wir,Die,Manche,Außer,Sie,Die,Ich,Bei,Am,Im,Er,Die,Die,Am,Die,Bei,In,Man,Mit,Sie,Ihr,Er,Die,Wir,Wir,Im,Unter,Der,Jetzt,Die,Sie,Jungtiere,Wir,Wir,Die,In,Beträchtliche,In,In,Die,Viele,Wir,Es,In,Dass,Die,Außer,Alle,Er,Mit,Sie,Die,Außer,Es,In,Viele,Es,Ich,Wir,Außer,100,Die,Als,Er,Fernab,Die,Die,Die,Bei,Sie,Es,Er,Nicht,Danach,Sie,Die,Sie,Die,Die,Wir,Dort,Wir,Die,Walter,Dort,Bei,Die,,,,,,,,,,,,,,,,,,,,,,,11,0,11,0,0,0,0,0,,,,,,,space,0.636943101883,space,0.320972919464,,,,,2017_Feb_02_1522,59.3527425659,spr_backupper,001,Mi15,
,nehme,meinem,können,Stücke,g,wurden,Tuch,ein,der,Uhr,machte,haben,Schuhe,Kreditnehmer,dem,verbrauchen,Kinder,wurde,unserer,äußeren,Fernrohr,stellt,müden,Kinder,äußersten,Autos,der,meinem,machte,dieser,verlassen,Blutdruck,hat,Uhr,mussten,haben,Fernrohr,keinen,Flug,ist,Eislaufbahnen,verlassen,sollten,mussten,übergaben,"Uhr,",einer,Stücke,diesem,der,Autos,Tonnen,hatten,wurden,den,es,Schule,dem,Betten,wurde,dieser,verbrauchen,Schule,den,waren,den,Tonnen,waren,nehme,übergaben,das,g,Linie,die,stellt,des,Lösung,Teilnehmerinnen,Schuhe,unserer,hatte,hat,wurde,ein,wurde,haben,Uhr,hatte,Gäste,Formen,hatten,türmen,konnten,Stücke,Scheel,türmen,der,Gäste,,,,,,,,,,,,,,,,,,,,,,,11,0,11,0,0,1,1,1,,,,,,,,,space,0.369174957275,,,,,2017_Feb_02_1522,59.3527425659,spr_backupper,001,Mi15,
,eine,Studium,Kleidung,saftiges,brauner,Eimer,wurde,Tropfen,Tat,schlug,mal,jede,in,sind,Bürgermeister,60,fuhren,damals,Ankunft,Rand,sahen,die,Teilnehmer,fuhren,Rand,beider,Feier,Studium,mal,Methode,wegen,kann,ein,schlug,uns,jede,sahen,Umständen,zum,genau,wurden,wegen,immer,uns,das,die,Studie,saftigen,Zirkus,Tat,beider,gebrauchter,in,Eimer,Kakao,"regnete,",verbraucht,Essen,wurden,trotz,Methode,60,verbraucht,Bürgermeister,nur,Kakao,gebrauchte,nur,eine,dem,Essen,braunen,101,Sonne,die,Rummels,wird,wussten,in,Ankunft,keine,uns,trotz,Tropfen,die,die,war,keine,suchen,wurden,in,sich,dann,wurden,war,sich,Feier,suchen,,,,,,,,,,,,,,,,,,,,,,,11,0,11,0,0,2,2,2,,,,,,,,,space,0.269320964813,,,,,2017_Feb_02_1522,59.3527425659,spr_backupper,001,Mi15,
,große,habe,bei,Fleisch,Zucker,roter,dann,königlichen,wissen,"sporadisch,",wieder,Menge,Größe,mit,beschuldigten,Liter,mit,schnell,stand,der,wir,Masse,wurden,mit,der,beteiligten,gedachte,las,wieder,kann,dem,schon,Hemd,"sporadisch,",durch,Menge,wir,können,Mond,die,mit,des,auf,durch,Auto,er,wurde,Fleischs,werden,wissen,beteiligter,Kleidung,Dänemark,rote,gehören,hat,260.000,kann,mit,des,kann,Liter,260.000,beschuldigten,kleinere,gehören,Kleidung,kleinere,große,Mann,kann,Zuckers,hält,"unterging,",Masse,wurde,mit,überwiegend,Größe,stand,Lust,die,dem,königliches,Leinwand,Erlebnisse,aus,Lust,die,unter,Dänemark,Berge,mit,aus,der,Berge,gedachte,die,,,,,,,,,,,,,,,,,,,,,,,11,0,11,0,0,3,3,3,,,,,,,,,space,0.300065994263,,,,,2017_Feb_02_1522,59.3527425659,spr_backupper,001,Mi15,
,Packung,ich,ausreichendem,wurden,sind,Farbe,mit,Bluts,wir,obwohl,viel,alten,36,"sämtlichem,",die,sprudelndes,solch,dank,ein,Stadt,den,mit,mit,solchen,Stadt,Fahrer,man,ich,viel,man,schönen,bei,aus,obschon,Büschel,alten,den,Neuwahlen,dauerte,richtige,dauerhaftem,schönen,warmem,Büschel,dem,"trug,",jetzt,wurden,die,wir,Fahrer,landen,gelegentlich,Farbe,immer,uns,Kilowattstunden,ich,"üblichem,",bekannten,man,sprudelnden,Kilowattstunden,die,"Delikte,",immer,landen,"Delikte,",Packung,das,ich,sind,nicht,war,mit,schon,"reichlichem,","nicht,",36,ein,auf,Stimmung,bekannten,Blut,aus,bei,"Japan,",auf,Wohnung,"regelmäßigem,",einen,schmutziger,"minimalem,","wertvollem,",vierte,schmutzige,man,Wohnung,,,,,,,,,,,,,,,,,,,,,,,11,0,11,0,0,4,4,4,,,,,,,,,space,0.259569168091,,,,,2017_Feb_02_1522,59.3527425659,spr_backupper,001,Mi15,
,salziger,mehr,monatlichem,serviert.,auf,geschleudert.,"reichem,",hat,von,sie,Lärm,Kram,hätten,künftigem,Störenfriede,Trinkwasser.,unzureichenden,täglichem,Glas,liegen,roten,einem,zusätzlichem,unzureichenden,liegen,wurden,den,mehr,Lärm,eine,Wetter,minimalem,feinem,sie,frischen,Krams,roten,vor,ungefähr,"Zeit,",feinem,Wetters,weichem,frisches,Mann,war,"nachgewiesen,",serviert.,Tiere,um,wurden,im,einen,geschleudert.,350,die,elektrischer,leider,harten,Skandals,eine,Trinkwassers.,elektrische,Störenfriede,derer,350,im,deren,salzige,Auto,leider,auf,am,die,einem,immer,purem,was,würden,Glas,noch,ziemlich,Skandal,hat,seltenem,"frischem,",die,noch,des,kaltem,gelegentlichen,Wäsche.,sauberen,klassischen,Bundespräsident.,Wäsche.,der,des,,,,,,,,,,,,,,,,,,,,,,,11,0,11,0,0,5,5,5,,,,,,,,,space,0.285009860992,,,,,2017_Feb_02_1522,59.3527425659,spr_backupper,001,Mi15,
,Wurst,als,Taschengeld,nan,jeden,nan,goldenen,den,den,defekt,um,aus,seiner,Einkommen,jeden.,nan,Helmen,grünen,köstlicher,die,Planeten,Esslöffel,schwarzem,Helmen,die,verschrottet.,Soldaten,als,um,große,die,täglichen,dichten,defekt,Grases,aus,Planet,Dezember,drei,um,Kunsteis,die,Untergrund,Gras,mehr,aus,dass,nan,artgerecht,die,verschrottet.,Müll.,Besucher.,nan,ml,Stimmung,Energie.,nichts,Schaumstoff,wiedergewählt.,große,nan,Energie.,jeden.,sie,ml,Müll.,sie,Wurst,mehr,nichts,jeden,Hauptbahnhof.,Flut,Esslöffel,ruhig,Alkohol,Tupperware,seiner,köstlichen,eine,"vermiest,",wiedergewählt.,den,dichten,kaltem,er,eine,Herrn,Abduschen,Besucher.,nan,Kraftstoff,Schmuck,nan,nan,Soldaten,Herrn,,,,,,,,,,,,,,,,,,,,,,,11,0,11,0,0,6,6,6,,,,,,,,,space,0.335448026657,,,,,2017_Feb_02_1522,59.3527425659,spr_backupper,001,Mi15,
,mit,einmal,selber,nan,Fall,nan,Besatz,Boden,Problemen,war.,jede,dem,Frau,haftbar.,nan,nan,zur,Tee,Wein,Slums.,ganz,warmen,Kaffee,zur,Slums.,nan,des,einmal,jede,Menge,Wohnung.,Einsatz,Stoff,war.,zwängen.,dem,ganz,stattfinden.,Tage.,Nadelhölzer,eingesprüht.,Wohnung.,liegen.,zwängen.,als,Japan.,das,nan,gehalten.,Probleme,nan,nan,nan,nan,warmer,ziemlich,nan,mitbringen.,gefertigt.,nan,Menge,nan,nan,nan,überführt,warme,nan,überführt,mit,als,mitbringen.,Fall,nan,zurückgekehrt.,warmem,diskutiert.,verdünnt.,ist.,Frau,Weins,Sammlung,dass,nan,Boden,Gewebe,Saft,trug.,Sammlung,Gantenbein.,gehärtet.,nan,nan,fahren.,umgearbeitet.,nan,nan,des,Gantenbeins.,,,,,,,,,,,,,,,,,,,,,,,11,0,11,0,0,7,7,7,,,,,,,,,space,0.386725902557,,,,,2017_Feb_02_1522,59.3527425659,spr_backupper,001,Mi15,
,an,Rilke,kaufen.,nan,genug.,nan,rekonstruiert.,berührt.,im,nan,Menge,Haus,gepasst.,nan,nan,nan,Schule.,wieder,schon,nan,deutlich.,Honigs,wiederbelebt.,Schule.,nan,nan,zweiten,Rilke.,Menge,dunkler,nan,sinken.,gefertigt.,nan,nan,Haus,deutlich.,nan,nan,umzusetzen.,nan,nan,nan,nan,gerne.,nan,Medikament,nan,nan,im,nan,nan,nan,nan,Milch.,vermiest.,nan,nan,nan,nan,dunkle,nan,nan,nan,wurden.,Milch.,nan,wurden.,an,gerne.,nan,genug.,nan,nan,Honig,nan,nan,nan,gepasst,schon,dumme,es,nan,berührt.,wiederhergestellt.,besprochen.,nan,dummer,nan,nan,nan,nan,nan,nan,nan,nan,zweiten,nan,,,,,,,,,,,,,,,,,,,,,,,11,0,11,0,0,8,8,8,,,,,,,,,space,0.329830169678,,,,,2017_Feb_02_1522,59.3527425659,spr_backupper,001,Mi15,
,den,gelesen.,nan,nan,nan,nan,nan,nan,Landkreis.,nan,heißer,geschafft.,nan,nan,nan,nan,nan,fit.,auf,nan,nan,her.,nan,nan,nan,nan,Weltkriegs.,nan,heiße,Materie,nan,nan,nan,nan,nan,geschafft.,nan,nan,nan,nan,nan,nan,nan,nan,nan,nan,nicht,nan,nan,Landkreis.,nan,nan,nan,nan,nan,nan,nan,nan,nan,nan,Materie,nan,nan,nan,nan,nan,nan,nan,den,nan,nan,nan,nan,nan,her.,nan,nan,nan,haben.,auf,Sprüche.,regnete.,nan,nan,nan,nan,nan,Sprüche.,nan,nan,nan,nan,nan,nan,nan,nan,Weltkriegs.,nan,,,,,,,,,,,,,,,,,,,,,,,11,0,11,0,0,9,9,9,,,,,,,,,space,0.42000579834,,,,,2017_Feb_02_1522,59.3527425659,spr_backupper,001,Mi15,
,,,,,,,,,,,,,,,,,,,,,,,,,,,,,,,,,,,,,,,,,,,,,,,,,,,,,,,,,,,,,,,,,,,,,,,,,,,,,,,,,,,,,,,,,,,,,,,,,,,,,,,,,,,,,,,,,,,,,,,,,11,0,11,0,,,,,,,,,,,,,,,None,j,10.0954530239,,2017_Feb_02_1522,59.3527425659,spr_backupper,001,Mi15,
,Ich,In,Jugendliche,Beträchtliche,100,Es,Das,Nicht,In,Die,Man,Wir,Die,Manche,Außer,Sie,Die,Ich,Bei,Am,Im,Er,Die,Die,Am,Die,Bei,In,Man,Mit,Sie,Ihr,Er,Die,Wir,Wir,Im,Unter,Der,Jetzt,Die,Sie,Jungtiere,Wir,Wir,Die,In,Beträchtliche,In,In,Die,Viele,Wir,Es,In,Dass,Die,Außer,Alle,Er,Mit,Sie,Die,Außer,Es,In,Viele,Es,Ich,Wir,Außer,100,Die,Als,Er,Fernab,Die,Die,Die,Bei,Sie,Es,Er,Nicht,Danach,Sie,Die,Sie,Die,Die,Wir,Dort,Wir,Die,Walter,Dort,Bei,Die,,,,,,,,,,,,,,,,,,,,,,,12,0,12,0,0,0,0,0,,,,,,,space,1.02361392975,space,0.669831037521,,,,,2017_Feb_02_1522,59.3527425659,spr_backupper,001,Mi15,
,nehme,meinem,können,Stücke,g,wurden,Tuch,ein,der,Uhr,machte,haben,Schuhe,Kreditnehmer,dem,verbrauchen,Kinder,wurde,unserer,äußeren,Fernrohr,stellt,müden,Kinder,äußersten,Autos,der,meinem,machte,dieser,verlassen,Blutdruck,hat,Uhr,mussten,haben,Fernrohr,keinen,Flug,ist,Eislaufbahnen,verlassen,sollten,mussten,übergaben,"Uhr,",einer,Stücke,diesem,der,Autos,Tonnen,hatten,wurden,den,es,Schule,dem,Betten,wurde,dieser,verbrauchen,Schule,den,waren,den,Tonnen,waren,nehme,übergaben,das,g,Linie,die,stellt,des,Lösung,Teilnehmerinnen,Schuhe,unserer,hatte,hat,wurde,ein,wurde,haben,Uhr,hatte,Gäste,Formen,hatten,türmen,konnten,Stücke,Scheel,türmen,der,Gäste,,,,,,,,,,,,,,,,,,,,,,,12,0,12,0,0,1,1,1,,,,,,,,,space,0.323030948639,,,,,2017_Feb_02_1522,59.3527425659,spr_backupper,001,Mi15,
,eine,Studium,Kleidung,saftiges,brauner,Eimer,wurde,Tropfen,Tat,schlug,mal,jede,in,sind,Bürgermeister,60,fuhren,damals,Ankunft,Rand,sahen,die,Teilnehmer,fuhren,Rand,beider,Feier,Studium,mal,Methode,wegen,kann,ein,schlug,uns,jede,sahen,Umständen,zum,genau,wurden,wegen,immer,uns,das,die,Studie,saftigen,Zirkus,Tat,beider,gebrauchter,in,Eimer,Kakao,"regnete,",verbraucht,Essen,wurden,trotz,Methode,60,verbraucht,Bürgermeister,nur,Kakao,gebrauchte,nur,eine,dem,Essen,braunen,101,Sonne,die,Rummels,wird,wussten,in,Ankunft,keine,uns,trotz,Tropfen,die,die,war,keine,suchen,wurden,in,sich,dann,wurden,war,sich,Feier,suchen,,,,,,,,,,,,,,,,,,,,,,,12,0,12,0,0,2,2,2,,,,,,,,,space,0.349431037903,,,,,2017_Feb_02_1522,59.3527425659,spr_backupper,001,Mi15,
,große,habe,bei,Fleisch,Zucker,roter,dann,königlichen,wissen,"sporadisch,",wieder,Menge,Größe,mit,beschuldigten,Liter,mit,schnell,stand,der,wir,Masse,wurden,mit,der,beteiligten,gedachte,las,wieder,kann,dem,schon,Hemd,"sporadisch,",durch,Menge,wir,können,Mond,die,mit,des,auf,durch,Auto,er,wurde,Fleischs,werden,wissen,beteiligter,Kleidung,Dänemark,rote,gehören,hat,260.000,kann,mit,des,kann,Liter,260.000,beschuldigten,kleinere,gehören,Kleidung,kleinere,große,Mann,kann,Zuckers,hält,"unterging,",Masse,wurde,mit,überwiegend,Größe,stand,Lust,die,dem,königliches,Leinwand,Erlebnisse,aus,Lust,die,unter,Dänemark,Berge,mit,aus,der,Berge,gedachte,die,,,,,,,,,,,,,,,,,,,,,,,12,0,12,0,0,3,3,3,,,,,,,,,space,0.301321983337,,,,,2017_Feb_02_1522,59.3527425659,spr_backupper,001,Mi15,
,Packung,ich,ausreichendem,wurden,sind,Farbe,mit,Bluts,wir,obwohl,viel,alten,36,"sämtlichem,",die,sprudelndes,solch,dank,ein,Stadt,den,mit,mit,solchen,Stadt,Fahrer,man,ich,viel,man,schönen,bei,aus,obschon,Büschel,alten,den,Neuwahlen,dauerte,richtige,dauerhaftem,schönen,warmem,Büschel,dem,"trug,",jetzt,wurden,die,wir,Fahrer,landen,gelegentlich,Farbe,immer,uns,Kilowattstunden,ich,"üblichem,",bekannten,man,sprudelnden,Kilowattstunden,die,"Delikte,",immer,landen,"Delikte,",Packung,das,ich,sind,nicht,war,mit,schon,"reichlichem,","nicht,",36,ein,auf,Stimmung,bekannten,Blut,aus,bei,"Japan,",auf,Wohnung,"regelmäßigem,",einen,schmutziger,"minimalem,","wertvollem,",vierte,schmutzige,man,Wohnung,,,,,,,,,,,,,,,,,,,,,,,12,0,12,0,0,4,4,4,,,,,,,,,space,0.310648202896,,,,,2017_Feb_02_1522,59.3527425659,spr_backupper,001,Mi15,
,salziger,mehr,monatlichem,serviert.,auf,geschleudert.,"reichem,",hat,von,sie,Lärm,Kram,hätten,künftigem,Störenfriede,Trinkwasser.,unzureichenden,täglichem,Glas,liegen,roten,einem,zusätzlichem,unzureichenden,liegen,wurden,den,mehr,Lärm,eine,Wetter,minimalem,feinem,sie,frischen,Krams,roten,vor,ungefähr,"Zeit,",feinem,Wetters,weichem,frisches,Mann,war,"nachgewiesen,",serviert.,Tiere,um,wurden,im,einen,geschleudert.,350,die,elektrischer,leider,harten,Skandals,eine,Trinkwassers.,elektrische,Störenfriede,derer,350,im,deren,salzige,Auto,leider,auf,am,die,einem,immer,purem,was,würden,Glas,noch,ziemlich,Skandal,hat,seltenem,"frischem,",die,noch,des,kaltem,gelegentlichen,Wäsche.,sauberen,klassischen,Bundespräsident.,Wäsche.,der,des,,,,,,,,,,,,,,,,,,,,,,,12,0,12,0,0,5,5,5,,,,,,,,,space,0.324388027191,,,,,2017_Feb_02_1522,59.3527425659,spr_backupper,001,Mi15,
,Wurst,als,Taschengeld,nan,jeden,nan,goldenen,den,den,defekt,um,aus,seiner,Einkommen,jeden.,nan,Helmen,grünen,köstlicher,die,Planeten,Esslöffel,schwarzem,Helmen,die,verschrottet.,Soldaten,als,um,große,die,täglichen,dichten,defekt,Grases,aus,Planet,Dezember,drei,um,Kunsteis,die,Untergrund,Gras,mehr,aus,dass,nan,artgerecht,die,verschrottet.,Müll.,Besucher.,nan,ml,Stimmung,Energie.,nichts,Schaumstoff,wiedergewählt.,große,nan,Energie.,jeden.,sie,ml,Müll.,sie,Wurst,mehr,nichts,jeden,Hauptbahnhof.,Flut,Esslöffel,ruhig,Alkohol,Tupperware,seiner,köstlichen,eine,"vermiest,",wiedergewählt.,den,dichten,kaltem,er,eine,Herrn,Abduschen,Besucher.,nan,Kraftstoff,Schmuck,nan,nan,Soldaten,Herrn,,,,,,,,,,,,,,,,,,,,,,,12,0,12,0,0,6,6,6,,,,,,,,,space,0.151832103729,,,,,2017_Feb_02_1522,59.3527425659,spr_backupper,001,Mi15,
,mit,einmal,selber,nan,Fall,nan,Besatz,Boden,Problemen,war.,jede,dem,Frau,haftbar.,nan,nan,zur,Tee,Wein,Slums.,ganz,warmen,Kaffee,zur,Slums.,nan,des,einmal,jede,Menge,Wohnung.,Einsatz,Stoff,war.,zwängen.,dem,ganz,stattfinden.,Tage.,Nadelhölzer,eingesprüht.,Wohnung.,liegen.,zwängen.,als,Japan.,das,nan,gehalten.,Probleme,nan,nan,nan,nan,warmer,ziemlich,nan,mitbringen.,gefertigt.,nan,Menge,nan,nan,nan,überführt,warme,nan,überführt,mit,als,mitbringen.,Fall,nan,zurückgekehrt.,warmem,diskutiert.,verdünnt.,ist.,Frau,Weins,Sammlung,dass,nan,Boden,Gewebe,Saft,trug.,Sammlung,Gantenbein.,gehärtet.,nan,nan,fahren.,umgearbeitet.,nan,nan,des,Gantenbeins.,,,,,,,,,,,,,,,,,,,,,,,12,0,12,0,0,7,7,7,,,,,,,,,space,0.215699911118,,,,,2017_Feb_02_1522,59.3527425659,spr_backupper,001,Mi15,
,an,Rilke,kaufen.,nan,genug.,nan,rekonstruiert.,berührt.,im,nan,Menge,Haus,gepasst.,nan,nan,nan,Schule.,wieder,schon,nan,deutlich.,Honigs,wiederbelebt.,Schule.,nan,nan,zweiten,Rilke.,Menge,dunkler,nan,sinken.,gefertigt.,nan,nan,Haus,deutlich.,nan,nan,umzusetzen.,nan,nan,nan,nan,gerne.,nan,Medikament,nan,nan,im,nan,nan,nan,nan,Milch.,vermiest.,nan,nan,nan,nan,dunkle,nan,nan,nan,wurden.,Milch.,nan,wurden.,an,gerne.,nan,genug.,nan,nan,Honig,nan,nan,nan,gepasst,schon,dumme,es,nan,berührt.,wiederhergestellt.,besprochen.,nan,dummer,nan,nan,nan,nan,nan,nan,nan,nan,zweiten,nan,,,,,,,,,,,,,,,,,,,,,,,12,0,12,0,0,8,8,8,,,,,,,,,space,0.609748840332,,,,,2017_Feb_02_1522,59.3527425659,spr_backupper,001,Mi15,
,,,,,,,,,,,,,,,,,,,,,,,,,,,,,,,,,,,,,,,,,,,,,,,,,,,,,,,,,,,,,,,,,,,,,,,,,,,,,,,,,,,,,,,,,,,,,,,,,,,,,,,,,,,,,,,,,,,,,,,,,12,0,12,0,,,,,,,,,,,,,,,None,j,3.45477581024,,2017_Feb_02_1522,59.3527425659,spr_backupper,001,Mi15,
,Ich,In,Jugendliche,Beträchtliche,100,Es,Das,Nicht,In,Die,Man,Wir,Die,Manche,Außer,Sie,Die,Ich,Bei,Am,Im,Er,Die,Die,Am,Die,Bei,In,Man,Mit,Sie,Ihr,Er,Die,Wir,Wir,Im,Unter,Der,Jetzt,Die,Sie,Jungtiere,Wir,Wir,Die,In,Beträchtliche,In,In,Die,Viele,Wir,Es,In,Dass,Die,Außer,Alle,Er,Mit,Sie,Die,Außer,Es,In,Viele,Es,Ich,Wir,Außer,100,Die,Als,Er,Fernab,Die,Die,Die,Bei,Sie,Es,Er,Nicht,Danach,Sie,Die,Sie,Die,Die,Wir,Dort,Wir,Die,Walter,Dort,Bei,Die,,,,,,,,,,,,,,,,,,,,,,,13,0,13,0,0,0,0,0,,,,,,,None,,space,0.0298218727112,,,,,2017_Feb_02_1522,59.3527425659,spr_backupper,001,Mi15,
