text,sent48,sent9,sent8,sent15,sent3,sent2,sent1,sent14,sent7,sent6,sent5,sent4,sent57,sent56,sent55,sent54,sent53,sent52,sent51,sent50,sent13,sent12,sent11,sent10,sent17,sent16,sent59,sent58,sent93,sent92,sent91,sent90,sent97,sent96,sent95,sent94,sent98,sent22,sent23,sent20,sent21,sent26,sent27,sent24,sent25,sent28,sent29,sent68,sent69,sent66,sent67,sent64,sent65,sent62,sent63,sent60,sent61,sent31,sent30,sent33,sent32,sent35,sent34,sent37,sent36,sent39,sent38,sent79,sent78,sent75,sent74,sent77,sent76,sent71,sent70,sent73,sent72,sent19,sent49,sent18,sent44,sent45,sent84,sent85,sent86,sent87,sent80,sent81,sent82,sent83,sent40,sent41,sent42,sent43,sent88,sent89,sent46,sent47,intros.thisRepN,intros.thisTrialN,intros.thisN,intros.thisIndex,trials.thisRepN,trials.thisTrialN,trials.thisN,trials.thisIndex,testWords.thisRepN,testWords.thisTrialN,testWords.thisN,testWords.thisIndex,test1,test3,test2,test5,test4,test7,test6,test9,test8,test10,realTrials.thisRepN,realTrials.thisTrialN,realTrials.thisN,realTrials.thisIndex,words.thisRepN,words.thisTrialN,words.thisN,words.thisIndex,key_resp_3.keys,key_resp_3.rt,key_resp_8.keys,key_resp_10.keys,key_resp_10.rt,key_resp_6.keys,wordRead.keys,wordRead.rt,key_resp_5.keys,questAnswer.keys,questAnswer.rt,key_resp_6.rt,date,frameRate,expName,session,participant,
"Vielen Dank, dass Sie an diesem Experiment teilnehmen. Vor dem eigentlichen Experiment sehen Sie nun zuerst eine kurze Erläuterung, und Sie absolvieren ein kurze Übungsphase.

Das Experiment dauert insgesamt nicht mehr als 45 Minuten.",,,,,,,,,,,,,,,,,,,,,,,,,,,,,,,,,,,,,,,,,,,,,,,,,,,,,,,,,,,,,,,,,,,,,,,,,,,,,,,,,,,,,,,,,,,,,,,,,,,0,0,0,0,,,,,,,,,,,,,,,,,,,,,,,,,,,,,,,,,,,,,,,2017_Feb_03_1302,59.6317148349,spr_backupper,001,Mi17,
"In diesem Experiment lesen Sie deutsche Sätze, indem Sie sich von Wort zu Wort mit der Leertaste durch den Satz klicken.",,,,,,,,,,,,,,,,,,,,,,,,,,,,,,,,,,,,,,,,,,,,,,,,,,,,,,,,,,,,,,,,,,,,,,,,,,,,,,,,,,,,,,,,,,,,,,,,,,,0,1,1,1,,,,,,,,,,,,,,,,,,,,,,,,,,,,,,,,,,,,,,,2017_Feb_03_1302,59.6317148349,spr_backupper,001,Mi17,
"Sie sehen dabei immer nur das aktuelle Wort. Die Lesegeschwindigkeit bestimmen Sie vollständig selber. Vor jedem Satz sehen Sie in der Bildschirmmitte für zwei Sekunden ein + an der Stelle, an der dann die Wörter erscheinen.",,,,,,,,,,,,,,,,,,,,,,,,,,,,,,,,,,,,,,,,,,,,,,,,,,,,,,,,,,,,,,,,,,,,,,,,,,,,,,,,,,,,,,,,,,,,,,,,,,,0,2,2,2,,,,,,,,,,,,,,,,,,,,,,,,,,,,,,,,,,,,,,,2017_Feb_03_1302,59.6317148349,spr_backupper,001,Mi17,
"Nach jedem Satz wird Ihnen eine Ja/Nein-Verständnisfrage zum zuvor gelesenen Satz gestellt, die Sie mit der J-Taste für "Ja" und der N-Taste für "Nein" beantworten. Antworten Sie möglichst spontan und ohne lange Nachzudenken.",,,,,,,,,,,,,,,,,,,,,,,,,,,,,,,,,,,,,,,,,,,,,,,,,,,,,,,,,,,,,,,,,,,,,,,,,,,,,,,,,,,,,,,,,,,,,,,,,,,0,3,3,3,,,,,,,,,,,,,,,,,,,,,,,,,,,,,,,,,,,,,,,2017_Feb_03_1302,59.6317148349,spr_backupper,001,Mi17,
"Unterbrechen Sie das Experiment bitte auf keinen Fall, stellen Sie den ExperimentatorInnen nach dem Experimentbeginn keine Fragen, und lassen Sie sich nicht durch Umgebungsgeräusche ablenken.",,,,,,,,,,,,,,,,,,,,,,,,,,,,,,,,,,,,,,,,,,,,,,,,,,,,,,,,,,,,,,,,,,,,,,,,,,,,,,,,,,,,,,,,,,,,,,,,,,,0,4,4,4,,,,,,,,,,,,,,,,,,,,,,,,,,,,,,,,,,,,,,,2017_Feb_03_1302,59.6317148349,spr_backupper,001,Mi17,
"Im nächsten Schritt beantworten Sie bitte eine Frage zu Ihren Deutschkenntnissen. Danach beginnt eine Übungseinheit, mit der Sie sich an die Art der Durchführung dieses Experiments gewöhnen können.",,,,,,,,,,,,,,,,,,,,,,,,,,,,,,,,,,,,,,,,,,,,,,,,,,,,,,,,,,,,,,,,,,,,,,,,,,,,,,,,,,,,,,,,,,,,,,,,,,,0,5,5,5,,,,,,,,,,,,,,,,,,,,,,,,,,,,,,,,,,,,,,,2017_Feb_03_1302,59.6317148349,spr_backupper,001,Mi17,
,,,,,,,,,,,,,,,,,,,,,,,,,,,,,,,,,,,,,,,,,,,,,,,,,,,,,,,,,,,,,,,,,,,,,,,,,,,,,,,,,,,,,,,,,,,,,,,,,,,,,,,,,,,,,,,,,,,,,,,,,,,,,,,,,j,11.3864760399,,,,,,,,,,,2017_Feb_03_1302,59.6317148349,spr_backupper,001,Mi17,
,,,,,,,,,,,,,,,,,,,,,,,,,,,,,,,,,,,,,,,,,,,,,,,,,,,,,,,,,,,,,,,,,,,,,,,,,,,,,,,,,,,,,,,,,,,,,,,,,,,,,,,0,0,0,0,,,,,,,,,,,,,,,,,,,,,,,,,None,,,,,,,,,,2017_Feb_03_1302,59.6317148349,spr_backupper,001,Mi17,
,,,,,,,,,,,,,,,,,,,,,,,,,,,,,,,,,,,,,,,,,,,,,,,,,,,,,,,,,,,,,,,,,,,,,,,,,,,,,,,,,,,,,,,,,,,,,,,,,,,,,,,1,0,1,0,,,,,,,,,,,,,,,,,,,,,,,,,None,,,,,,,,,,2017_Feb_03_1302,59.6317148349,spr_backupper,001,Mi17,
,,,,,,,,,,,,,,,,,,,,,,,,,,,,,,,,,,,,,,,,,,,,,,,,,,,,,,,,,,,,,,,,,,,,,,,,,,,,,,,,,,,,,,,,,,,,,,,,,,,,,,,2,0,2,0,,,,,,,,,,,,,,,,,,,,,,,,,None,,,,,,,,,,2017_Feb_03_1302,59.6317148349,spr_backupper,001,Mi17,
,,,,,,,,,,,,,,,,,,,,,,,,,,,,,,,,,,,,,,,,,,,,,,,,,,,,,,,,,,,,,,,,,,,,,,,,,,,,,,,,,,,,,,,,,,,,,,,,,,,,,,,3,0,3,0,,,,,,,,,,,,,,,,,,,,,,,,,None,,,,,,,,,,2017_Feb_03_1302,59.6317148349,spr_backupper,001,Mi17,
,,,,,,,,,,,,,,,,,,,,,,,,,,,,,,,,,,,,,,,,,,,,,,,,,,,,,,,,,,,,,,,,,,,,,,,,,,,,,,,,,,,,,,,,,,,,,,,,,,,,,,,4,0,4,0,,,,,,,,,,,,,,,,,,,,,,,,,None,,,,,,,,,,2017_Feb_03_1302,59.6317148349,spr_backupper,001,Mi17,
,,,,,,,,,,,,,,,,,,,,,,,,,,,,,,,,,,,,,,,,,,,,,,,,,,,,,,,,,,,,,,,,,,,,,,,,,,,,,,,,,,,,,,,,,,,,,,,,,,,,,,,5,0,5,0,,,,,,,,,,,,,,,,,,,,,,,,,None,,,,,,,,,,2017_Feb_03_1302,59.6317148349,spr_backupper,001,Mi17,
,,,,,,,,,,,,,,,,,,,,,,,,,,,,,,,,,,,,,,,,,,,,,,,,,,,,,,,,,,,,,,,,,,,,,,,,,,,,,,,,,,,,,,,,,,,,,,,,,,,,,,,6,0,6,0,,,,,,,,,,,,,,,,,,,,,,,,,None,,,,,,,,,,2017_Feb_03_1302,59.6317148349,spr_backupper,001,Mi17,
,,,,,,,,,,,,,,,,,,,,,,,,,,,,,,,,,,,,,,,,,,,,,,,,,,,,,,,,,,,,,,,,,,,,,,,,,,,,,,,,,,,,,,,,,,,,,,,,,,,,,,,7,0,7,0,,,,,,,,,,,,,,,,,,,,,,,,,None,,,,,,,,,,2017_Feb_03_1302,59.6317148349,spr_backupper,001,Mi17,
,,,,,,,,,,,,,,,,,,,,,,,,,,,,,,,,,,,,,,,,,,,,,,,,,,,,,,,,,,,,,,,,,,,,,,,,,,,,,,,,,,,,,,,,,,,,,,,,,,,,,,,8,0,8,0,,,,,,,,,,,,,,,,,,,,,,,,,None,,,,,,,,,,2017_Feb_03_1302,59.6317148349,spr_backupper,001,Mi17,
,,,,,,,,,,,,,,,,,,,,,,,,,,,,,,,,,,,,,,,,,,,,,,,,,,,,,,,,,,,,,,,,,,,,,,,,,,,,,,,,,,,,,,,,,,,,,,,,,,,,,,,9,0,9,0,,,,,,,,,,,,,,,,,,,,,,,,,None,,,,,,,,,,2017_Feb_03_1302,59.6317148349,spr_backupper,001,Mi17,
,,,,,,,,,,,,,,,,,,,,,,,,,,,,,,,,,,,,,,,,,,,,,,,,,,,,,,,,,,,,,,,,,,,,,,,,,,,,,,,,,,,,,,,,,,,,,,,,,,,,,,,,,,,,,,,,,,,,,,,,,,,,,,,,,,,,space,10.1796319485,,,,,,,,2017_Feb_03_1302,59.6317148349,spr_backupper,001,Mi17,
,In,Es,Sie,Sie,Die,Am,Es,100,Die,Die,Wir,Bei,Sie,Wir,Wir,Es,Dass,Die,Die,Bei,Jugendliche,Bei,Die,Viele,In,In,In,Danach,Walter,Man,Die,Nicht,Außer,Sie,In,Er,Ihr,Unter,Mit,Jungtiere,In,Nicht,Wir,Die,Es,Im,Die,Sie,Die,Die,Die,Fernab,Im,Ich,Ich,Außer,Die,Ich,Jetzt,Dort,Wir,Das,Wir,Alle,Die,Die,Beträchtliche,Er,Beträchtliche,In,Viele,Bei,Die,Sie,Am,Manche,Als,Die,Man,Außer,Er,Der,Er,Dort,Wir,Die,Es,Wir,Mit,Die,Er,Die,Außer,Die,In,100,Sie,Wir,,,,,,,,,,,,,,,,,,,,,,,0,0,0,0,0,0,0,0,,,,,,None,space,0.438996076584,,,,,2017_Feb_03_1302,59.6317148349,spr_backupper,001,Mi17,
,den,hat,hatte,verbrauchen,Eislaufbahnen,äußersten,wurden,g,"Uhr,",Teilnehmerinnen,konnten,unserer,haben,übergaben,hatten,waren,es,Uhr,Autos,der,können,der,Kinder,Tonnen,einer,meinem,der,wurde,Scheel,machte,Gäste,ein,dem,hatte,diesem,stellt,Blutdruck,keinen,dieser,sollten,der,ein,übergaben,Uhr,waren,Fernrohr,müden,verbrauchen,Uhr,Kinder,Linie,des,Fernrohr,wurde,nehme,das,Lösung,nehme,ist,türmen,mussten,Tuch,haben,Betten,Gäste,Schule,Stücke,wurde,Stücke,meinem,Tonnen,unserer,Schuhe,verlassen,äußeren,Kreditnehmer,die,Stücke,machte,dem,stellt,Flug,hat,türmen,mussten,Formen,wurden,haben,dieser,Schule,wurde,Schuhe,den,Autos,den,g,verlassen,hatten,,,,,,,,,,,,,,,,,,,,,,,0,0,0,0,0,1,1,1,,,,,,,space,0.435899019241,,,,,2017_Feb_03_1302,59.6317148349,spr_backupper,001,Mi17,
,Kakao,uns,keine,60,wurden,Rand,Eimer,brauner,die,wussten,dann,Ankunft,die,dem,in,nur,"regnete,",schlug,beider,Feier,Kleidung,Feier,fuhren,gebrauchte,Studie,Studium,Tat,die,war,mal,suchen,Tropfen,Bürgermeister,keine,Zirkus,die,kann,Umständen,Methode,immer,Tat,Tropfen,das,schlug,nur,sahen,Teilnehmer,60,war,fuhren,101,Rummels,sahen,damals,eine,Essen,wird,eine,genau,sich,uns,wurde,jede,wurden,suchen,verbraucht,saftiges,trotz,saftigen,Studium,gebrauchter,Ankunft,in,wegen,Rand,sind,Sonne,wurden,mal,Essen,die,zum,ein,sich,uns,wurden,Eimer,jede,Methode,verbraucht,trotz,in,Bürgermeister,beider,Kakao,braunen,wegen,in,,,,,,,,,,,,,,,,,,,,,,,0,0,0,0,0,2,2,2,,,,,,,space,0.350050926208,,,,,2017_Feb_03_1302,59.6317148349,spr_backupper,001,Mi17,
,gehören,die,Lust,Liter,mit,der,roter,Zucker,er,überwiegend,mit,stand,Erlebnisse,Mann,Dänemark,kleinere,hat,"sporadisch,",beteiligter,gedachte,bei,gedachte,mit,Kleidung,wurde,habe,wissen,Leinwand,der,wieder,die,königliches,beschuldigten,Lust,werden,Masse,schon,können,kann,auf,wissen,königlichen,Auto,"sporadisch,",kleinere,wir,wurden,Liter,aus,mit,hält,wurde,wir,schnell,große,kann,mit,große,die,Berge,durch,dann,Menge,mit,die,260.000,Fleisch,dem,Fleischs,las,Kleidung,stand,Größe,dem,der,mit,"unterging,",aus,wieder,kann,Masse,Mond,Hemd,Berge,durch,unter,rote,Menge,kann,260.000,des,Größe,beschuldigten,beteiligten,gehören,Zuckers,des,Dänemark,,,,,,,,,,,,,,,,,,,,,,,0,0,0,0,0,3,3,3,,,,,,,space,0.503241062164,,,,,2017_Feb_03_1302,59.6317148349,spr_backupper,001,Mi17,
,immer,Stimmung,auf,sprudelnden,dauerhaftem,Stadt,Farbe,sind,"trug,","nicht,","minimalem,",ein,bei,das,gelegentlich,"Delikte,",uns,obschon,Fahrer,man,ausreichendem,man,solchen,landen,jetzt,ich,wir,aus,vierte,viel,Wohnung,Blut,die,auf,die,mit,bei,Neuwahlen,man,warmem,wir,Bluts,dem,obwohl,"Delikte,",den,mit,sprudelndes,"Japan,",solch,nicht,schon,den,dank,Packung,ich,"reichlichem,",Packung,richtige,schmutziger,Büschel,mit,alten,"üblichem,",Wohnung,Kilowattstunden,wurden,bekannten,wurden,ich,landen,ein,36,schönen,Stadt,"sämtlichem,",war,"wertvollem,",viel,ich,mit,dauerte,aus,schmutzige,Büschel,"regelmäßigem,",Farbe,alten,man,Kilowattstunden,bekannten,36,die,Fahrer,immer,sind,schönen,einen,,,,,,,,,,,,,,,,,,,,,,,0,0,0,0,0,4,4,4,,,,,,,space,0.553931951523,,,,,2017_Feb_03_1302,59.6317148349,spr_backupper,001,Mi17,
,350,ziemlich,noch,Trinkwassers.,feinem,liegen,geschleudert.,auf,war,was,sauberen,Glas,"frischem,",Auto,einen,deren,die,sie,wurden,den,monatlichem,der,unzureichenden,im,"nachgewiesen,",mehr,um,seltenem,Bundespräsident.,Lärm,des,hat,Störenfriede,noch,Tiere,einem,minimalem,vor,eine,weichem,von,hat,Mann,sie,derer,roten,zusätzlichem,Trinkwasser.,die,unzureichenden,am,immer,roten,täglichem,salzige,leider,purem,salziger,"Zeit,",Wäsche.,frisches,"reichem,",Kram,harten,des,elektrische,serviert.,Skandal,serviert.,mehr,im,Glas,hätten,Wetter,liegen,künftigem,die,klassischen,Lärm,leider,einem,ungefähr,feinem,Wäsche.,frischen,kaltem,geschleudert.,Krams,eine,elektrischer,Skandals,würden,Störenfriede,wurden,350,auf,Wetters,gelegentlichen,,,,,,,,,,,,,,,,,,,,,,,0,0,0,0,0,5,5,5,,,,,,,space,0.674052000046,,,,,2017_Feb_03_1302,59.6317148349,spr_backupper,001,Mi17,
,,,,,,,,,,,,,,,,,,,,,,,,,,,,,,,,,,,,,,,,,,,,,,,,,,,,,,,,,,,,,,,,,,,,,,,,,,,,,,,,,,,,,,,,,,,,,,,,,,,,,,,,,,,,,,,,,,,,,,,,,0,0,0,0,,,,,,,,,,,,,None,n,4.4090681076,,2017_Feb_03_1302,59.6317148349,spr_backupper,001,Mi17,
,In,Es,Sie,Sie,Die,Am,Es,100,Die,Die,Wir,Bei,Sie,Wir,Wir,Es,Dass,Die,Die,Bei,Jugendliche,Bei,Die,Viele,In,In,In,Danach,Walter,Man,Die,Nicht,Außer,Sie,In,Er,Ihr,Unter,Mit,Jungtiere,In,Nicht,Wir,Die,Es,Im,Die,Sie,Die,Die,Die,Fernab,Im,Ich,Ich,Außer,Die,Ich,Jetzt,Dort,Wir,Das,Wir,Alle,Die,Die,Beträchtliche,Er,Beträchtliche,In,Viele,Bei,Die,Sie,Am,Manche,Als,Die,Man,Außer,Er,Der,Er,Dort,Wir,Die,Es,Wir,Mit,Die,Er,Die,Außer,Die,In,100,Sie,Wir,,,,,,,,,,,,,,,,,,,,,,,1,0,1,0,0,0,0,0,,,,,,None,space,0.169083118439,,,,,2017_Feb_03_1302,59.6317148349,spr_backupper,001,Mi17,
,den,hat,hatte,verbrauchen,Eislaufbahnen,äußersten,wurden,g,"Uhr,",Teilnehmerinnen,konnten,unserer,haben,übergaben,hatten,waren,es,Uhr,Autos,der,können,der,Kinder,Tonnen,einer,meinem,der,wurde,Scheel,machte,Gäste,ein,dem,hatte,diesem,stellt,Blutdruck,keinen,dieser,sollten,der,ein,übergaben,Uhr,waren,Fernrohr,müden,verbrauchen,Uhr,Kinder,Linie,des,Fernrohr,wurde,nehme,das,Lösung,nehme,ist,türmen,mussten,Tuch,haben,Betten,Gäste,Schule,Stücke,wurde,Stücke,meinem,Tonnen,unserer,Schuhe,verlassen,äußeren,Kreditnehmer,die,Stücke,machte,dem,stellt,Flug,hat,türmen,mussten,Formen,wurden,haben,dieser,Schule,wurde,Schuhe,den,Autos,den,g,verlassen,hatten,,,,,,,,,,,,,,,,,,,,,,,1,0,1,0,0,1,1,1,,,,,,,space,0.78885102272,,,,,2017_Feb_03_1302,59.6317148349,spr_backupper,001,Mi17,
,Kakao,uns,keine,60,wurden,Rand,Eimer,brauner,die,wussten,dann,Ankunft,die,dem,in,nur,"regnete,",schlug,beider,Feier,Kleidung,Feier,fuhren,gebrauchte,Studie,Studium,Tat,die,war,mal,suchen,Tropfen,Bürgermeister,keine,Zirkus,die,kann,Umständen,Methode,immer,Tat,Tropfen,das,schlug,nur,sahen,Teilnehmer,60,war,fuhren,101,Rummels,sahen,damals,eine,Essen,wird,eine,genau,sich,uns,wurde,jede,wurden,suchen,verbraucht,saftiges,trotz,saftigen,Studium,gebrauchter,Ankunft,in,wegen,Rand,sind,Sonne,wurden,mal,Essen,die,zum,ein,sich,uns,wurden,Eimer,jede,Methode,verbraucht,trotz,in,Bürgermeister,beider,Kakao,braunen,wegen,in,,,,,,,,,,,,,,,,,,,,,,,1,0,1,0,0,2,2,2,,,,,,,space,0.477679014206,,,,,2017_Feb_03_1302,59.6317148349,spr_backupper,001,Mi17,
,gehören,die,Lust,Liter,mit,der,roter,Zucker,er,überwiegend,mit,stand,Erlebnisse,Mann,Dänemark,kleinere,hat,"sporadisch,",beteiligter,gedachte,bei,gedachte,mit,Kleidung,wurde,habe,wissen,Leinwand,der,wieder,die,königliches,beschuldigten,Lust,werden,Masse,schon,können,kann,auf,wissen,königlichen,Auto,"sporadisch,",kleinere,wir,wurden,Liter,aus,mit,hält,wurde,wir,schnell,große,kann,mit,große,die,Berge,durch,dann,Menge,mit,die,260.000,Fleisch,dem,Fleischs,las,Kleidung,stand,Größe,dem,der,mit,"unterging,",aus,wieder,kann,Masse,Mond,Hemd,Berge,durch,unter,rote,Menge,kann,260.000,des,Größe,beschuldigten,beteiligten,gehören,Zuckers,des,Dänemark,,,,,,,,,,,,,,,,,,,,,,,1,0,1,0,0,3,3,3,,,,,,,space,0.453997135162,,,,,2017_Feb_03_1302,59.6317148349,spr_backupper,001,Mi17,
,immer,Stimmung,auf,sprudelnden,dauerhaftem,Stadt,Farbe,sind,"trug,","nicht,","minimalem,",ein,bei,das,gelegentlich,"Delikte,",uns,obschon,Fahrer,man,ausreichendem,man,solchen,landen,jetzt,ich,wir,aus,vierte,viel,Wohnung,Blut,die,auf,die,mit,bei,Neuwahlen,man,warmem,wir,Bluts,dem,obwohl,"Delikte,",den,mit,sprudelndes,"Japan,",solch,nicht,schon,den,dank,Packung,ich,"reichlichem,",Packung,richtige,schmutziger,Büschel,mit,alten,"üblichem,",Wohnung,Kilowattstunden,wurden,bekannten,wurden,ich,landen,ein,36,schönen,Stadt,"sämtlichem,",war,"wertvollem,",viel,ich,mit,dauerte,aus,schmutzige,Büschel,"regelmäßigem,",Farbe,alten,man,Kilowattstunden,bekannten,36,die,Fahrer,immer,sind,schönen,einen,,,,,,,,,,,,,,,,,,,,,,,1,0,1,0,0,4,4,4,,,,,,,space,0.576918125153,,,,,2017_Feb_03_1302,59.6317148349,spr_backupper,001,Mi17,
,350,ziemlich,noch,Trinkwassers.,feinem,liegen,geschleudert.,auf,war,was,sauberen,Glas,"frischem,",Auto,einen,deren,die,sie,wurden,den,monatlichem,der,unzureichenden,im,"nachgewiesen,",mehr,um,seltenem,Bundespräsident.,Lärm,des,hat,Störenfriede,noch,Tiere,einem,minimalem,vor,eine,weichem,von,hat,Mann,sie,derer,roten,zusätzlichem,Trinkwasser.,die,unzureichenden,am,immer,roten,täglichem,salzige,leider,purem,salziger,"Zeit,",Wäsche.,frisches,"reichem,",Kram,harten,des,elektrische,serviert.,Skandal,serviert.,mehr,im,Glas,hätten,Wetter,liegen,künftigem,die,klassischen,Lärm,leider,einem,ungefähr,feinem,Wäsche.,frischen,kaltem,geschleudert.,Krams,eine,elektrischer,Skandals,würden,Störenfriede,wurden,350,auf,Wetters,gelegentlichen,,,,,,,,,,,,,,,,,,,,,,,1,0,1,0,0,5,5,5,,,,,,,space,0.502141952515,,,,,2017_Feb_03_1302,59.6317148349,spr_backupper,001,Mi17,
,ml,"vermiest,",eine,nan,Kunsteis,die,nan,jeden,aus,Tupperware,Kraftstoff,köstlichen,kaltem,mehr,Besucher.,sie,Stimmung,defekt,verschrottet.,Soldaten,Taschengeld,Soldaten,Helmen,Müll.,dass,als,die,dichten,nan,um,Herrn,den,jeden.,eine,artgerecht,Esslöffel,täglichen,Dezember,große,Untergrund,den,den,mehr,defekt,sie,Planeten,schwarzem,nan,er,Helmen,Hauptbahnhof.,ruhig,Planet,grünen,Wurst,nichts,Alkohol,Wurst,um,nan,Gras,goldenen,aus,Schaumstoff,Herrn,Energie.,nan,wiedergewählt.,nan,als,Müll.,köstlicher,seiner,die,die,Einkommen,Flut,Schmuck,um,nichts,Esslöffel,drei,dichten,nan,Grases,Abduschen,nan,aus,große,Energie.,wiedergewählt.,seiner,jeden.,verschrottet.,ml,jeden,die,Besucher.,,,,,,,,,,,,,,,,,,,,,,,1,0,1,0,0,6,6,6,,,,,,,space,0.576606988907,,,,,2017_Feb_03_1302,59.6317148349,spr_backupper,001,Mi17,
,warme,dass,Sammlung,nan,eingesprüht.,Slums.,nan,Fall,Japan.,ist.,fahren.,Weins,Saft,als,nan,überführt,ziemlich,war.,nan,des,selber,des,zur,nan,das,einmal,Probleme,Gewebe,nan,jede,Gantenbein.,Boden,nan,Sammlung,gehalten.,warmem,Einsatz,stattfinden.,Menge,liegen.,Problemen,Boden,als,war.,überführt,ganz,Kaffee,nan,trug.,zur,nan,diskutiert.,ganz,Tee,mit,mitbringen.,verdünnt.,mit,Nadelhölzer,nan,zwängen.,Besatz,dem,gefertigt.,Gantenbeins.,nan,nan,nan,nan,einmal,nan,Wein,Frau,Wohnung.,Slums.,haftbar.,zurückgekehrt.,umgearbeitet.,jede,mitbringen.,warmen,Tage.,Stoff,nan,zwängen.,gehärtet.,nan,dem,Menge,nan,nan,Frau,nan,nan,warmer,Fall,Wohnung.,nan,,,,,,,,,,,,,,,,,,,,,,,1,0,1,0,0,7,7,7,,,,,,,space,0.620983123779,,,,,2017_Feb_03_1302,59.6317148349,spr_backupper,001,Mi17,
,,,,,,,,,,,,,,,,,,,,,,,,,,,,,,,,,,,,,,,,,,,,,,,,,,,,,,,,,,,,,,,,,,,,,,,,,,,,,,,,,,,,,,,,,,,,,,,,,,,,,,,,,,,,,,,,,,,,,,,,,1,0,1,0,,,,,,,,,,,,,None,n,1.95243501663,,2017_Feb_03_1302,59.6317148349,spr_backupper,001,Mi17,
,In,Es,Sie,Sie,Die,Am,Es,100,Die,Die,Wir,Bei,Sie,Wir,Wir,Es,Dass,Die,Die,Bei,Jugendliche,Bei,Die,Viele,In,In,In,Danach,Walter,Man,Die,Nicht,Außer,Sie,In,Er,Ihr,Unter,Mit,Jungtiere,In,Nicht,Wir,Die,Es,Im,Die,Sie,Die,Die,Die,Fernab,Im,Ich,Ich,Außer,Die,Ich,Jetzt,Dort,Wir,Das,Wir,Alle,Die,Die,Beträchtliche,Er,Beträchtliche,In,Viele,Bei,Die,Sie,Am,Manche,Als,Die,Man,Außer,Er,Der,Er,Dort,Wir,Die,Es,Wir,Mit,Die,Er,Die,Außer,Die,In,100,Sie,Wir,,,,,,,,,,,,,,,,,,,,,,,2,0,2,0,0,0,0,0,,,,,,None,space,0.723242998123,,,,,2017_Feb_03_1302,59.6317148349,spr_backupper,001,Mi17,
,den,hat,hatte,verbrauchen,Eislaufbahnen,äußersten,wurden,g,"Uhr,",Teilnehmerinnen,konnten,unserer,haben,übergaben,hatten,waren,es,Uhr,Autos,der,können,der,Kinder,Tonnen,einer,meinem,der,wurde,Scheel,machte,Gäste,ein,dem,hatte,diesem,stellt,Blutdruck,keinen,dieser,sollten,der,ein,übergaben,Uhr,waren,Fernrohr,müden,verbrauchen,Uhr,Kinder,Linie,des,Fernrohr,wurde,nehme,das,Lösung,nehme,ist,türmen,mussten,Tuch,haben,Betten,Gäste,Schule,Stücke,wurde,Stücke,meinem,Tonnen,unserer,Schuhe,verlassen,äußeren,Kreditnehmer,die,Stücke,machte,dem,stellt,Flug,hat,türmen,mussten,Formen,wurden,haben,dieser,Schule,wurde,Schuhe,den,Autos,den,g,verlassen,hatten,,,,,,,,,,,,,,,,,,,,,,,2,0,2,0,0,1,1,1,,,,,,,space,1.14550709724,,,,,2017_Feb_03_1302,59.6317148349,spr_backupper,001,Mi17,
,Kakao,uns,keine,60,wurden,Rand,Eimer,brauner,die,wussten,dann,Ankunft,die,dem,in,nur,"regnete,",schlug,beider,Feier,Kleidung,Feier,fuhren,gebrauchte,Studie,Studium,Tat,die,war,mal,suchen,Tropfen,Bürgermeister,keine,Zirkus,die,kann,Umständen,Methode,immer,Tat,Tropfen,das,schlug,nur,sahen,Teilnehmer,60,war,fuhren,101,Rummels,sahen,damals,eine,Essen,wird,eine,genau,sich,uns,wurde,jede,wurden,suchen,verbraucht,saftiges,trotz,saftigen,Studium,gebrauchter,Ankunft,in,wegen,Rand,sind,Sonne,wurden,mal,Essen,die,zum,ein,sich,uns,wurden,Eimer,jede,Methode,verbraucht,trotz,in,Bürgermeister,beider,Kakao,braunen,wegen,in,,,,,,,,,,,,,,,,,,,,,,,2,0,2,0,0,2,2,2,,,,,,,space,1.00254702568,,,,,2017_Feb_03_1302,59.6317148349,spr_backupper,001,Mi17,
,gehören,die,Lust,Liter,mit,der,roter,Zucker,er,überwiegend,mit,stand,Erlebnisse,Mann,Dänemark,kleinere,hat,"sporadisch,",beteiligter,gedachte,bei,gedachte,mit,Kleidung,wurde,habe,wissen,Leinwand,der,wieder,die,königliches,beschuldigten,Lust,werden,Masse,schon,können,kann,auf,wissen,königlichen,Auto,"sporadisch,",kleinere,wir,wurden,Liter,aus,mit,hält,wurde,wir,schnell,große,kann,mit,große,die,Berge,durch,dann,Menge,mit,die,260.000,Fleisch,dem,Fleischs,las,Kleidung,stand,Größe,dem,der,mit,"unterging,",aus,wieder,kann,Masse,Mond,Hemd,Berge,durch,unter,rote,Menge,kann,260.000,des,Größe,beschuldigten,beteiligten,gehören,Zuckers,des,Dänemark,,,,,,,,,,,,,,,,,,,,,,,2,0,2,0,0,3,3,3,,,,,,,space,0.91165304184,,,,,2017_Feb_03_1302,59.6317148349,spr_backupper,001,Mi17,
,immer,Stimmung,auf,sprudelnden,dauerhaftem,Stadt,Farbe,sind,"trug,","nicht,","minimalem,",ein,bei,das,gelegentlich,"Delikte,",uns,obschon,Fahrer,man,ausreichendem,man,solchen,landen,jetzt,ich,wir,aus,vierte,viel,Wohnung,Blut,die,auf,die,mit,bei,Neuwahlen,man,warmem,wir,Bluts,dem,obwohl,"Delikte,",den,mit,sprudelndes,"Japan,",solch,nicht,schon,den,dank,Packung,ich,"reichlichem,",Packung,richtige,schmutziger,Büschel,mit,alten,"üblichem,",Wohnung,Kilowattstunden,wurden,bekannten,wurden,ich,landen,ein,36,schönen,Stadt,"sämtlichem,",war,"wertvollem,",viel,ich,mit,dauerte,aus,schmutzige,Büschel,"regelmäßigem,",Farbe,alten,man,Kilowattstunden,bekannten,36,die,Fahrer,immer,sind,schönen,einen,,,,,,,,,,,,,,,,,,,,,,,2,0,2,0,0,4,4,4,,,,,,,space,0.655395030975,,,,,2017_Feb_03_1302,59.6317148349,spr_backupper,001,Mi17,
,350,ziemlich,noch,Trinkwassers.,feinem,liegen,geschleudert.,auf,war,was,sauberen,Glas,"frischem,",Auto,einen,deren,die,sie,wurden,den,monatlichem,der,unzureichenden,im,"nachgewiesen,",mehr,um,seltenem,Bundespräsident.,Lärm,des,hat,Störenfriede,noch,Tiere,einem,minimalem,vor,eine,weichem,von,hat,Mann,sie,derer,roten,zusätzlichem,Trinkwasser.,die,unzureichenden,am,immer,roten,täglichem,salzige,leider,purem,salziger,"Zeit,",Wäsche.,frisches,"reichem,",Kram,harten,des,elektrische,serviert.,Skandal,serviert.,mehr,im,Glas,hätten,Wetter,liegen,künftigem,die,klassischen,Lärm,leider,einem,ungefähr,feinem,Wäsche.,frischen,kaltem,geschleudert.,Krams,eine,elektrischer,Skandals,würden,Störenfriede,wurden,350,auf,Wetters,gelegentlichen,,,,,,,,,,,,,,,,,,,,,,,2,0,2,0,0,5,5,5,,,,,,,space,0.766463041306,,,,,2017_Feb_03_1302,59.6317148349,spr_backupper,001,Mi17,
,ml,"vermiest,",eine,nan,Kunsteis,die,nan,jeden,aus,Tupperware,Kraftstoff,köstlichen,kaltem,mehr,Besucher.,sie,Stimmung,defekt,verschrottet.,Soldaten,Taschengeld,Soldaten,Helmen,Müll.,dass,als,die,dichten,nan,um,Herrn,den,jeden.,eine,artgerecht,Esslöffel,täglichen,Dezember,große,Untergrund,den,den,mehr,defekt,sie,Planeten,schwarzem,nan,er,Helmen,Hauptbahnhof.,ruhig,Planet,grünen,Wurst,nichts,Alkohol,Wurst,um,nan,Gras,goldenen,aus,Schaumstoff,Herrn,Energie.,nan,wiedergewählt.,nan,als,Müll.,köstlicher,seiner,die,die,Einkommen,Flut,Schmuck,um,nichts,Esslöffel,drei,dichten,nan,Grases,Abduschen,nan,aus,große,Energie.,wiedergewählt.,seiner,jeden.,verschrottet.,ml,jeden,die,Besucher.,,,,,,,,,,,,,,,,,,,,,,,2,0,2,0,0,6,6,6,,,,,,,space,0.69256901741,,,,,2017_Feb_03_1302,59.6317148349,spr_backupper,001,Mi17,
,warme,dass,Sammlung,nan,eingesprüht.,Slums.,nan,Fall,Japan.,ist.,fahren.,Weins,Saft,als,nan,überführt,ziemlich,war.,nan,des,selber,des,zur,nan,das,einmal,Probleme,Gewebe,nan,jede,Gantenbein.,Boden,nan,Sammlung,gehalten.,warmem,Einsatz,stattfinden.,Menge,liegen.,Problemen,Boden,als,war.,überführt,ganz,Kaffee,nan,trug.,zur,nan,diskutiert.,ganz,Tee,mit,mitbringen.,verdünnt.,mit,Nadelhölzer,nan,zwängen.,Besatz,dem,gefertigt.,Gantenbeins.,nan,nan,nan,nan,einmal,nan,Wein,Frau,Wohnung.,Slums.,haftbar.,zurückgekehrt.,umgearbeitet.,jede,mitbringen.,warmen,Tage.,Stoff,nan,zwängen.,gehärtet.,nan,dem,Menge,nan,nan,Frau,nan,nan,warmer,Fall,Wohnung.,nan,,,,,,,,,,,,,,,,,,,,,,,2,0,2,0,0,7,7,7,,,,,,,space,0.761357069016,,,,,2017_Feb_03_1302,59.6317148349,spr_backupper,001,Mi17,
,,,,,,,,,,,,,,,,,,,,,,,,,,,,,,,,,,,,,,,,,,,,,,,,,,,,,,,,,,,,,,,,,,,,,,,,,,,,,,,,,,,,,,,,,,,,,,,,,,,,,,,,,,,,,,,,,,,,,,,,,2,0,2,0,,,,,,,,,,,,,None,n,9.3419418335,,2017_Feb_03_1302,59.6317148349,spr_backupper,001,Mi17,
,In,Es,Sie,Sie,Die,Am,Es,100,Die,Die,Wir,Bei,Sie,Wir,Wir,Es,Dass,Die,Die,Bei,Jugendliche,Bei,Die,Viele,In,In,In,Danach,Walter,Man,Die,Nicht,Außer,Sie,In,Er,Ihr,Unter,Mit,Jungtiere,In,Nicht,Wir,Die,Es,Im,Die,Sie,Die,Die,Die,Fernab,Im,Ich,Ich,Außer,Die,Ich,Jetzt,Dort,Wir,Das,Wir,Alle,Die,Die,Beträchtliche,Er,Beträchtliche,In,Viele,Bei,Die,Sie,Am,Manche,Als,Die,Man,Außer,Er,Der,Er,Dort,Wir,Die,Es,Wir,Mit,Die,Er,Die,Außer,Die,In,100,Sie,Wir,,,,,,,,,,,,,,,,,,,,,,,3,0,3,0,0,0,0,0,,,,,,None,space,1.38306617737,,,,,2017_Feb_03_1302,59.6317148349,spr_backupper,001,Mi17,
,den,hat,hatte,verbrauchen,Eislaufbahnen,äußersten,wurden,g,"Uhr,",Teilnehmerinnen,konnten,unserer,haben,übergaben,hatten,waren,es,Uhr,Autos,der,können,der,Kinder,Tonnen,einer,meinem,der,wurde,Scheel,machte,Gäste,ein,dem,hatte,diesem,stellt,Blutdruck,keinen,dieser,sollten,der,ein,übergaben,Uhr,waren,Fernrohr,müden,verbrauchen,Uhr,Kinder,Linie,des,Fernrohr,wurde,nehme,das,Lösung,nehme,ist,türmen,mussten,Tuch,haben,Betten,Gäste,Schule,Stücke,wurde,Stücke,meinem,Tonnen,unserer,Schuhe,verlassen,äußeren,Kreditnehmer,die,Stücke,machte,dem,stellt,Flug,hat,türmen,mussten,Formen,wurden,haben,dieser,Schule,wurde,Schuhe,den,Autos,den,g,verlassen,hatten,,,,,,,,,,,,,,,,,,,,,,,3,0,3,0,0,1,1,1,,,,,,,space,0.654609203339,,,,,2017_Feb_03_1302,59.6317148349,spr_backupper,001,Mi17,
,Kakao,uns,keine,60,wurden,Rand,Eimer,brauner,die,wussten,dann,Ankunft,die,dem,in,nur,"regnete,",schlug,beider,Feier,Kleidung,Feier,fuhren,gebrauchte,Studie,Studium,Tat,die,war,mal,suchen,Tropfen,Bürgermeister,keine,Zirkus,die,kann,Umständen,Methode,immer,Tat,Tropfen,das,schlug,nur,sahen,Teilnehmer,60,war,fuhren,101,Rummels,sahen,damals,eine,Essen,wird,eine,genau,sich,uns,wurde,jede,wurden,suchen,verbraucht,saftiges,trotz,saftigen,Studium,gebrauchter,Ankunft,in,wegen,Rand,sind,Sonne,wurden,mal,Essen,die,zum,ein,sich,uns,wurden,Eimer,jede,Methode,verbraucht,trotz,in,Bürgermeister,beider,Kakao,braunen,wegen,in,,,,,,,,,,,,,,,,,,,,,,,3,0,3,0,0,2,2,2,,,,,,,space,0.712397098541,,,,,2017_Feb_03_1302,59.6317148349,spr_backupper,001,Mi17,
,gehören,die,Lust,Liter,mit,der,roter,Zucker,er,überwiegend,mit,stand,Erlebnisse,Mann,Dänemark,kleinere,hat,"sporadisch,",beteiligter,gedachte,bei,gedachte,mit,Kleidung,wurde,habe,wissen,Leinwand,der,wieder,die,königliches,beschuldigten,Lust,werden,Masse,schon,können,kann,auf,wissen,königlichen,Auto,"sporadisch,",kleinere,wir,wurden,Liter,aus,mit,hält,wurde,wir,schnell,große,kann,mit,große,die,Berge,durch,dann,Menge,mit,die,260.000,Fleisch,dem,Fleischs,las,Kleidung,stand,Größe,dem,der,mit,"unterging,",aus,wieder,kann,Masse,Mond,Hemd,Berge,durch,unter,rote,Menge,kann,260.000,des,Größe,beschuldigten,beteiligten,gehören,Zuckers,des,Dänemark,,,,,,,,,,,,,,,,,,,,,,,3,0,3,0,0,3,3,3,,,,,,,space,0.533175945282,,,,,2017_Feb_03_1302,59.6317148349,spr_backupper,001,Mi17,
,immer,Stimmung,auf,sprudelnden,dauerhaftem,Stadt,Farbe,sind,"trug,","nicht,","minimalem,",ein,bei,das,gelegentlich,"Delikte,",uns,obschon,Fahrer,man,ausreichendem,man,solchen,landen,jetzt,ich,wir,aus,vierte,viel,Wohnung,Blut,die,auf,die,mit,bei,Neuwahlen,man,warmem,wir,Bluts,dem,obwohl,"Delikte,",den,mit,sprudelndes,"Japan,",solch,nicht,schon,den,dank,Packung,ich,"reichlichem,",Packung,richtige,schmutziger,Büschel,mit,alten,"üblichem,",Wohnung,Kilowattstunden,wurden,bekannten,wurden,ich,landen,ein,36,schönen,Stadt,"sämtlichem,",war,"wertvollem,",viel,ich,mit,dauerte,aus,schmutzige,Büschel,"regelmäßigem,",Farbe,alten,man,Kilowattstunden,bekannten,36,die,Fahrer,immer,sind,schönen,einen,,,,,,,,,,,,,,,,,,,,,,,3,0,3,0,0,4,4,4,,,,,,,space,0.538143873215,,,,,2017_Feb_03_1302,59.6317148349,spr_backupper,001,Mi17,
,350,ziemlich,noch,Trinkwassers.,feinem,liegen,geschleudert.,auf,war,was,sauberen,Glas,"frischem,",Auto,einen,deren,die,sie,wurden,den,monatlichem,der,unzureichenden,im,"nachgewiesen,",mehr,um,seltenem,Bundespräsident.,Lärm,des,hat,Störenfriede,noch,Tiere,einem,minimalem,vor,eine,weichem,von,hat,Mann,sie,derer,roten,zusätzlichem,Trinkwasser.,die,unzureichenden,am,immer,roten,täglichem,salzige,leider,purem,salziger,"Zeit,",Wäsche.,frisches,"reichem,",Kram,harten,des,elektrische,serviert.,Skandal,serviert.,mehr,im,Glas,hätten,Wetter,liegen,künftigem,die,klassischen,Lärm,leider,einem,ungefähr,feinem,Wäsche.,frischen,kaltem,geschleudert.,Krams,eine,elektrischer,Skandals,würden,Störenfriede,wurden,350,auf,Wetters,gelegentlichen,,,,,,,,,,,,,,,,,,,,,,,3,0,3,0,0,5,5,5,,,,,,,space,0.441947937012,,,,,2017_Feb_03_1302,59.6317148349,spr_backupper,001,Mi17,
,ml,"vermiest,",eine,nan,Kunsteis,die,nan,jeden,aus,Tupperware,Kraftstoff,köstlichen,kaltem,mehr,Besucher.,sie,Stimmung,defekt,verschrottet.,Soldaten,Taschengeld,Soldaten,Helmen,Müll.,dass,als,die,dichten,nan,um,Herrn,den,jeden.,eine,artgerecht,Esslöffel,täglichen,Dezember,große,Untergrund,den,den,mehr,defekt,sie,Planeten,schwarzem,nan,er,Helmen,Hauptbahnhof.,ruhig,Planet,grünen,Wurst,nichts,Alkohol,Wurst,um,nan,Gras,goldenen,aus,Schaumstoff,Herrn,Energie.,nan,wiedergewählt.,nan,als,Müll.,köstlicher,seiner,die,die,Einkommen,Flut,Schmuck,um,nichts,Esslöffel,drei,dichten,nan,Grases,Abduschen,nan,aus,große,Energie.,wiedergewählt.,seiner,jeden.,verschrottet.,ml,jeden,die,Besucher.,,,,,,,,,,,,,,,,,,,,,,,3,0,3,0,0,6,6,6,,,,,,,space,0.548926830292,,,,,2017_Feb_03_1302,59.6317148349,spr_backupper,001,Mi17,
,warme,dass,Sammlung,nan,eingesprüht.,Slums.,nan,Fall,Japan.,ist.,fahren.,Weins,Saft,als,nan,überführt,ziemlich,war.,nan,des,selber,des,zur,nan,das,einmal,Probleme,Gewebe,nan,jede,Gantenbein.,Boden,nan,Sammlung,gehalten.,warmem,Einsatz,stattfinden.,Menge,liegen.,Problemen,Boden,als,war.,überführt,ganz,Kaffee,nan,trug.,zur,nan,diskutiert.,ganz,Tee,mit,mitbringen.,verdünnt.,mit,Nadelhölzer,nan,zwängen.,Besatz,dem,gefertigt.,Gantenbeins.,nan,nan,nan,nan,einmal,nan,Wein,Frau,Wohnung.,Slums.,haftbar.,zurückgekehrt.,umgearbeitet.,jede,mitbringen.,warmen,Tage.,Stoff,nan,zwängen.,gehärtet.,nan,dem,Menge,nan,nan,Frau,nan,nan,warmer,Fall,Wohnung.,nan,,,,,,,,,,,,,,,,,,,,,,,3,0,3,0,0,7,7,7,,,,,,,space,0.580933094025,,,,,2017_Feb_03_1302,59.6317148349,spr_backupper,001,Mi17,
,Milch.,es,dumme,nan,nan,nan,nan,genug.,nan,nan,nan,schon,besprochen.,gerne.,nan,wurden.,vermiest.,nan,nan,zweiten,kaufen.,zweiten,Schule.,nan,Medikament,Rilke,im,wiederhergestellt.,nan,Menge,nan,berührt.,nan,dummer,nan,Honig,sinken.,nan,dunkle,nan,im,berührt.,gerne.,nan,wurden.,deutlich.,wiederbelebt.,nan,nan,Schule.,nan,nan,deutlich.,wieder,an,nan,nan,an,umzusetzen.,nan,nan,rekonstruiert.,Haus,nan,nan,nan,nan,nan,nan,Rilke.,nan,schon,gepasst.,nan,nan,nan,nan,nan,Menge,nan,Honigs,nan,gefertigt.,nan,nan,nan,nan,Haus,dunkler,nan,nan,gepasst,nan,nan,Milch.,genug.,nan,nan,,,,,,,,,,,,,,,,,,,,,,,3,0,3,0,0,8,8,8,,,,,,,space,0.615458011627,,,,,2017_Feb_03_1302,59.6317148349,spr_backupper,001,Mi17,
,nan,regnete.,Sprüche.,nan,nan,nan,nan,nan,nan,nan,nan,auf,nan,nan,nan,nan,nan,nan,nan,Weltkriegs.,nan,Weltkriegs.,nan,nan,nicht,gelesen.,Landkreis.,nan,nan,heiße,nan,nan,nan,Sprüche.,nan,her.,nan,nan,Materie,nan,Landkreis.,nan,nan,nan,nan,nan,nan,nan,nan,nan,nan,nan,nan,fit.,den,nan,nan,den,nan,nan,nan,nan,geschafft.,nan,nan,nan,nan,nan,nan,nan,nan,auf,nan,nan,nan,nan,nan,nan,heißer,nan,her.,nan,nan,nan,nan,nan,nan,geschafft.,Materie,nan,nan,haben.,nan,nan,nan,nan,nan,nan,,,,,,,,,,,,,,,,,,,,,,,3,0,3,0,0,9,9,9,,,,,,,space,0.487525939941,,,,,2017_Feb_03_1302,59.6317148349,spr_backupper,001,Mi17,
,nan,nan,nan,nan,nan,nan,nan,nan,nan,nan,nan,dem,nan,nan,nan,nan,nan,nan,nan,nan,nan,nan,nan,nan,wirkt.,nan,nan,nan,nan,Luft.,nan,nan,nan,nan,nan,nan,nan,nan,erzeugen.,nan,nan,nan,nan,nan,nan,nan,nan,nan,nan,nan,nan,nan,nan,nan,See.,nan,nan,See.,nan,nan,nan,nan,nan,nan,nan,nan,nan,nan,nan,nan,nan,dem,nan,nan,nan,nan,nan,nan,Luft.,nan,nan,nan,nan,nan,nan,nan,nan,nan,erzeugen.,nan,nan,nan,nan,nan,nan,nan,nan,nan,,,,,,,,,,,,,,,,,,,,,,,3,0,3,0,0,10,10,10,,,,,,,space,0.461019039154,,,,,2017_Feb_03_1302,59.6317148349,spr_backupper,001,Mi17,
,nan,nan,nan,nan,nan,nan,nan,nan,nan,nan,nan,Tisch.,nan,nan,nan,nan,nan,nan,nan,nan,nan,nan,nan,nan,nan,nan,nan,nan,nan,nan,nan,nan,nan,nan,nan,nan,nan,nan,nan,nan,nan,nan,nan,nan,nan,nan,nan,nan,nan,nan,nan,nan,nan,nan,nan,nan,nan,nan,nan,nan,nan,nan,nan,nan,nan,nan,nan,nan,nan,nan,nan,Tisch.,nan,nan,nan,nan,nan,nan,nan,nan,nan,nan,nan,nan,nan,nan,nan,nan,nan,nan,nan,nan,nan,nan,nan,nan,nan,nan,,,,,,,,,,,,,,,,,,,,,,,3,0,3,0,0,11,11,11,,,,,,,space,0.436876058578,,,,,2017_Feb_03_1302,59.6317148349,spr_backupper,001,Mi17,
,,,,,,,,,,,,,,,,,,,,,,,,,,,,,,,,,,,,,,,,,,,,,,,,,,,,,,,,,,,,,,,,,,,,,,,,,,,,,,,,,,,,,,,,,,,,,,,,,,,,,,,,,,,,,,,,,,,,,,,,,3,0,3,0,,,,,,,,,,,,,None,j,3.80971002579,,2017_Feb_03_1302,59.6317148349,spr_backupper,001,Mi17,
,In,Es,Sie,Sie,Die,Am,Es,100,Die,Die,Wir,Bei,Sie,Wir,Wir,Es,Dass,Die,Die,Bei,Jugendliche,Bei,Die,Viele,In,In,In,Danach,Walter,Man,Die,Nicht,Außer,Sie,In,Er,Ihr,Unter,Mit,Jungtiere,In,Nicht,Wir,Die,Es,Im,Die,Sie,Die,Die,Die,Fernab,Im,Ich,Ich,Außer,Die,Ich,Jetzt,Dort,Wir,Das,Wir,Alle,Die,Die,Beträchtliche,Er,Beträchtliche,In,Viele,Bei,Die,Sie,Am,Manche,Als,Die,Man,Außer,Er,Der,Er,Dort,Wir,Die,Es,Wir,Mit,Die,Er,Die,Außer,Die,In,100,Sie,Wir,,,,,,,,,,,,,,,,,,,,,,,4,0,4,0,0,0,0,0,,,,,,None,space,1.91601395607,,,,,2017_Feb_03_1302,59.6317148349,spr_backupper,001,Mi17,
,den,hat,hatte,verbrauchen,Eislaufbahnen,äußersten,wurden,g,"Uhr,",Teilnehmerinnen,konnten,unserer,haben,übergaben,hatten,waren,es,Uhr,Autos,der,können,der,Kinder,Tonnen,einer,meinem,der,wurde,Scheel,machte,Gäste,ein,dem,hatte,diesem,stellt,Blutdruck,keinen,dieser,sollten,der,ein,übergaben,Uhr,waren,Fernrohr,müden,verbrauchen,Uhr,Kinder,Linie,des,Fernrohr,wurde,nehme,das,Lösung,nehme,ist,türmen,mussten,Tuch,haben,Betten,Gäste,Schule,Stücke,wurde,Stücke,meinem,Tonnen,unserer,Schuhe,verlassen,äußeren,Kreditnehmer,die,Stücke,machte,dem,stellt,Flug,hat,türmen,mussten,Formen,wurden,haben,dieser,Schule,wurde,Schuhe,den,Autos,den,g,verlassen,hatten,,,,,,,,,,,,,,,,,,,,,,,4,0,4,0,0,1,1,1,,,,,,,space,0.676423072815,,,,,2017_Feb_03_1302,59.6317148349,spr_backupper,001,Mi17,
,Kakao,uns,keine,60,wurden,Rand,Eimer,brauner,die,wussten,dann,Ankunft,die,dem,in,nur,"regnete,",schlug,beider,Feier,Kleidung,Feier,fuhren,gebrauchte,Studie,Studium,Tat,die,war,mal,suchen,Tropfen,Bürgermeister,keine,Zirkus,die,kann,Umständen,Methode,immer,Tat,Tropfen,das,schlug,nur,sahen,Teilnehmer,60,war,fuhren,101,Rummels,sahen,damals,eine,Essen,wird,eine,genau,sich,uns,wurde,jede,wurden,suchen,verbraucht,saftiges,trotz,saftigen,Studium,gebrauchter,Ankunft,in,wegen,Rand,sind,Sonne,wurden,mal,Essen,die,zum,ein,sich,uns,wurden,Eimer,jede,Methode,verbraucht,trotz,in,Bürgermeister,beider,Kakao,braunen,wegen,in,,,,,,,,,,,,,,,,,,,,,,,4,0,4,0,0,2,2,2,,,,,,,space,0.771735906601,,,,,2017_Feb_03_1302,59.6317148349,spr_backupper,001,Mi17,
,gehören,die,Lust,Liter,mit,der,roter,Zucker,er,überwiegend,mit,stand,Erlebnisse,Mann,Dänemark,kleinere,hat,"sporadisch,",beteiligter,gedachte,bei,gedachte,mit,Kleidung,wurde,habe,wissen,Leinwand,der,wieder,die,königliches,beschuldigten,Lust,werden,Masse,schon,können,kann,auf,wissen,königlichen,Auto,"sporadisch,",kleinere,wir,wurden,Liter,aus,mit,hält,wurde,wir,schnell,große,kann,mit,große,die,Berge,durch,dann,Menge,mit,die,260.000,Fleisch,dem,Fleischs,las,Kleidung,stand,Größe,dem,der,mit,"unterging,",aus,wieder,kann,Masse,Mond,Hemd,Berge,durch,unter,rote,Menge,kann,260.000,des,Größe,beschuldigten,beteiligten,gehören,Zuckers,des,Dänemark,,,,,,,,,,,,,,,,,,,,,,,4,0,4,0,0,3,3,3,,,,,,,space,0.453891992569,,,,,2017_Feb_03_1302,59.6317148349,spr_backupper,001,Mi17,
,immer,Stimmung,auf,sprudelnden,dauerhaftem,Stadt,Farbe,sind,"trug,","nicht,","minimalem,",ein,bei,das,gelegentlich,"Delikte,",uns,obschon,Fahrer,man,ausreichendem,man,solchen,landen,jetzt,ich,wir,aus,vierte,viel,Wohnung,Blut,die,auf,die,mit,bei,Neuwahlen,man,warmem,wir,Bluts,dem,obwohl,"Delikte,",den,mit,sprudelndes,"Japan,",solch,nicht,schon,den,dank,Packung,ich,"reichlichem,",Packung,richtige,schmutziger,Büschel,mit,alten,"üblichem,",Wohnung,Kilowattstunden,wurden,bekannten,wurden,ich,landen,ein,36,schönen,Stadt,"sämtlichem,",war,"wertvollem,",viel,ich,mit,dauerte,aus,schmutzige,Büschel,"regelmäßigem,",Farbe,alten,man,Kilowattstunden,bekannten,36,die,Fahrer,immer,sind,schönen,einen,,,,,,,,,,,,,,,,,,,,,,,4,0,4,0,0,4,4,4,,,,,,,space,0.679280996323,,,,,2017_Feb_03_1302,59.6317148349,spr_backupper,001,Mi17,
,350,ziemlich,noch,Trinkwassers.,feinem,liegen,geschleudert.,auf,war,was,sauberen,Glas,"frischem,",Auto,einen,deren,die,sie,wurden,den,monatlichem,der,unzureichenden,im,"nachgewiesen,",mehr,um,seltenem,Bundespräsident.,Lärm,des,hat,Störenfriede,noch,Tiere,einem,minimalem,vor,eine,weichem,von,hat,Mann,sie,derer,roten,zusätzlichem,Trinkwasser.,die,unzureichenden,am,immer,roten,täglichem,salzige,leider,purem,salziger,"Zeit,",Wäsche.,frisches,"reichem,",Kram,harten,des,elektrische,serviert.,Skandal,serviert.,mehr,im,Glas,hätten,Wetter,liegen,künftigem,die,klassischen,Lärm,leider,einem,ungefähr,feinem,Wäsche.,frischen,kaltem,geschleudert.,Krams,eine,elektrischer,Skandals,würden,Störenfriede,wurden,350,auf,Wetters,gelegentlichen,,,,,,,,,,,,,,,,,,,,,,,4,0,4,0,0,5,5,5,,,,,,,space,0.570979118347,,,,,2017_Feb_03_1302,59.6317148349,spr_backupper,001,Mi17,
,ml,"vermiest,",eine,nan,Kunsteis,die,nan,jeden,aus,Tupperware,Kraftstoff,köstlichen,kaltem,mehr,Besucher.,sie,Stimmung,defekt,verschrottet.,Soldaten,Taschengeld,Soldaten,Helmen,Müll.,dass,als,die,dichten,nan,um,Herrn,den,jeden.,eine,artgerecht,Esslöffel,täglichen,Dezember,große,Untergrund,den,den,mehr,defekt,sie,Planeten,schwarzem,nan,er,Helmen,Hauptbahnhof.,ruhig,Planet,grünen,Wurst,nichts,Alkohol,Wurst,um,nan,Gras,goldenen,aus,Schaumstoff,Herrn,Energie.,nan,wiedergewählt.,nan,als,Müll.,köstlicher,seiner,die,die,Einkommen,Flut,Schmuck,um,nichts,Esslöffel,drei,dichten,nan,Grases,Abduschen,nan,aus,große,Energie.,wiedergewählt.,seiner,jeden.,verschrottet.,ml,jeden,die,Besucher.,,,,,,,,,,,,,,,,,,,,,,,4,0,4,0,0,6,6,6,,,,,,,space,0.916912078857,,,,,2017_Feb_03_1302,59.6317148349,spr_backupper,001,Mi17,
,warme,dass,Sammlung,nan,eingesprüht.,Slums.,nan,Fall,Japan.,ist.,fahren.,Weins,Saft,als,nan,überführt,ziemlich,war.,nan,des,selber,des,zur,nan,das,einmal,Probleme,Gewebe,nan,jede,Gantenbein.,Boden,nan,Sammlung,gehalten.,warmem,Einsatz,stattfinden.,Menge,liegen.,Problemen,Boden,als,war.,überführt,ganz,Kaffee,nan,trug.,zur,nan,diskutiert.,ganz,Tee,mit,mitbringen.,verdünnt.,mit,Nadelhölzer,nan,zwängen.,Besatz,dem,gefertigt.,Gantenbeins.,nan,nan,nan,nan,einmal,nan,Wein,Frau,Wohnung.,Slums.,haftbar.,zurückgekehrt.,umgearbeitet.,jede,mitbringen.,warmen,Tage.,Stoff,nan,zwängen.,gehärtet.,nan,dem,Menge,nan,nan,Frau,nan,nan,warmer,Fall,Wohnung.,nan,,,,,,,,,,,,,,,,,,,,,,,4,0,4,0,0,7,7,7,,,,,,,space,0.721945047379,,,,,2017_Feb_03_1302,59.6317148349,spr_backupper,001,Mi17,
,,,,,,,,,,,,,,,,,,,,,,,,,,,,,,,,,,,,,,,,,,,,,,,,,,,,,,,,,,,,,,,,,,,,,,,,,,,,,,,,,,,,,,,,,,,,,,,,,,,,,,,,,,,,,,,,,,,,,,,,,4,0,4,0,,,,,,,,,,,,,None,n,4.89488315582,,2017_Feb_03_1302,59.6317148349,spr_backupper,001,Mi17,
,In,Es,Sie,Sie,Die,Am,Es,100,Die,Die,Wir,Bei,Sie,Wir,Wir,Es,Dass,Die,Die,Bei,Jugendliche,Bei,Die,Viele,In,In,In,Danach,Walter,Man,Die,Nicht,Außer,Sie,In,Er,Ihr,Unter,Mit,Jungtiere,In,Nicht,Wir,Die,Es,Im,Die,Sie,Die,Die,Die,Fernab,Im,Ich,Ich,Außer,Die,Ich,Jetzt,Dort,Wir,Das,Wir,Alle,Die,Die,Beträchtliche,Er,Beträchtliche,In,Viele,Bei,Die,Sie,Am,Manche,Als,Die,Man,Außer,Er,Der,Er,Dort,Wir,Die,Es,Wir,Mit,Die,Er,Die,Außer,Die,In,100,Sie,Wir,,,,,,,,,,,,,,,,,,,,,,,5,0,5,0,0,0,0,0,,,,,,None,space,0.791347980499,,,,,2017_Feb_03_1302,59.6317148349,spr_backupper,001,Mi17,
,den,hat,hatte,verbrauchen,Eislaufbahnen,äußersten,wurden,g,"Uhr,",Teilnehmerinnen,konnten,unserer,haben,übergaben,hatten,waren,es,Uhr,Autos,der,können,der,Kinder,Tonnen,einer,meinem,der,wurde,Scheel,machte,Gäste,ein,dem,hatte,diesem,stellt,Blutdruck,keinen,dieser,sollten,der,ein,übergaben,Uhr,waren,Fernrohr,müden,verbrauchen,Uhr,Kinder,Linie,des,Fernrohr,wurde,nehme,das,Lösung,nehme,ist,türmen,mussten,Tuch,haben,Betten,Gäste,Schule,Stücke,wurde,Stücke,meinem,Tonnen,unserer,Schuhe,verlassen,äußeren,Kreditnehmer,die,Stücke,machte,dem,stellt,Flug,hat,türmen,mussten,Formen,wurden,haben,dieser,Schule,wurde,Schuhe,den,Autos,den,g,verlassen,hatten,,,,,,,,,,,,,,,,,,,,,,,5,0,5,0,0,1,1,1,,,,,,,space,1.1077299118,,,,,2017_Feb_03_1302,59.6317148349,spr_backupper,001,Mi17,
,Kakao,uns,keine,60,wurden,Rand,Eimer,brauner,die,wussten,dann,Ankunft,die,dem,in,nur,"regnete,",schlug,beider,Feier,Kleidung,Feier,fuhren,gebrauchte,Studie,Studium,Tat,die,war,mal,suchen,Tropfen,Bürgermeister,keine,Zirkus,die,kann,Umständen,Methode,immer,Tat,Tropfen,das,schlug,nur,sahen,Teilnehmer,60,war,fuhren,101,Rummels,sahen,damals,eine,Essen,wird,eine,genau,sich,uns,wurde,jede,wurden,suchen,verbraucht,saftiges,trotz,saftigen,Studium,gebrauchter,Ankunft,in,wegen,Rand,sind,Sonne,wurden,mal,Essen,die,zum,ein,sich,uns,wurden,Eimer,jede,Methode,verbraucht,trotz,in,Bürgermeister,beider,Kakao,braunen,wegen,in,,,,,,,,,,,,,,,,,,,,,,,5,0,5,0,0,2,2,2,,,,,,,space,0.755264997482,,,,,2017_Feb_03_1302,59.6317148349,spr_backupper,001,Mi17,
,gehören,die,Lust,Liter,mit,der,roter,Zucker,er,überwiegend,mit,stand,Erlebnisse,Mann,Dänemark,kleinere,hat,"sporadisch,",beteiligter,gedachte,bei,gedachte,mit,Kleidung,wurde,habe,wissen,Leinwand,der,wieder,die,königliches,beschuldigten,Lust,werden,Masse,schon,können,kann,auf,wissen,königlichen,Auto,"sporadisch,",kleinere,wir,wurden,Liter,aus,mit,hält,wurde,wir,schnell,große,kann,mit,große,die,Berge,durch,dann,Menge,mit,die,260.000,Fleisch,dem,Fleischs,las,Kleidung,stand,Größe,dem,der,mit,"unterging,",aus,wieder,kann,Masse,Mond,Hemd,Berge,durch,unter,rote,Menge,kann,260.000,des,Größe,beschuldigten,beteiligten,gehören,Zuckers,des,Dänemark,,,,,,,,,,,,,,,,,,,,,,,5,0,5,0,0,3,3,3,,,,,,,space,0.903476953506,,,,,2017_Feb_03_1302,59.6317148349,spr_backupper,001,Mi17,
,immer,Stimmung,auf,sprudelnden,dauerhaftem,Stadt,Farbe,sind,"trug,","nicht,","minimalem,",ein,bei,das,gelegentlich,"Delikte,",uns,obschon,Fahrer,man,ausreichendem,man,solchen,landen,jetzt,ich,wir,aus,vierte,viel,Wohnung,Blut,die,auf,die,mit,bei,Neuwahlen,man,warmem,wir,Bluts,dem,obwohl,"Delikte,",den,mit,sprudelndes,"Japan,",solch,nicht,schon,den,dank,Packung,ich,"reichlichem,",Packung,richtige,schmutziger,Büschel,mit,alten,"üblichem,",Wohnung,Kilowattstunden,wurden,bekannten,wurden,ich,landen,ein,36,schönen,Stadt,"sämtlichem,",war,"wertvollem,",viel,ich,mit,dauerte,aus,schmutzige,Büschel,"regelmäßigem,",Farbe,alten,man,Kilowattstunden,bekannten,36,die,Fahrer,immer,sind,schönen,einen,,,,,,,,,,,,,,,,,,,,,,,5,0,5,0,0,4,4,4,,,,,,,space,1.10755300522,,,,,2017_Feb_03_1302,59.6317148349,spr_backupper,001,Mi17,
,350,ziemlich,noch,Trinkwassers.,feinem,liegen,geschleudert.,auf,war,was,sauberen,Glas,"frischem,",Auto,einen,deren,die,sie,wurden,den,monatlichem,der,unzureichenden,im,"nachgewiesen,",mehr,um,seltenem,Bundespräsident.,Lärm,des,hat,Störenfriede,noch,Tiere,einem,minimalem,vor,eine,weichem,von,hat,Mann,sie,derer,roten,zusätzlichem,Trinkwasser.,die,unzureichenden,am,immer,roten,täglichem,salzige,leider,purem,salziger,"Zeit,",Wäsche.,frisches,"reichem,",Kram,harten,des,elektrische,serviert.,Skandal,serviert.,mehr,im,Glas,hätten,Wetter,liegen,künftigem,die,klassischen,Lärm,leider,einem,ungefähr,feinem,Wäsche.,frischen,kaltem,geschleudert.,Krams,eine,elektrischer,Skandals,würden,Störenfriede,wurden,350,auf,Wetters,gelegentlichen,,,,,,,,,,,,,,,,,,,,,,,5,0,5,0,0,5,5,5,,,,,,,space,0.720110177994,,,,,2017_Feb_03_1302,59.6317148349,spr_backupper,001,Mi17,
,ml,"vermiest,",eine,nan,Kunsteis,die,nan,jeden,aus,Tupperware,Kraftstoff,köstlichen,kaltem,mehr,Besucher.,sie,Stimmung,defekt,verschrottet.,Soldaten,Taschengeld,Soldaten,Helmen,Müll.,dass,als,die,dichten,nan,um,Herrn,den,jeden.,eine,artgerecht,Esslöffel,täglichen,Dezember,große,Untergrund,den,den,mehr,defekt,sie,Planeten,schwarzem,nan,er,Helmen,Hauptbahnhof.,ruhig,Planet,grünen,Wurst,nichts,Alkohol,Wurst,um,nan,Gras,goldenen,aus,Schaumstoff,Herrn,Energie.,nan,wiedergewählt.,nan,als,Müll.,köstlicher,seiner,die,die,Einkommen,Flut,Schmuck,um,nichts,Esslöffel,drei,dichten,nan,Grases,Abduschen,nan,aus,große,Energie.,wiedergewählt.,seiner,jeden.,verschrottet.,ml,jeden,die,Besucher.,,,,,,,,,,,,,,,,,,,,,,,5,0,5,0,0,6,6,6,,,,,,,space,0.837266921997,,,,,2017_Feb_03_1302,59.6317148349,spr_backupper,001,Mi17,
,warme,dass,Sammlung,nan,eingesprüht.,Slums.,nan,Fall,Japan.,ist.,fahren.,Weins,Saft,als,nan,überführt,ziemlich,war.,nan,des,selber,des,zur,nan,das,einmal,Probleme,Gewebe,nan,jede,Gantenbein.,Boden,nan,Sammlung,gehalten.,warmem,Einsatz,stattfinden.,Menge,liegen.,Problemen,Boden,als,war.,überführt,ganz,Kaffee,nan,trug.,zur,nan,diskutiert.,ganz,Tee,mit,mitbringen.,verdünnt.,mit,Nadelhölzer,nan,zwängen.,Besatz,dem,gefertigt.,Gantenbeins.,nan,nan,nan,nan,einmal,nan,Wein,Frau,Wohnung.,Slums.,haftbar.,zurückgekehrt.,umgearbeitet.,jede,mitbringen.,warmen,Tage.,Stoff,nan,zwängen.,gehärtet.,nan,dem,Menge,nan,nan,Frau,nan,nan,warmer,Fall,Wohnung.,nan,,,,,,,,,,,,,,,,,,,,,,,5,0,5,0,0,7,7,7,,,,,,,space,0.950157880783,,,,,2017_Feb_03_1302,59.6317148349,spr_backupper,001,Mi17,
,,,,,,,,,,,,,,,,,,,,,,,,,,,,,,,,,,,,,,,,,,,,,,,,,,,,,,,,,,,,,,,,,,,,,,,,,,,,,,,,,,,,,,,,,,,,,,,,,,,,,,,,,,,,,,,,,,,,,,,,,5,0,5,0,,,,,,,,,,,,,None,n,2.83502197266,,2017_Feb_03_1302,59.6317148349,spr_backupper,001,Mi17,
,In,Es,Sie,Sie,Die,Am,Es,100,Die,Die,Wir,Bei,Sie,Wir,Wir,Es,Dass,Die,Die,Bei,Jugendliche,Bei,Die,Viele,In,In,In,Danach,Walter,Man,Die,Nicht,Außer,Sie,In,Er,Ihr,Unter,Mit,Jungtiere,In,Nicht,Wir,Die,Es,Im,Die,Sie,Die,Die,Die,Fernab,Im,Ich,Ich,Außer,Die,Ich,Jetzt,Dort,Wir,Das,Wir,Alle,Die,Die,Beträchtliche,Er,Beträchtliche,In,Viele,Bei,Die,Sie,Am,Manche,Als,Die,Man,Außer,Er,Der,Er,Dort,Wir,Die,Es,Wir,Mit,Die,Er,Die,Außer,Die,In,100,Sie,Wir,,,,,,,,,,,,,,,,,,,,,,,6,0,6,0,0,0,0,0,,,,,,None,space,0.859144926071,,,,,2017_Feb_03_1302,59.6317148349,spr_backupper,001,Mi17,
,den,hat,hatte,verbrauchen,Eislaufbahnen,äußersten,wurden,g,"Uhr,",Teilnehmerinnen,konnten,unserer,haben,übergaben,hatten,waren,es,Uhr,Autos,der,können,der,Kinder,Tonnen,einer,meinem,der,wurde,Scheel,machte,Gäste,ein,dem,hatte,diesem,stellt,Blutdruck,keinen,dieser,sollten,der,ein,übergaben,Uhr,waren,Fernrohr,müden,verbrauchen,Uhr,Kinder,Linie,des,Fernrohr,wurde,nehme,das,Lösung,nehme,ist,türmen,mussten,Tuch,haben,Betten,Gäste,Schule,Stücke,wurde,Stücke,meinem,Tonnen,unserer,Schuhe,verlassen,äußeren,Kreditnehmer,die,Stücke,machte,dem,stellt,Flug,hat,türmen,mussten,Formen,wurden,haben,dieser,Schule,wurde,Schuhe,den,Autos,den,g,verlassen,hatten,,,,,,,,,,,,,,,,,,,,,,,6,0,6,0,0,1,1,1,,,,,,,space,0.525830030441,,,,,2017_Feb_03_1302,59.6317148349,spr_backupper,001,Mi17,
,Kakao,uns,keine,60,wurden,Rand,Eimer,brauner,die,wussten,dann,Ankunft,die,dem,in,nur,"regnete,",schlug,beider,Feier,Kleidung,Feier,fuhren,gebrauchte,Studie,Studium,Tat,die,war,mal,suchen,Tropfen,Bürgermeister,keine,Zirkus,die,kann,Umständen,Methode,immer,Tat,Tropfen,das,schlug,nur,sahen,Teilnehmer,60,war,fuhren,101,Rummels,sahen,damals,eine,Essen,wird,eine,genau,sich,uns,wurde,jede,wurden,suchen,verbraucht,saftiges,trotz,saftigen,Studium,gebrauchter,Ankunft,in,wegen,Rand,sind,Sonne,wurden,mal,Essen,die,zum,ein,sich,uns,wurden,Eimer,jede,Methode,verbraucht,trotz,in,Bürgermeister,beider,Kakao,braunen,wegen,in,,,,,,,,,,,,,,,,,,,,,,,6,0,6,0,0,2,2,2,,,,,,,space,0.601533889771,,,,,2017_Feb_03_1302,59.6317148349,spr_backupper,001,Mi17,
,gehören,die,Lust,Liter,mit,der,roter,Zucker,er,überwiegend,mit,stand,Erlebnisse,Mann,Dänemark,kleinere,hat,"sporadisch,",beteiligter,gedachte,bei,gedachte,mit,Kleidung,wurde,habe,wissen,Leinwand,der,wieder,die,königliches,beschuldigten,Lust,werden,Masse,schon,können,kann,auf,wissen,königlichen,Auto,"sporadisch,",kleinere,wir,wurden,Liter,aus,mit,hält,wurde,wir,schnell,große,kann,mit,große,die,Berge,durch,dann,Menge,mit,die,260.000,Fleisch,dem,Fleischs,las,Kleidung,stand,Größe,dem,der,mit,"unterging,",aus,wieder,kann,Masse,Mond,Hemd,Berge,durch,unter,rote,Menge,kann,260.000,des,Größe,beschuldigten,beteiligten,gehören,Zuckers,des,Dänemark,,,,,,,,,,,,,,,,,,,,,,,6,0,6,0,0,3,3,3,,,,,,,space,0.43631196022,,,,,2017_Feb_03_1302,59.6317148349,spr_backupper,001,Mi17,
,immer,Stimmung,auf,sprudelnden,dauerhaftem,Stadt,Farbe,sind,"trug,","nicht,","minimalem,",ein,bei,das,gelegentlich,"Delikte,",uns,obschon,Fahrer,man,ausreichendem,man,solchen,landen,jetzt,ich,wir,aus,vierte,viel,Wohnung,Blut,die,auf,die,mit,bei,Neuwahlen,man,warmem,wir,Bluts,dem,obwohl,"Delikte,",den,mit,sprudelndes,"Japan,",solch,nicht,schon,den,dank,Packung,ich,"reichlichem,",Packung,richtige,schmutziger,Büschel,mit,alten,"üblichem,",Wohnung,Kilowattstunden,wurden,bekannten,wurden,ich,landen,ein,36,schönen,Stadt,"sämtlichem,",war,"wertvollem,",viel,ich,mit,dauerte,aus,schmutzige,Büschel,"regelmäßigem,",Farbe,alten,man,Kilowattstunden,bekannten,36,die,Fahrer,immer,sind,schönen,einen,,,,,,,,,,,,,,,,,,,,,,,6,0,6,0,0,4,4,4,,,,,,,space,0.487642049789,,,,,2017_Feb_03_1302,59.6317148349,spr_backupper,001,Mi17,
,350,ziemlich,noch,Trinkwassers.,feinem,liegen,geschleudert.,auf,war,was,sauberen,Glas,"frischem,",Auto,einen,deren,die,sie,wurden,den,monatlichem,der,unzureichenden,im,"nachgewiesen,",mehr,um,seltenem,Bundespräsident.,Lärm,des,hat,Störenfriede,noch,Tiere,einem,minimalem,vor,eine,weichem,von,hat,Mann,sie,derer,roten,zusätzlichem,Trinkwasser.,die,unzureichenden,am,immer,roten,täglichem,salzige,leider,purem,salziger,"Zeit,",Wäsche.,frisches,"reichem,",Kram,harten,des,elektrische,serviert.,Skandal,serviert.,mehr,im,Glas,hätten,Wetter,liegen,künftigem,die,klassischen,Lärm,leider,einem,ungefähr,feinem,Wäsche.,frischen,kaltem,geschleudert.,Krams,eine,elektrischer,Skandals,würden,Störenfriede,wurden,350,auf,Wetters,gelegentlichen,,,,,,,,,,,,,,,,,,,,,,,6,0,6,0,0,5,5,5,,,,,,,space,0.496332168579,,,,,2017_Feb_03_1302,59.6317148349,spr_backupper,001,Mi17,
,ml,"vermiest,",eine,nan,Kunsteis,die,nan,jeden,aus,Tupperware,Kraftstoff,köstlichen,kaltem,mehr,Besucher.,sie,Stimmung,defekt,verschrottet.,Soldaten,Taschengeld,Soldaten,Helmen,Müll.,dass,als,die,dichten,nan,um,Herrn,den,jeden.,eine,artgerecht,Esslöffel,täglichen,Dezember,große,Untergrund,den,den,mehr,defekt,sie,Planeten,schwarzem,nan,er,Helmen,Hauptbahnhof.,ruhig,Planet,grünen,Wurst,nichts,Alkohol,Wurst,um,nan,Gras,goldenen,aus,Schaumstoff,Herrn,Energie.,nan,wiedergewählt.,nan,als,Müll.,köstlicher,seiner,die,die,Einkommen,Flut,Schmuck,um,nichts,Esslöffel,drei,dichten,nan,Grases,Abduschen,nan,aus,große,Energie.,wiedergewählt.,seiner,jeden.,verschrottet.,ml,jeden,die,Besucher.,,,,,,,,,,,,,,,,,,,,,,,6,0,6,0,0,6,6,6,,,,,,,space,0.445302009583,,,,,2017_Feb_03_1302,59.6317148349,spr_backupper,001,Mi17,
,warme,dass,Sammlung,nan,eingesprüht.,Slums.,nan,Fall,Japan.,ist.,fahren.,Weins,Saft,als,nan,überführt,ziemlich,war.,nan,des,selber,des,zur,nan,das,einmal,Probleme,Gewebe,nan,jede,Gantenbein.,Boden,nan,Sammlung,gehalten.,warmem,Einsatz,stattfinden.,Menge,liegen.,Problemen,Boden,als,war.,überführt,ganz,Kaffee,nan,trug.,zur,nan,diskutiert.,ganz,Tee,mit,mitbringen.,verdünnt.,mit,Nadelhölzer,nan,zwängen.,Besatz,dem,gefertigt.,Gantenbeins.,nan,nan,nan,nan,einmal,nan,Wein,Frau,Wohnung.,Slums.,haftbar.,zurückgekehrt.,umgearbeitet.,jede,mitbringen.,warmen,Tage.,Stoff,nan,zwängen.,gehärtet.,nan,dem,Menge,nan,nan,Frau,nan,nan,warmer,Fall,Wohnung.,nan,,,,,,,,,,,,,,,,,,,,,,,6,0,6,0,0,7,7,7,,,,,,,space,0.561805963516,,,,,2017_Feb_03_1302,59.6317148349,spr_backupper,001,Mi17,
,,,,,,,,,,,,,,,,,,,,,,,,,,,,,,,,,,,,,,,,,,,,,,,,,,,,,,,,,,,,,,,,,,,,,,,,,,,,,,,,,,,,,,,,,,,,,,,,,,,,,,,,,,,,,,,,,,,,,,,,,6,0,6,0,,,,,,,,,,,,,None,n,6.81548309326,,2017_Feb_03_1302,59.6317148349,spr_backupper,001,Mi17,
,In,Es,Sie,Sie,Die,Am,Es,100,Die,Die,Wir,Bei,Sie,Wir,Wir,Es,Dass,Die,Die,Bei,Jugendliche,Bei,Die,Viele,In,In,In,Danach,Walter,Man,Die,Nicht,Außer,Sie,In,Er,Ihr,Unter,Mit,Jungtiere,In,Nicht,Wir,Die,Es,Im,Die,Sie,Die,Die,Die,Fernab,Im,Ich,Ich,Außer,Die,Ich,Jetzt,Dort,Wir,Das,Wir,Alle,Die,Die,Beträchtliche,Er,Beträchtliche,In,Viele,Bei,Die,Sie,Am,Manche,Als,Die,Man,Außer,Er,Der,Er,Dort,Wir,Die,Es,Wir,Mit,Die,Er,Die,Außer,Die,In,100,Sie,Wir,,,,,,,,,,,,,,,,,,,,,,,7,0,7,0,0,0,0,0,,,,,,None,space,0.772186994553,,,,,2017_Feb_03_1302,59.6317148349,spr_backupper,001,Mi17,
,den,hat,hatte,verbrauchen,Eislaufbahnen,äußersten,wurden,g,"Uhr,",Teilnehmerinnen,konnten,unserer,haben,übergaben,hatten,waren,es,Uhr,Autos,der,können,der,Kinder,Tonnen,einer,meinem,der,wurde,Scheel,machte,Gäste,ein,dem,hatte,diesem,stellt,Blutdruck,keinen,dieser,sollten,der,ein,übergaben,Uhr,waren,Fernrohr,müden,verbrauchen,Uhr,Kinder,Linie,des,Fernrohr,wurde,nehme,das,Lösung,nehme,ist,türmen,mussten,Tuch,haben,Betten,Gäste,Schule,Stücke,wurde,Stücke,meinem,Tonnen,unserer,Schuhe,verlassen,äußeren,Kreditnehmer,die,Stücke,machte,dem,stellt,Flug,hat,türmen,mussten,Formen,wurden,haben,dieser,Schule,wurde,Schuhe,den,Autos,den,g,verlassen,hatten,,,,,,,,,,,,,,,,,,,,,,,7,0,7,0,0,1,1,1,,,,,,,space,0.454282045364,,,,,2017_Feb_03_1302,59.6317148349,spr_backupper,001,Mi17,
,Kakao,uns,keine,60,wurden,Rand,Eimer,brauner,die,wussten,dann,Ankunft,die,dem,in,nur,"regnete,",schlug,beider,Feier,Kleidung,Feier,fuhren,gebrauchte,Studie,Studium,Tat,die,war,mal,suchen,Tropfen,Bürgermeister,keine,Zirkus,die,kann,Umständen,Methode,immer,Tat,Tropfen,das,schlug,nur,sahen,Teilnehmer,60,war,fuhren,101,Rummels,sahen,damals,eine,Essen,wird,eine,genau,sich,uns,wurde,jede,wurden,suchen,verbraucht,saftiges,trotz,saftigen,Studium,gebrauchter,Ankunft,in,wegen,Rand,sind,Sonne,wurden,mal,Essen,die,zum,ein,sich,uns,wurden,Eimer,jede,Methode,verbraucht,trotz,in,Bürgermeister,beider,Kakao,braunen,wegen,in,,,,,,,,,,,,,,,,,,,,,,,7,0,7,0,0,2,2,2,,,,,,,space,0.499676942825,,,,,2017_Feb_03_1302,59.6317148349,spr_backupper,001,Mi17,
,gehören,die,Lust,Liter,mit,der,roter,Zucker,er,überwiegend,mit,stand,Erlebnisse,Mann,Dänemark,kleinere,hat,"sporadisch,",beteiligter,gedachte,bei,gedachte,mit,Kleidung,wurde,habe,wissen,Leinwand,der,wieder,die,königliches,beschuldigten,Lust,werden,Masse,schon,können,kann,auf,wissen,königlichen,Auto,"sporadisch,",kleinere,wir,wurden,Liter,aus,mit,hält,wurde,wir,schnell,große,kann,mit,große,die,Berge,durch,dann,Menge,mit,die,260.000,Fleisch,dem,Fleischs,las,Kleidung,stand,Größe,dem,der,mit,"unterging,",aus,wieder,kann,Masse,Mond,Hemd,Berge,durch,unter,rote,Menge,kann,260.000,des,Größe,beschuldigten,beteiligten,gehören,Zuckers,des,Dänemark,,,,,,,,,,,,,,,,,,,,,,,7,0,7,0,0,3,3,3,,,,,,,space,0.527546167374,,,,,2017_Feb_03_1302,59.6317148349,spr_backupper,001,Mi17,
,immer,Stimmung,auf,sprudelnden,dauerhaftem,Stadt,Farbe,sind,"trug,","nicht,","minimalem,",ein,bei,das,gelegentlich,"Delikte,",uns,obschon,Fahrer,man,ausreichendem,man,solchen,landen,jetzt,ich,wir,aus,vierte,viel,Wohnung,Blut,die,auf,die,mit,bei,Neuwahlen,man,warmem,wir,Bluts,dem,obwohl,"Delikte,",den,mit,sprudelndes,"Japan,",solch,nicht,schon,den,dank,Packung,ich,"reichlichem,",Packung,richtige,schmutziger,Büschel,mit,alten,"üblichem,",Wohnung,Kilowattstunden,wurden,bekannten,wurden,ich,landen,ein,36,schönen,Stadt,"sämtlichem,",war,"wertvollem,",viel,ich,mit,dauerte,aus,schmutzige,Büschel,"regelmäßigem,",Farbe,alten,man,Kilowattstunden,bekannten,36,die,Fahrer,immer,sind,schönen,einen,,,,,,,,,,,,,,,,,,,,,,,7,0,7,0,0,4,4,4,,,,,,,space,0.4203748703,,,,,2017_Feb_03_1302,59.6317148349,spr_backupper,001,Mi17,
,350,ziemlich,noch,Trinkwassers.,feinem,liegen,geschleudert.,auf,war,was,sauberen,Glas,"frischem,",Auto,einen,deren,die,sie,wurden,den,monatlichem,der,unzureichenden,im,"nachgewiesen,",mehr,um,seltenem,Bundespräsident.,Lärm,des,hat,Störenfriede,noch,Tiere,einem,minimalem,vor,eine,weichem,von,hat,Mann,sie,derer,roten,zusätzlichem,Trinkwasser.,die,unzureichenden,am,immer,roten,täglichem,salzige,leider,purem,salziger,"Zeit,",Wäsche.,frisches,"reichem,",Kram,harten,des,elektrische,serviert.,Skandal,serviert.,mehr,im,Glas,hätten,Wetter,liegen,künftigem,die,klassischen,Lärm,leider,einem,ungefähr,feinem,Wäsche.,frischen,kaltem,geschleudert.,Krams,eine,elektrischer,Skandals,würden,Störenfriede,wurden,350,auf,Wetters,gelegentlichen,,,,,,,,,,,,,,,,,,,,,,,7,0,7,0,0,5,5,5,,,,,,,space,0.453186035156,,,,,2017_Feb_03_1302,59.6317148349,spr_backupper,001,Mi17,
,ml,"vermiest,",eine,nan,Kunsteis,die,nan,jeden,aus,Tupperware,Kraftstoff,köstlichen,kaltem,mehr,Besucher.,sie,Stimmung,defekt,verschrottet.,Soldaten,Taschengeld,Soldaten,Helmen,Müll.,dass,als,die,dichten,nan,um,Herrn,den,jeden.,eine,artgerecht,Esslöffel,täglichen,Dezember,große,Untergrund,den,den,mehr,defekt,sie,Planeten,schwarzem,nan,er,Helmen,Hauptbahnhof.,ruhig,Planet,grünen,Wurst,nichts,Alkohol,Wurst,um,nan,Gras,goldenen,aus,Schaumstoff,Herrn,Energie.,nan,wiedergewählt.,nan,als,Müll.,köstlicher,seiner,die,die,Einkommen,Flut,Schmuck,um,nichts,Esslöffel,drei,dichten,nan,Grases,Abduschen,nan,aus,große,Energie.,wiedergewählt.,seiner,jeden.,verschrottet.,ml,jeden,die,Besucher.,,,,,,,,,,,,,,,,,,,,,,,7,0,7,0,0,6,6,6,,,,,,,space,0.437614917755,,,,,2017_Feb_03_1302,59.6317148349,spr_backupper,001,Mi17,
,warme,dass,Sammlung,nan,eingesprüht.,Slums.,nan,Fall,Japan.,ist.,fahren.,Weins,Saft,als,nan,überführt,ziemlich,war.,nan,des,selber,des,zur,nan,das,einmal,Probleme,Gewebe,nan,jede,Gantenbein.,Boden,nan,Sammlung,gehalten.,warmem,Einsatz,stattfinden.,Menge,liegen.,Problemen,Boden,als,war.,überführt,ganz,Kaffee,nan,trug.,zur,nan,diskutiert.,ganz,Tee,mit,mitbringen.,verdünnt.,mit,Nadelhölzer,nan,zwängen.,Besatz,dem,gefertigt.,Gantenbeins.,nan,nan,nan,nan,einmal,nan,Wein,Frau,Wohnung.,Slums.,haftbar.,zurückgekehrt.,umgearbeitet.,jede,mitbringen.,warmen,Tage.,Stoff,nan,zwängen.,gehärtet.,nan,dem,Menge,nan,nan,Frau,nan,nan,warmer,Fall,Wohnung.,nan,,,,,,,,,,,,,,,,,,,,,,,7,0,7,0,0,7,7,7,,,,,,,space,0.574107885361,,,,,2017_Feb_03_1302,59.6317148349,spr_backupper,001,Mi17,
,Milch.,es,dumme,nan,nan,nan,nan,genug.,nan,nan,nan,schon,besprochen.,gerne.,nan,wurden.,vermiest.,nan,nan,zweiten,kaufen.,zweiten,Schule.,nan,Medikament,Rilke,im,wiederhergestellt.,nan,Menge,nan,berührt.,nan,dummer,nan,Honig,sinken.,nan,dunkle,nan,im,berührt.,gerne.,nan,wurden.,deutlich.,wiederbelebt.,nan,nan,Schule.,nan,nan,deutlich.,wieder,an,nan,nan,an,umzusetzen.,nan,nan,rekonstruiert.,Haus,nan,nan,nan,nan,nan,nan,Rilke.,nan,schon,gepasst.,nan,nan,nan,nan,nan,Menge,nan,Honigs,nan,gefertigt.,nan,nan,nan,nan,Haus,dunkler,nan,nan,gepasst,nan,nan,Milch.,genug.,nan,nan,,,,,,,,,,,,,,,,,,,,,,,7,0,7,0,0,8,8,8,,,,,,,space,0.789407968521,,,,,2017_Feb_03_1302,59.6317148349,spr_backupper,001,Mi17,
,nan,regnete.,Sprüche.,nan,nan,nan,nan,nan,nan,nan,nan,auf,nan,nan,nan,nan,nan,nan,nan,Weltkriegs.,nan,Weltkriegs.,nan,nan,nicht,gelesen.,Landkreis.,nan,nan,heiße,nan,nan,nan,Sprüche.,nan,her.,nan,nan,Materie,nan,Landkreis.,nan,nan,nan,nan,nan,nan,nan,nan,nan,nan,nan,nan,fit.,den,nan,nan,den,nan,nan,nan,nan,geschafft.,nan,nan,nan,nan,nan,nan,nan,nan,auf,nan,nan,nan,nan,nan,nan,heißer,nan,her.,nan,nan,nan,nan,nan,nan,geschafft.,Materie,nan,nan,haben.,nan,nan,nan,nan,nan,nan,,,,,,,,,,,,,,,,,,,,,,,7,0,7,0,0,9,9,9,,,,,,,space,0.884401798248,,,,,2017_Feb_03_1302,59.6317148349,spr_backupper,001,Mi17,
,,,,,,,,,,,,,,,,,,,,,,,,,,,,,,,,,,,,,,,,,,,,,,,,,,,,,,,,,,,,,,,,,,,,,,,,,,,,,,,,,,,,,,,,,,,,,,,,,,,,,,,,,,,,,,,,,,,,,,,,,7,0,7,0,,,,,,,,,,,,,None,n,12.2537031174,,2017_Feb_03_1302,59.6317148349,spr_backupper,001,Mi17,
,In,Es,Sie,Sie,Die,Am,Es,100,Die,Die,Wir,Bei,Sie,Wir,Wir,Es,Dass,Die,Die,Bei,Jugendliche,Bei,Die,Viele,In,In,In,Danach,Walter,Man,Die,Nicht,Außer,Sie,In,Er,Ihr,Unter,Mit,Jungtiere,In,Nicht,Wir,Die,Es,Im,Die,Sie,Die,Die,Die,Fernab,Im,Ich,Ich,Außer,Die,Ich,Jetzt,Dort,Wir,Das,Wir,Alle,Die,Die,Beträchtliche,Er,Beträchtliche,In,Viele,Bei,Die,Sie,Am,Manche,Als,Die,Man,Außer,Er,Der,Er,Dort,Wir,Die,Es,Wir,Mit,Die,Er,Die,Außer,Die,In,100,Sie,Wir,,,,,,,,,,,,,,,,,,,,,,,8,0,8,0,0,0,0,0,,,,,,space,space,0.665861129761,,,,1.35770893097,2017_Feb_03_1302,59.6317148349,spr_backupper,001,Mi17,
,den,hat,hatte,verbrauchen,Eislaufbahnen,äußersten,wurden,g,"Uhr,",Teilnehmerinnen,konnten,unserer,haben,übergaben,hatten,waren,es,Uhr,Autos,der,können,der,Kinder,Tonnen,einer,meinem,der,wurde,Scheel,machte,Gäste,ein,dem,hatte,diesem,stellt,Blutdruck,keinen,dieser,sollten,der,ein,übergaben,Uhr,waren,Fernrohr,müden,verbrauchen,Uhr,Kinder,Linie,des,Fernrohr,wurde,nehme,das,Lösung,nehme,ist,türmen,mussten,Tuch,haben,Betten,Gäste,Schule,Stücke,wurde,Stücke,meinem,Tonnen,unserer,Schuhe,verlassen,äußeren,Kreditnehmer,die,Stücke,machte,dem,stellt,Flug,hat,türmen,mussten,Formen,wurden,haben,dieser,Schule,wurde,Schuhe,den,Autos,den,g,verlassen,hatten,,,,,,,,,,,,,,,,,,,,,,,8,0,8,0,0,1,1,1,,,,,,,space,0.542324066162,,,,,2017_Feb_03_1302,59.6317148349,spr_backupper,001,Mi17,
,Kakao,uns,keine,60,wurden,Rand,Eimer,brauner,die,wussten,dann,Ankunft,die,dem,in,nur,"regnete,",schlug,beider,Feier,Kleidung,Feier,fuhren,gebrauchte,Studie,Studium,Tat,die,war,mal,suchen,Tropfen,Bürgermeister,keine,Zirkus,die,kann,Umständen,Methode,immer,Tat,Tropfen,das,schlug,nur,sahen,Teilnehmer,60,war,fuhren,101,Rummels,sahen,damals,eine,Essen,wird,eine,genau,sich,uns,wurde,jede,wurden,suchen,verbraucht,saftiges,trotz,saftigen,Studium,gebrauchter,Ankunft,in,wegen,Rand,sind,Sonne,wurden,mal,Essen,die,zum,ein,sich,uns,wurden,Eimer,jede,Methode,verbraucht,trotz,in,Bürgermeister,beider,Kakao,braunen,wegen,in,,,,,,,,,,,,,,,,,,,,,,,8,0,8,0,0,2,2,2,,,,,,,space,0.435636043549,,,,,2017_Feb_03_1302,59.6317148349,spr_backupper,001,Mi17,
,gehören,die,Lust,Liter,mit,der,roter,Zucker,er,überwiegend,mit,stand,Erlebnisse,Mann,Dänemark,kleinere,hat,"sporadisch,",beteiligter,gedachte,bei,gedachte,mit,Kleidung,wurde,habe,wissen,Leinwand,der,wieder,die,königliches,beschuldigten,Lust,werden,Masse,schon,können,kann,auf,wissen,königlichen,Auto,"sporadisch,",kleinere,wir,wurden,Liter,aus,mit,hält,wurde,wir,schnell,große,kann,mit,große,die,Berge,durch,dann,Menge,mit,die,260.000,Fleisch,dem,Fleischs,las,Kleidung,stand,Größe,dem,der,mit,"unterging,",aus,wieder,kann,Masse,Mond,Hemd,Berge,durch,unter,rote,Menge,kann,260.000,des,Größe,beschuldigten,beteiligten,gehören,Zuckers,des,Dänemark,,,,,,,,,,,,,,,,,,,,,,,8,0,8,0,0,3,3,3,,,,,,,space,0.520061969757,,,,,2017_Feb_03_1302,59.6317148349,spr_backupper,001,Mi17,
,immer,Stimmung,auf,sprudelnden,dauerhaftem,Stadt,Farbe,sind,"trug,","nicht,","minimalem,",ein,bei,das,gelegentlich,"Delikte,",uns,obschon,Fahrer,man,ausreichendem,man,solchen,landen,jetzt,ich,wir,aus,vierte,viel,Wohnung,Blut,die,auf,die,mit,bei,Neuwahlen,man,warmem,wir,Bluts,dem,obwohl,"Delikte,",den,mit,sprudelndes,"Japan,",solch,nicht,schon,den,dank,Packung,ich,"reichlichem,",Packung,richtige,schmutziger,Büschel,mit,alten,"üblichem,",Wohnung,Kilowattstunden,wurden,bekannten,wurden,ich,landen,ein,36,schönen,Stadt,"sämtlichem,",war,"wertvollem,",viel,ich,mit,dauerte,aus,schmutzige,Büschel,"regelmäßigem,",Farbe,alten,man,Kilowattstunden,bekannten,36,die,Fahrer,immer,sind,schönen,einen,,,,,,,,,,,,,,,,,,,,,,,8,0,8,0,0,4,4,4,,,,,,,space,0.68755197525,,,,,2017_Feb_03_1302,59.6317148349,spr_backupper,001,Mi17,
,350,ziemlich,noch,Trinkwassers.,feinem,liegen,geschleudert.,auf,war,was,sauberen,Glas,"frischem,",Auto,einen,deren,die,sie,wurden,den,monatlichem,der,unzureichenden,im,"nachgewiesen,",mehr,um,seltenem,Bundespräsident.,Lärm,des,hat,Störenfriede,noch,Tiere,einem,minimalem,vor,eine,weichem,von,hat,Mann,sie,derer,roten,zusätzlichem,Trinkwasser.,die,unzureichenden,am,immer,roten,täglichem,salzige,leider,purem,salziger,"Zeit,",Wäsche.,frisches,"reichem,",Kram,harten,des,elektrische,serviert.,Skandal,serviert.,mehr,im,Glas,hätten,Wetter,liegen,künftigem,die,klassischen,Lärm,leider,einem,ungefähr,feinem,Wäsche.,frischen,kaltem,geschleudert.,Krams,eine,elektrischer,Skandals,würden,Störenfriede,wurden,350,auf,Wetters,gelegentlichen,,,,,,,,,,,,,,,,,,,,,,,8,0,8,0,0,5,5,5,,,,,,,space,0.52628993988,,,,,2017_Feb_03_1302,59.6317148349,spr_backupper,001,Mi17,
,ml,"vermiest,",eine,nan,Kunsteis,die,nan,jeden,aus,Tupperware,Kraftstoff,köstlichen,kaltem,mehr,Besucher.,sie,Stimmung,defekt,verschrottet.,Soldaten,Taschengeld,Soldaten,Helmen,Müll.,dass,als,die,dichten,nan,um,Herrn,den,jeden.,eine,artgerecht,Esslöffel,täglichen,Dezember,große,Untergrund,den,den,mehr,defekt,sie,Planeten,schwarzem,nan,er,Helmen,Hauptbahnhof.,ruhig,Planet,grünen,Wurst,nichts,Alkohol,Wurst,um,nan,Gras,goldenen,aus,Schaumstoff,Herrn,Energie.,nan,wiedergewählt.,nan,als,Müll.,köstlicher,seiner,die,die,Einkommen,Flut,Schmuck,um,nichts,Esslöffel,drei,dichten,nan,Grases,Abduschen,nan,aus,große,Energie.,wiedergewählt.,seiner,jeden.,verschrottet.,ml,jeden,die,Besucher.,,,,,,,,,,,,,,,,,,,,,,,8,0,8,0,0,6,6,6,,,,,,,space,0.570578813553,,,,,2017_Feb_03_1302,59.6317148349,spr_backupper,001,Mi17,
,warme,dass,Sammlung,nan,eingesprüht.,Slums.,nan,Fall,Japan.,ist.,fahren.,Weins,Saft,als,nan,überführt,ziemlich,war.,nan,des,selber,des,zur,nan,das,einmal,Probleme,Gewebe,nan,jede,Gantenbein.,Boden,nan,Sammlung,gehalten.,warmem,Einsatz,stattfinden.,Menge,liegen.,Problemen,Boden,als,war.,überführt,ganz,Kaffee,nan,trug.,zur,nan,diskutiert.,ganz,Tee,mit,mitbringen.,verdünnt.,mit,Nadelhölzer,nan,zwängen.,Besatz,dem,gefertigt.,Gantenbeins.,nan,nan,nan,nan,einmal,nan,Wein,Frau,Wohnung.,Slums.,haftbar.,zurückgekehrt.,umgearbeitet.,jede,mitbringen.,warmen,Tage.,Stoff,nan,zwängen.,gehärtet.,nan,dem,Menge,nan,nan,Frau,nan,nan,warmer,Fall,Wohnung.,nan,,,,,,,,,,,,,,,,,,,,,,,8,0,8,0,0,7,7,7,,,,,,,space,0.530251026154,,,,,2017_Feb_03_1302,59.6317148349,spr_backupper,001,Mi17,
,Milch.,es,dumme,nan,nan,nan,nan,genug.,nan,nan,nan,schon,besprochen.,gerne.,nan,wurden.,vermiest.,nan,nan,zweiten,kaufen.,zweiten,Schule.,nan,Medikament,Rilke,im,wiederhergestellt.,nan,Menge,nan,berührt.,nan,dummer,nan,Honig,sinken.,nan,dunkle,nan,im,berührt.,gerne.,nan,wurden.,deutlich.,wiederbelebt.,nan,nan,Schule.,nan,nan,deutlich.,wieder,an,nan,nan,an,umzusetzen.,nan,nan,rekonstruiert.,Haus,nan,nan,nan,nan,nan,nan,Rilke.,nan,schon,gepasst.,nan,nan,nan,nan,nan,Menge,nan,Honigs,nan,gefertigt.,nan,nan,nan,nan,Haus,dunkler,nan,nan,gepasst,nan,nan,Milch.,genug.,nan,nan,,,,,,,,,,,,,,,,,,,,,,,8,0,8,0,0,8,8,8,,,,,,,space,0.437156915665,,,,,2017_Feb_03_1302,59.6317148349,spr_backupper,001,Mi17,
,nan,regnete.,Sprüche.,nan,nan,nan,nan,nan,nan,nan,nan,auf,nan,nan,nan,nan,nan,nan,nan,Weltkriegs.,nan,Weltkriegs.,nan,nan,nicht,gelesen.,Landkreis.,nan,nan,heiße,nan,nan,nan,Sprüche.,nan,her.,nan,nan,Materie,nan,Landkreis.,nan,nan,nan,nan,nan,nan,nan,nan,nan,nan,nan,nan,fit.,den,nan,nan,den,nan,nan,nan,nan,geschafft.,nan,nan,nan,nan,nan,nan,nan,nan,auf,nan,nan,nan,nan,nan,nan,heißer,nan,her.,nan,nan,nan,nan,nan,nan,geschafft.,Materie,nan,nan,haben.,nan,nan,nan,nan,nan,nan,,,,,,,,,,,,,,,,,,,,,,,8,0,8,0,0,9,9,9,,,,,,,space,0.74337387085,,,,,2017_Feb_03_1302,59.6317148349,spr_backupper,001,Mi17,
,,,,,,,,,,,,,,,,,,,,,,,,,,,,,,,,,,,,,,,,,,,,,,,,,,,,,,,,,,,,,,,,,,,,,,,,,,,,,,,,,,,,,,,,,,,,,,,,,,,,,,,,,,,,,,,,,,,,,,,,,8,0,8,0,,,,,,,,,,,,,None,j,2.78454780579,,2017_Feb_03_1302,59.6317148349,spr_backupper,001,Mi17,
,In,Es,Sie,Sie,Die,Am,Es,100,Die,Die,Wir,Bei,Sie,Wir,Wir,Es,Dass,Die,Die,Bei,Jugendliche,Bei,Die,Viele,In,In,In,Danach,Walter,Man,Die,Nicht,Außer,Sie,In,Er,Ihr,Unter,Mit,Jungtiere,In,Nicht,Wir,Die,Es,Im,Die,Sie,Die,Die,Die,Fernab,Im,Ich,Ich,Außer,Die,Ich,Jetzt,Dort,Wir,Das,Wir,Alle,Die,Die,Beträchtliche,Er,Beträchtliche,In,Viele,Bei,Die,Sie,Am,Manche,Als,Die,Man,Außer,Er,Der,Er,Dort,Wir,Die,Es,Wir,Mit,Die,Er,Die,Außer,Die,In,100,Sie,Wir,,,,,,,,,,,,,,,,,,,,,,,9,0,9,0,0,0,0,0,,,,,,None,space,0.99404501915,,,,,2017_Feb_03_1302,59.6317148349,spr_backupper,001,Mi17,
,den,hat,hatte,verbrauchen,Eislaufbahnen,äußersten,wurden,g,"Uhr,",Teilnehmerinnen,konnten,unserer,haben,übergaben,hatten,waren,es,Uhr,Autos,der,können,der,Kinder,Tonnen,einer,meinem,der,wurde,Scheel,machte,Gäste,ein,dem,hatte,diesem,stellt,Blutdruck,keinen,dieser,sollten,der,ein,übergaben,Uhr,waren,Fernrohr,müden,verbrauchen,Uhr,Kinder,Linie,des,Fernrohr,wurde,nehme,das,Lösung,nehme,ist,türmen,mussten,Tuch,haben,Betten,Gäste,Schule,Stücke,wurde,Stücke,meinem,Tonnen,unserer,Schuhe,verlassen,äußeren,Kreditnehmer,die,Stücke,machte,dem,stellt,Flug,hat,türmen,mussten,Formen,wurden,haben,dieser,Schule,wurde,Schuhe,den,Autos,den,g,verlassen,hatten,,,,,,,,,,,,,,,,,,,,,,,9,0,9,0,0,1,1,1,,,,,,,space,0.636990070343,,,,,2017_Feb_03_1302,59.6317148349,spr_backupper,001,Mi17,
,Kakao,uns,keine,60,wurden,Rand,Eimer,brauner,die,wussten,dann,Ankunft,die,dem,in,nur,"regnete,",schlug,beider,Feier,Kleidung,Feier,fuhren,gebrauchte,Studie,Studium,Tat,die,war,mal,suchen,Tropfen,Bürgermeister,keine,Zirkus,die,kann,Umständen,Methode,immer,Tat,Tropfen,das,schlug,nur,sahen,Teilnehmer,60,war,fuhren,101,Rummels,sahen,damals,eine,Essen,wird,eine,genau,sich,uns,wurde,jede,wurden,suchen,verbraucht,saftiges,trotz,saftigen,Studium,gebrauchter,Ankunft,in,wegen,Rand,sind,Sonne,wurden,mal,Essen,die,zum,ein,sich,uns,wurden,Eimer,jede,Methode,verbraucht,trotz,in,Bürgermeister,beider,Kakao,braunen,wegen,in,,,,,,,,,,,,,,,,,,,,,,,9,0,9,0,0,2,2,2,,,,,,,space,0.536026000977,,,,,2017_Feb_03_1302,59.6317148349,spr_backupper,001,Mi17,
,gehören,die,Lust,Liter,mit,der,roter,Zucker,er,überwiegend,mit,stand,Erlebnisse,Mann,Dänemark,kleinere,hat,"sporadisch,",beteiligter,gedachte,bei,gedachte,mit,Kleidung,wurde,habe,wissen,Leinwand,der,wieder,die,königliches,beschuldigten,Lust,werden,Masse,schon,können,kann,auf,wissen,königlichen,Auto,"sporadisch,",kleinere,wir,wurden,Liter,aus,mit,hält,wurde,wir,schnell,große,kann,mit,große,die,Berge,durch,dann,Menge,mit,die,260.000,Fleisch,dem,Fleischs,las,Kleidung,stand,Größe,dem,der,mit,"unterging,",aus,wieder,kann,Masse,Mond,Hemd,Berge,durch,unter,rote,Menge,kann,260.000,des,Größe,beschuldigten,beteiligten,gehören,Zuckers,des,Dänemark,,,,,,,,,,,,,,,,,,,,,,,9,0,9,0,0,3,3,3,,,,,,,space,0.573432207108,,,,,2017_Feb_03_1302,59.6317148349,spr_backupper,001,Mi17,
,immer,Stimmung,auf,sprudelnden,dauerhaftem,Stadt,Farbe,sind,"trug,","nicht,","minimalem,",ein,bei,das,gelegentlich,"Delikte,",uns,obschon,Fahrer,man,ausreichendem,man,solchen,landen,jetzt,ich,wir,aus,vierte,viel,Wohnung,Blut,die,auf,die,mit,bei,Neuwahlen,man,warmem,wir,Bluts,dem,obwohl,"Delikte,",den,mit,sprudelndes,"Japan,",solch,nicht,schon,den,dank,Packung,ich,"reichlichem,",Packung,richtige,schmutziger,Büschel,mit,alten,"üblichem,",Wohnung,Kilowattstunden,wurden,bekannten,wurden,ich,landen,ein,36,schönen,Stadt,"sämtlichem,",war,"wertvollem,",viel,ich,mit,dauerte,aus,schmutzige,Büschel,"regelmäßigem,",Farbe,alten,man,Kilowattstunden,bekannten,36,die,Fahrer,immer,sind,schönen,einen,,,,,,,,,,,,,,,,,,,,,,,9,0,9,0,0,4,4,4,,,,,,,space,0.621328115463,,,,,2017_Feb_03_1302,59.6317148349,spr_backupper,001,Mi17,
,350,ziemlich,noch,Trinkwassers.,feinem,liegen,geschleudert.,auf,war,was,sauberen,Glas,"frischem,",Auto,einen,deren,die,sie,wurden,den,monatlichem,der,unzureichenden,im,"nachgewiesen,",mehr,um,seltenem,Bundespräsident.,Lärm,des,hat,Störenfriede,noch,Tiere,einem,minimalem,vor,eine,weichem,von,hat,Mann,sie,derer,roten,zusätzlichem,Trinkwasser.,die,unzureichenden,am,immer,roten,täglichem,salzige,leider,purem,salziger,"Zeit,",Wäsche.,frisches,"reichem,",Kram,harten,des,elektrische,serviert.,Skandal,serviert.,mehr,im,Glas,hätten,Wetter,liegen,künftigem,die,klassischen,Lärm,leider,einem,ungefähr,feinem,Wäsche.,frischen,kaltem,geschleudert.,Krams,eine,elektrischer,Skandals,würden,Störenfriede,wurden,350,auf,Wetters,gelegentlichen,,,,,,,,,,,,,,,,,,,,,,,9,0,9,0,0,5,5,5,,,,,,,space,0.495193004608,,,,,2017_Feb_03_1302,59.6317148349,spr_backupper,001,Mi17,
,ml,"vermiest,",eine,nan,Kunsteis,die,nan,jeden,aus,Tupperware,Kraftstoff,köstlichen,kaltem,mehr,Besucher.,sie,Stimmung,defekt,verschrottet.,Soldaten,Taschengeld,Soldaten,Helmen,Müll.,dass,als,die,dichten,nan,um,Herrn,den,jeden.,eine,artgerecht,Esslöffel,täglichen,Dezember,große,Untergrund,den,den,mehr,defekt,sie,Planeten,schwarzem,nan,er,Helmen,Hauptbahnhof.,ruhig,Planet,grünen,Wurst,nichts,Alkohol,Wurst,um,nan,Gras,goldenen,aus,Schaumstoff,Herrn,Energie.,nan,wiedergewählt.,nan,als,Müll.,köstlicher,seiner,die,die,Einkommen,Flut,Schmuck,um,nichts,Esslöffel,drei,dichten,nan,Grases,Abduschen,nan,aus,große,Energie.,wiedergewählt.,seiner,jeden.,verschrottet.,ml,jeden,die,Besucher.,,,,,,,,,,,,,,,,,,,,,,,9,0,9,0,0,6,6,6,,,,,,,space,0.494580030441,,,,,2017_Feb_03_1302,59.6317148349,spr_backupper,001,Mi17,
,,,,,,,,,,,,,,,,,,,,,,,,,,,,,,,,,,,,,,,,,,,,,,,,,,,,,,,,,,,,,,,,,,,,,,,,,,,,,,,,,,,,,,,,,,,,,,,,,,,,,,,,,,,,,,,,,,,,,,,,,9,0,9,0,,,,,,,,,,,,,None,j,30.1244931221,,2017_Feb_03_1302,59.6317148349,spr_backupper,001,Mi17,
,In,Es,Sie,Sie,Die,Am,Es,100,Die,Die,Wir,Bei,Sie,Wir,Wir,Es,Dass,Die,Die,Bei,Jugendliche,Bei,Die,Viele,In,In,In,Danach,Walter,Man,Die,Nicht,Außer,Sie,In,Er,Ihr,Unter,Mit,Jungtiere,In,Nicht,Wir,Die,Es,Im,Die,Sie,Die,Die,Die,Fernab,Im,Ich,Ich,Außer,Die,Ich,Jetzt,Dort,Wir,Das,Wir,Alle,Die,Die,Beträchtliche,Er,Beträchtliche,In,Viele,Bei,Die,Sie,Am,Manche,Als,Die,Man,Außer,Er,Der,Er,Dort,Wir,Die,Es,Wir,Mit,Die,Er,Die,Außer,Die,In,100,Sie,Wir,,,,,,,,,,,,,,,,,,,,,,,10,0,10,0,0,0,0,0,,,,,,None,space,0.772117137909,,,,,2017_Feb_03_1302,59.6317148349,spr_backupper,001,Mi17,
,den,hat,hatte,verbrauchen,Eislaufbahnen,äußersten,wurden,g,"Uhr,",Teilnehmerinnen,konnten,unserer,haben,übergaben,hatten,waren,es,Uhr,Autos,der,können,der,Kinder,Tonnen,einer,meinem,der,wurde,Scheel,machte,Gäste,ein,dem,hatte,diesem,stellt,Blutdruck,keinen,dieser,sollten,der,ein,übergaben,Uhr,waren,Fernrohr,müden,verbrauchen,Uhr,Kinder,Linie,des,Fernrohr,wurde,nehme,das,Lösung,nehme,ist,türmen,mussten,Tuch,haben,Betten,Gäste,Schule,Stücke,wurde,Stücke,meinem,Tonnen,unserer,Schuhe,verlassen,äußeren,Kreditnehmer,die,Stücke,machte,dem,stellt,Flug,hat,türmen,mussten,Formen,wurden,haben,dieser,Schule,wurde,Schuhe,den,Autos,den,g,verlassen,hatten,,,,,,,,,,,,,,,,,,,,,,,10,0,10,0,0,1,1,1,,,,,,,space,0.504346132278,,,,,2017_Feb_03_1302,59.6317148349,spr_backupper,001,Mi17,
,Kakao,uns,keine,60,wurden,Rand,Eimer,brauner,die,wussten,dann,Ankunft,die,dem,in,nur,"regnete,",schlug,beider,Feier,Kleidung,Feier,fuhren,gebrauchte,Studie,Studium,Tat,die,war,mal,suchen,Tropfen,Bürgermeister,keine,Zirkus,die,kann,Umständen,Methode,immer,Tat,Tropfen,das,schlug,nur,sahen,Teilnehmer,60,war,fuhren,101,Rummels,sahen,damals,eine,Essen,wird,eine,genau,sich,uns,wurde,jede,wurden,suchen,verbraucht,saftiges,trotz,saftigen,Studium,gebrauchter,Ankunft,in,wegen,Rand,sind,Sonne,wurden,mal,Essen,die,zum,ein,sich,uns,wurden,Eimer,jede,Methode,verbraucht,trotz,in,Bürgermeister,beider,Kakao,braunen,wegen,in,,,,,,,,,,,,,,,,,,,,,,,10,0,10,0,0,2,2,2,,,,,,,space,0.425330877304,,,,,2017_Feb_03_1302,59.6317148349,spr_backupper,001,Mi17,
,gehören,die,Lust,Liter,mit,der,roter,Zucker,er,überwiegend,mit,stand,Erlebnisse,Mann,Dänemark,kleinere,hat,"sporadisch,",beteiligter,gedachte,bei,gedachte,mit,Kleidung,wurde,habe,wissen,Leinwand,der,wieder,die,königliches,beschuldigten,Lust,werden,Masse,schon,können,kann,auf,wissen,königlichen,Auto,"sporadisch,",kleinere,wir,wurden,Liter,aus,mit,hält,wurde,wir,schnell,große,kann,mit,große,die,Berge,durch,dann,Menge,mit,die,260.000,Fleisch,dem,Fleischs,las,Kleidung,stand,Größe,dem,der,mit,"unterging,",aus,wieder,kann,Masse,Mond,Hemd,Berge,durch,unter,rote,Menge,kann,260.000,des,Größe,beschuldigten,beteiligten,gehören,Zuckers,des,Dänemark,,,,,,,,,,,,,,,,,,,,,,,10,0,10,0,0,3,3,3,,,,,,,space,0.44359087944,,,,,2017_Feb_03_1302,59.6317148349,spr_backupper,001,Mi17,
,immer,Stimmung,auf,sprudelnden,dauerhaftem,Stadt,Farbe,sind,"trug,","nicht,","minimalem,",ein,bei,das,gelegentlich,"Delikte,",uns,obschon,Fahrer,man,ausreichendem,man,solchen,landen,jetzt,ich,wir,aus,vierte,viel,Wohnung,Blut,die,auf,die,mit,bei,Neuwahlen,man,warmem,wir,Bluts,dem,obwohl,"Delikte,",den,mit,sprudelndes,"Japan,",solch,nicht,schon,den,dank,Packung,ich,"reichlichem,",Packung,richtige,schmutziger,Büschel,mit,alten,"üblichem,",Wohnung,Kilowattstunden,wurden,bekannten,wurden,ich,landen,ein,36,schönen,Stadt,"sämtlichem,",war,"wertvollem,",viel,ich,mit,dauerte,aus,schmutzige,Büschel,"regelmäßigem,",Farbe,alten,man,Kilowattstunden,bekannten,36,die,Fahrer,immer,sind,schönen,einen,,,,,,,,,,,,,,,,,,,,,,,10,0,10,0,0,4,4,4,,,,,,,space,0.457884073257,,,,,2017_Feb_03_1302,59.6317148349,spr_backupper,001,Mi17,
,350,ziemlich,noch,Trinkwassers.,feinem,liegen,geschleudert.,auf,war,was,sauberen,Glas,"frischem,",Auto,einen,deren,die,sie,wurden,den,monatlichem,der,unzureichenden,im,"nachgewiesen,",mehr,um,seltenem,Bundespräsident.,Lärm,des,hat,Störenfriede,noch,Tiere,einem,minimalem,vor,eine,weichem,von,hat,Mann,sie,derer,roten,zusätzlichem,Trinkwasser.,die,unzureichenden,am,immer,roten,täglichem,salzige,leider,purem,salziger,"Zeit,",Wäsche.,frisches,"reichem,",Kram,harten,des,elektrische,serviert.,Skandal,serviert.,mehr,im,Glas,hätten,Wetter,liegen,künftigem,die,klassischen,Lärm,leider,einem,ungefähr,feinem,Wäsche.,frischen,kaltem,geschleudert.,Krams,eine,elektrischer,Skandals,würden,Störenfriede,wurden,350,auf,Wetters,gelegentlichen,,,,,,,,,,,,,,,,,,,,,,,10,0,10,0,0,5,5,5,,,,,,,space,1.18721795082,,,,,2017_Feb_03_1302,59.6317148349,spr_backupper,001,Mi17,
,ml,"vermiest,",eine,nan,Kunsteis,die,nan,jeden,aus,Tupperware,Kraftstoff,köstlichen,kaltem,mehr,Besucher.,sie,Stimmung,defekt,verschrottet.,Soldaten,Taschengeld,Soldaten,Helmen,Müll.,dass,als,die,dichten,nan,um,Herrn,den,jeden.,eine,artgerecht,Esslöffel,täglichen,Dezember,große,Untergrund,den,den,mehr,defekt,sie,Planeten,schwarzem,nan,er,Helmen,Hauptbahnhof.,ruhig,Planet,grünen,Wurst,nichts,Alkohol,Wurst,um,nan,Gras,goldenen,aus,Schaumstoff,Herrn,Energie.,nan,wiedergewählt.,nan,als,Müll.,köstlicher,seiner,die,die,Einkommen,Flut,Schmuck,um,nichts,Esslöffel,drei,dichten,nan,Grases,Abduschen,nan,aus,große,Energie.,wiedergewählt.,seiner,jeden.,verschrottet.,ml,jeden,die,Besucher.,,,,,,,,,,,,,,,,,,,,,,,10,0,10,0,0,6,6,6,,,,,,,space,0.787831068039,,,,,2017_Feb_03_1302,59.6317148349,spr_backupper,001,Mi17,
,warme,dass,Sammlung,nan,eingesprüht.,Slums.,nan,Fall,Japan.,ist.,fahren.,Weins,Saft,als,nan,überführt,ziemlich,war.,nan,des,selber,des,zur,nan,das,einmal,Probleme,Gewebe,nan,jede,Gantenbein.,Boden,nan,Sammlung,gehalten.,warmem,Einsatz,stattfinden.,Menge,liegen.,Problemen,Boden,als,war.,überführt,ganz,Kaffee,nan,trug.,zur,nan,diskutiert.,ganz,Tee,mit,mitbringen.,verdünnt.,mit,Nadelhölzer,nan,zwängen.,Besatz,dem,gefertigt.,Gantenbeins.,nan,nan,nan,nan,einmal,nan,Wein,Frau,Wohnung.,Slums.,haftbar.,zurückgekehrt.,umgearbeitet.,jede,mitbringen.,warmen,Tage.,Stoff,nan,zwängen.,gehärtet.,nan,dem,Menge,nan,nan,Frau,nan,nan,warmer,Fall,Wohnung.,nan,,,,,,,,,,,,,,,,,,,,,,,10,0,10,0,0,7,7,7,,,,,,,space,0.738769054413,,,,,2017_Feb_03_1302,59.6317148349,spr_backupper,001,Mi17,
,Milch.,es,dumme,nan,nan,nan,nan,genug.,nan,nan,nan,schon,besprochen.,gerne.,nan,wurden.,vermiest.,nan,nan,zweiten,kaufen.,zweiten,Schule.,nan,Medikament,Rilke,im,wiederhergestellt.,nan,Menge,nan,berührt.,nan,dummer,nan,Honig,sinken.,nan,dunkle,nan,im,berührt.,gerne.,nan,wurden.,deutlich.,wiederbelebt.,nan,nan,Schule.,nan,nan,deutlich.,wieder,an,nan,nan,an,umzusetzen.,nan,nan,rekonstruiert.,Haus,nan,nan,nan,nan,nan,nan,Rilke.,nan,schon,gepasst.,nan,nan,nan,nan,nan,Menge,nan,Honigs,nan,gefertigt.,nan,nan,nan,nan,Haus,dunkler,nan,nan,gepasst,nan,nan,Milch.,genug.,nan,nan,,,,,,,,,,,,,,,,,,,,,,,10,0,10,0,0,8,8,8,,,,,,,space,0.423965930939,,,,,2017_Feb_03_1302,59.6317148349,spr_backupper,001,Mi17,
,,,,,,,,,,,,,,,,,,,,,,,,,,,,,,,,,,,,,,,,,,,,,,,,,,,,,,,,,,,,,,,,,,,,,,,,,,,,,,,,,,,,,,,,,,,,,,,,,,,,,,,,,,,,,,,,,,,,,,,,,10,0,10,0,,,,,,,,,,,,,None,j,2.92460608482,,2017_Feb_03_1302,59.6317148349,spr_backupper,001,Mi17,
,In,Es,Sie,Sie,Die,Am,Es,100,Die,Die,Wir,Bei,Sie,Wir,Wir,Es,Dass,Die,Die,Bei,Jugendliche,Bei,Die,Viele,In,In,In,Danach,Walter,Man,Die,Nicht,Außer,Sie,In,Er,Ihr,Unter,Mit,Jungtiere,In,Nicht,Wir,Die,Es,Im,Die,Sie,Die,Die,Die,Fernab,Im,Ich,Ich,Außer,Die,Ich,Jetzt,Dort,Wir,Das,Wir,Alle,Die,Die,Beträchtliche,Er,Beträchtliche,In,Viele,Bei,Die,Sie,Am,Manche,Als,Die,Man,Außer,Er,Der,Er,Dort,Wir,Die,Es,Wir,Mit,Die,Er,Die,Außer,Die,In,100,Sie,Wir,,,,,,,,,,,,,,,,,,,,,,,11,0,11,0,0,0,0,0,,,,,,None,space,0.714198827744,,,,,2017_Feb_03_1302,59.6317148349,spr_backupper,001,Mi17,
,den,hat,hatte,verbrauchen,Eislaufbahnen,äußersten,wurden,g,"Uhr,",Teilnehmerinnen,konnten,unserer,haben,übergaben,hatten,waren,es,Uhr,Autos,der,können,der,Kinder,Tonnen,einer,meinem,der,wurde,Scheel,machte,Gäste,ein,dem,hatte,diesem,stellt,Blutdruck,keinen,dieser,sollten,der,ein,übergaben,Uhr,waren,Fernrohr,müden,verbrauchen,Uhr,Kinder,Linie,des,Fernrohr,wurde,nehme,das,Lösung,nehme,ist,türmen,mussten,Tuch,haben,Betten,Gäste,Schule,Stücke,wurde,Stücke,meinem,Tonnen,unserer,Schuhe,verlassen,äußeren,Kreditnehmer,die,Stücke,machte,dem,stellt,Flug,hat,türmen,mussten,Formen,wurden,haben,dieser,Schule,wurde,Schuhe,den,Autos,den,g,verlassen,hatten,,,,,,,,,,,,,,,,,,,,,,,11,0,11,0,0,1,1,1,,,,,,,space,0.458369016647,,,,,2017_Feb_03_1302,59.6317148349,spr_backupper,001,Mi17,
,Kakao,uns,keine,60,wurden,Rand,Eimer,brauner,die,wussten,dann,Ankunft,die,dem,in,nur,"regnete,",schlug,beider,Feier,Kleidung,Feier,fuhren,gebrauchte,Studie,Studium,Tat,die,war,mal,suchen,Tropfen,Bürgermeister,keine,Zirkus,die,kann,Umständen,Methode,immer,Tat,Tropfen,das,schlug,nur,sahen,Teilnehmer,60,war,fuhren,101,Rummels,sahen,damals,eine,Essen,wird,eine,genau,sich,uns,wurde,jede,wurden,suchen,verbraucht,saftiges,trotz,saftigen,Studium,gebrauchter,Ankunft,in,wegen,Rand,sind,Sonne,wurden,mal,Essen,die,zum,ein,sich,uns,wurden,Eimer,jede,Methode,verbraucht,trotz,in,Bürgermeister,beider,Kakao,braunen,wegen,in,,,,,,,,,,,,,,,,,,,,,,,11,0,11,0,0,2,2,2,,,,,,,space,0.385266065598,,,,,2017_Feb_03_1302,59.6317148349,spr_backupper,001,Mi17,
,gehören,die,Lust,Liter,mit,der,roter,Zucker,er,überwiegend,mit,stand,Erlebnisse,Mann,Dänemark,kleinere,hat,"sporadisch,",beteiligter,gedachte,bei,gedachte,mit,Kleidung,wurde,habe,wissen,Leinwand,der,wieder,die,königliches,beschuldigten,Lust,werden,Masse,schon,können,kann,auf,wissen,königlichen,Auto,"sporadisch,",kleinere,wir,wurden,Liter,aus,mit,hält,wurde,wir,schnell,große,kann,mit,große,die,Berge,durch,dann,Menge,mit,die,260.000,Fleisch,dem,Fleischs,las,Kleidung,stand,Größe,dem,der,mit,"unterging,",aus,wieder,kann,Masse,Mond,Hemd,Berge,durch,unter,rote,Menge,kann,260.000,des,Größe,beschuldigten,beteiligten,gehören,Zuckers,des,Dänemark,,,,,,,,,,,,,,,,,,,,,,,11,0,11,0,0,3,3,3,,,,,,,space,0.540261983871,,,,,2017_Feb_03_1302,59.6317148349,spr_backupper,001,Mi17,
,immer,Stimmung,auf,sprudelnden,dauerhaftem,Stadt,Farbe,sind,"trug,","nicht,","minimalem,",ein,bei,das,gelegentlich,"Delikte,",uns,obschon,Fahrer,man,ausreichendem,man,solchen,landen,jetzt,ich,wir,aus,vierte,viel,Wohnung,Blut,die,auf,die,mit,bei,Neuwahlen,man,warmem,wir,Bluts,dem,obwohl,"Delikte,",den,mit,sprudelndes,"Japan,",solch,nicht,schon,den,dank,Packung,ich,"reichlichem,",Packung,richtige,schmutziger,Büschel,mit,alten,"üblichem,",Wohnung,Kilowattstunden,wurden,bekannten,wurden,ich,landen,ein,36,schönen,Stadt,"sämtlichem,",war,"wertvollem,",viel,ich,mit,dauerte,aus,schmutzige,Büschel,"regelmäßigem,",Farbe,alten,man,Kilowattstunden,bekannten,36,die,Fahrer,immer,sind,schönen,einen,,,,,,,,,,,,,,,,,,,,,,,11,0,11,0,0,4,4,4,,,,,,,space,0.487319946289,,,,,2017_Feb_03_1302,59.6317148349,spr_backupper,001,Mi17,
,350,ziemlich,noch,Trinkwassers.,feinem,liegen,geschleudert.,auf,war,was,sauberen,Glas,"frischem,",Auto,einen,deren,die,sie,wurden,den,monatlichem,der,unzureichenden,im,"nachgewiesen,",mehr,um,seltenem,Bundespräsident.,Lärm,des,hat,Störenfriede,noch,Tiere,einem,minimalem,vor,eine,weichem,von,hat,Mann,sie,derer,roten,zusätzlichem,Trinkwasser.,die,unzureichenden,am,immer,roten,täglichem,salzige,leider,purem,salziger,"Zeit,",Wäsche.,frisches,"reichem,",Kram,harten,des,elektrische,serviert.,Skandal,serviert.,mehr,im,Glas,hätten,Wetter,liegen,künftigem,die,klassischen,Lärm,leider,einem,ungefähr,feinem,Wäsche.,frischen,kaltem,geschleudert.,Krams,eine,elektrischer,Skandals,würden,Störenfriede,wurden,350,auf,Wetters,gelegentlichen,,,,,,,,,,,,,,,,,,,,,,,11,0,11,0,0,5,5,5,,,,,,,space,0.393533945084,,,,,2017_Feb_03_1302,59.6317148349,spr_backupper,001,Mi17,
,ml,"vermiest,",eine,nan,Kunsteis,die,nan,jeden,aus,Tupperware,Kraftstoff,köstlichen,kaltem,mehr,Besucher.,sie,Stimmung,defekt,verschrottet.,Soldaten,Taschengeld,Soldaten,Helmen,Müll.,dass,als,die,dichten,nan,um,Herrn,den,jeden.,eine,artgerecht,Esslöffel,täglichen,Dezember,große,Untergrund,den,den,mehr,defekt,sie,Planeten,schwarzem,nan,er,Helmen,Hauptbahnhof.,ruhig,Planet,grünen,Wurst,nichts,Alkohol,Wurst,um,nan,Gras,goldenen,aus,Schaumstoff,Herrn,Energie.,nan,wiedergewählt.,nan,als,Müll.,köstlicher,seiner,die,die,Einkommen,Flut,Schmuck,um,nichts,Esslöffel,drei,dichten,nan,Grases,Abduschen,nan,aus,große,Energie.,wiedergewählt.,seiner,jeden.,verschrottet.,ml,jeden,die,Besucher.,,,,,,,,,,,,,,,,,,,,,,,11,0,11,0,0,6,6,6,,,,,,,space,0.390411138535,,,,,2017_Feb_03_1302,59.6317148349,spr_backupper,001,Mi17,
,warme,dass,Sammlung,nan,eingesprüht.,Slums.,nan,Fall,Japan.,ist.,fahren.,Weins,Saft,als,nan,überführt,ziemlich,war.,nan,des,selber,des,zur,nan,das,einmal,Probleme,Gewebe,nan,jede,Gantenbein.,Boden,nan,Sammlung,gehalten.,warmem,Einsatz,stattfinden.,Menge,liegen.,Problemen,Boden,als,war.,überführt,ganz,Kaffee,nan,trug.,zur,nan,diskutiert.,ganz,Tee,mit,mitbringen.,verdünnt.,mit,Nadelhölzer,nan,zwängen.,Besatz,dem,gefertigt.,Gantenbeins.,nan,nan,nan,nan,einmal,nan,Wein,Frau,Wohnung.,Slums.,haftbar.,zurückgekehrt.,umgearbeitet.,jede,mitbringen.,warmen,Tage.,Stoff,nan,zwängen.,gehärtet.,nan,dem,Menge,nan,nan,Frau,nan,nan,warmer,Fall,Wohnung.,nan,,,,,,,,,,,,,,,,,,,,,,,11,0,11,0,0,7,7,7,,,,,,,space,0.527753829956,,,,,2017_Feb_03_1302,59.6317148349,spr_backupper,001,Mi17,
,Milch.,es,dumme,nan,nan,nan,nan,genug.,nan,nan,nan,schon,besprochen.,gerne.,nan,wurden.,vermiest.,nan,nan,zweiten,kaufen.,zweiten,Schule.,nan,Medikament,Rilke,im,wiederhergestellt.,nan,Menge,nan,berührt.,nan,dummer,nan,Honig,sinken.,nan,dunkle,nan,im,berührt.,gerne.,nan,wurden.,deutlich.,wiederbelebt.,nan,nan,Schule.,nan,nan,deutlich.,wieder,an,nan,nan,an,umzusetzen.,nan,nan,rekonstruiert.,Haus,nan,nan,nan,nan,nan,nan,Rilke.,nan,schon,gepasst.,nan,nan,nan,nan,nan,Menge,nan,Honigs,nan,gefertigt.,nan,nan,nan,nan,Haus,dunkler,nan,nan,gepasst,nan,nan,Milch.,genug.,nan,nan,,,,,,,,,,,,,,,,,,,,,,,11,0,11,0,0,8,8,8,,,,,,,space,0.470206022263,,,,,2017_Feb_03_1302,59.6317148349,spr_backupper,001,Mi17,
,nan,regnete.,Sprüche.,nan,nan,nan,nan,nan,nan,nan,nan,auf,nan,nan,nan,nan,nan,nan,nan,Weltkriegs.,nan,Weltkriegs.,nan,nan,nicht,gelesen.,Landkreis.,nan,nan,heiße,nan,nan,nan,Sprüche.,nan,her.,nan,nan,Materie,nan,Landkreis.,nan,nan,nan,nan,nan,nan,nan,nan,nan,nan,nan,nan,fit.,den,nan,nan,den,nan,nan,nan,nan,geschafft.,nan,nan,nan,nan,nan,nan,nan,nan,auf,nan,nan,nan,nan,nan,nan,heißer,nan,her.,nan,nan,nan,nan,nan,nan,geschafft.,Materie,nan,nan,haben.,nan,nan,nan,nan,nan,nan,,,,,,,,,,,,,,,,,,,,,,,11,0,11,0,0,9,9,9,,,,,,,space,0.369766950607,,,,,2017_Feb_03_1302,59.6317148349,spr_backupper,001,Mi17,
,,,,,,,,,,,,,,,,,,,,,,,,,,,,,,,,,,,,,,,,,,,,,,,,,,,,,,,,,,,,,,,,,,,,,,,,,,,,,,,,,,,,,,,,,,,,,,,,,,,,,,,,,,,,,,,,,,,,,,,,,11,0,11,0,,,,,,,,,,,,,None,n,10.1469819546,,2017_Feb_03_1302,59.6317148349,spr_backupper,001,Mi17,
,In,Es,Sie,Sie,Die,Am,Es,100,Die,Die,Wir,Bei,Sie,Wir,Wir,Es,Dass,Die,Die,Bei,Jugendliche,Bei,Die,Viele,In,In,In,Danach,Walter,Man,Die,Nicht,Außer,Sie,In,Er,Ihr,Unter,Mit,Jungtiere,In,Nicht,Wir,Die,Es,Im,Die,Sie,Die,Die,Die,Fernab,Im,Ich,Ich,Außer,Die,Ich,Jetzt,Dort,Wir,Das,Wir,Alle,Die,Die,Beträchtliche,Er,Beträchtliche,In,Viele,Bei,Die,Sie,Am,Manche,Als,Die,Man,Außer,Er,Der,Er,Dort,Wir,Die,Es,Wir,Mit,Die,Er,Die,Außer,Die,In,100,Sie,Wir,,,,,,,,,,,,,,,,,,,,,,,12,0,12,0,0,0,0,0,,,,,,None,space,0.761684894562,,,,,2017_Feb_03_1302,59.6317148349,spr_backupper,001,Mi17,
,den,hat,hatte,verbrauchen,Eislaufbahnen,äußersten,wurden,g,"Uhr,",Teilnehmerinnen,konnten,unserer,haben,übergaben,hatten,waren,es,Uhr,Autos,der,können,der,Kinder,Tonnen,einer,meinem,der,wurde,Scheel,machte,Gäste,ein,dem,hatte,diesem,stellt,Blutdruck,keinen,dieser,sollten,der,ein,übergaben,Uhr,waren,Fernrohr,müden,verbrauchen,Uhr,Kinder,Linie,des,Fernrohr,wurde,nehme,das,Lösung,nehme,ist,türmen,mussten,Tuch,haben,Betten,Gäste,Schule,Stücke,wurde,Stücke,meinem,Tonnen,unserer,Schuhe,verlassen,äußeren,Kreditnehmer,die,Stücke,machte,dem,stellt,Flug,hat,türmen,mussten,Formen,wurden,haben,dieser,Schule,wurde,Schuhe,den,Autos,den,g,verlassen,hatten,,,,,,,,,,,,,,,,,,,,,,,12,0,12,0,0,1,1,1,,,,,,,space,0.406949996948,,,,,2017_Feb_03_1302,59.6317148349,spr_backupper,001,Mi17,
,Kakao,uns,keine,60,wurden,Rand,Eimer,brauner,die,wussten,dann,Ankunft,die,dem,in,nur,"regnete,",schlug,beider,Feier,Kleidung,Feier,fuhren,gebrauchte,Studie,Studium,Tat,die,war,mal,suchen,Tropfen,Bürgermeister,keine,Zirkus,die,kann,Umständen,Methode,immer,Tat,Tropfen,das,schlug,nur,sahen,Teilnehmer,60,war,fuhren,101,Rummels,sahen,damals,eine,Essen,wird,eine,genau,sich,uns,wurde,jede,wurden,suchen,verbraucht,saftiges,trotz,saftigen,Studium,gebrauchter,Ankunft,in,wegen,Rand,sind,Sonne,wurden,mal,Essen,die,zum,ein,sich,uns,wurden,Eimer,jede,Methode,verbraucht,trotz,in,Bürgermeister,beider,Kakao,braunen,wegen,in,,,,,,,,,,,,,,,,,,,,,,,12,0,12,0,0,2,2,2,,,,,,,space,0.439247131348,,,,,2017_Feb_03_1302,59.6317148349,spr_backupper,001,Mi17,
,gehören,die,Lust,Liter,mit,der,roter,Zucker,er,überwiegend,mit,stand,Erlebnisse,Mann,Dänemark,kleinere,hat,"sporadisch,",beteiligter,gedachte,bei,gedachte,mit,Kleidung,wurde,habe,wissen,Leinwand,der,wieder,die,königliches,beschuldigten,Lust,werden,Masse,schon,können,kann,auf,wissen,königlichen,Auto,"sporadisch,",kleinere,wir,wurden,Liter,aus,mit,hält,wurde,wir,schnell,große,kann,mit,große,die,Berge,durch,dann,Menge,mit,die,260.000,Fleisch,dem,Fleischs,las,Kleidung,stand,Größe,dem,der,mit,"unterging,",aus,wieder,kann,Masse,Mond,Hemd,Berge,durch,unter,rote,Menge,kann,260.000,des,Größe,beschuldigten,beteiligten,gehören,Zuckers,des,Dänemark,,,,,,,,,,,,,,,,,,,,,,,12,0,12,0,0,3,3,3,,,,,,,space,0.403245925903,,,,,2017_Feb_03_1302,59.6317148349,spr_backupper,001,Mi17,
,immer,Stimmung,auf,sprudelnden,dauerhaftem,Stadt,Farbe,sind,"trug,","nicht,","minimalem,",ein,bei,das,gelegentlich,"Delikte,",uns,obschon,Fahrer,man,ausreichendem,man,solchen,landen,jetzt,ich,wir,aus,vierte,viel,Wohnung,Blut,die,auf,die,mit,bei,Neuwahlen,man,warmem,wir,Bluts,dem,obwohl,"Delikte,",den,mit,sprudelndes,"Japan,",solch,nicht,schon,den,dank,Packung,ich,"reichlichem,",Packung,richtige,schmutziger,Büschel,mit,alten,"üblichem,",Wohnung,Kilowattstunden,wurden,bekannten,wurden,ich,landen,ein,36,schönen,Stadt,"sämtlichem,",war,"wertvollem,",viel,ich,mit,dauerte,aus,schmutzige,Büschel,"regelmäßigem,",Farbe,alten,man,Kilowattstunden,bekannten,36,die,Fahrer,immer,sind,schönen,einen,,,,,,,,,,,,,,,,,,,,,,,12,0,12,0,0,4,4,4,,,,,,,space,0.859356164932,,,,,2017_Feb_03_1302,59.6317148349,spr_backupper,001,Mi17,
,350,ziemlich,noch,Trinkwassers.,feinem,liegen,geschleudert.,auf,war,was,sauberen,Glas,"frischem,",Auto,einen,deren,die,sie,wurden,den,monatlichem,der,unzureichenden,im,"nachgewiesen,",mehr,um,seltenem,Bundespräsident.,Lärm,des,hat,Störenfriede,noch,Tiere,einem,minimalem,vor,eine,weichem,von,hat,Mann,sie,derer,roten,zusätzlichem,Trinkwasser.,die,unzureichenden,am,immer,roten,täglichem,salzige,leider,purem,salziger,"Zeit,",Wäsche.,frisches,"reichem,",Kram,harten,des,elektrische,serviert.,Skandal,serviert.,mehr,im,Glas,hätten,Wetter,liegen,künftigem,die,klassischen,Lärm,leider,einem,ungefähr,feinem,Wäsche.,frischen,kaltem,geschleudert.,Krams,eine,elektrischer,Skandals,würden,Störenfriede,wurden,350,auf,Wetters,gelegentlichen,,,,,,,,,,,,,,,,,,,,,,,12,0,12,0,0,5,5,5,,,,,,,space,0.638519048691,,,,,2017_Feb_03_1302,59.6317148349,spr_backupper,001,Mi17,
,ml,"vermiest,",eine,nan,Kunsteis,die,nan,jeden,aus,Tupperware,Kraftstoff,köstlichen,kaltem,mehr,Besucher.,sie,Stimmung,defekt,verschrottet.,Soldaten,Taschengeld,Soldaten,Helmen,Müll.,dass,als,die,dichten,nan,um,Herrn,den,jeden.,eine,artgerecht,Esslöffel,täglichen,Dezember,große,Untergrund,den,den,mehr,defekt,sie,Planeten,schwarzem,nan,er,Helmen,Hauptbahnhof.,ruhig,Planet,grünen,Wurst,nichts,Alkohol,Wurst,um,nan,Gras,goldenen,aus,Schaumstoff,Herrn,Energie.,nan,wiedergewählt.,nan,als,Müll.,köstlicher,seiner,die,die,Einkommen,Flut,Schmuck,um,nichts,Esslöffel,drei,dichten,nan,Grases,Abduschen,nan,aus,große,Energie.,wiedergewählt.,seiner,jeden.,verschrottet.,ml,jeden,die,Besucher.,,,,,,,,,,,,,,,,,,,,,,,12,0,12,0,0,6,6,6,,,,,,,space,0.595237970352,,,,,2017_Feb_03_1302,59.6317148349,spr_backupper,001,Mi17,
,warme,dass,Sammlung,nan,eingesprüht.,Slums.,nan,Fall,Japan.,ist.,fahren.,Weins,Saft,als,nan,überführt,ziemlich,war.,nan,des,selber,des,zur,nan,das,einmal,Probleme,Gewebe,nan,jede,Gantenbein.,Boden,nan,Sammlung,gehalten.,warmem,Einsatz,stattfinden.,Menge,liegen.,Problemen,Boden,als,war.,überführt,ganz,Kaffee,nan,trug.,zur,nan,diskutiert.,ganz,Tee,mit,mitbringen.,verdünnt.,mit,Nadelhölzer,nan,zwängen.,Besatz,dem,gefertigt.,Gantenbeins.,nan,nan,nan,nan,einmal,nan,Wein,Frau,Wohnung.,Slums.,haftbar.,zurückgekehrt.,umgearbeitet.,jede,mitbringen.,warmen,Tage.,Stoff,nan,zwängen.,gehärtet.,nan,dem,Menge,nan,nan,Frau,nan,nan,warmer,Fall,Wohnung.,nan,,,,,,,,,,,,,,,,,,,,,,,12,0,12,0,0,7,7,7,,,,,,,space,0.470080137253,,,,,2017_Feb_03_1302,59.6317148349,spr_backupper,001,Mi17,
,Milch.,es,dumme,nan,nan,nan,nan,genug.,nan,nan,nan,schon,besprochen.,gerne.,nan,wurden.,vermiest.,nan,nan,zweiten,kaufen.,zweiten,Schule.,nan,Medikament,Rilke,im,wiederhergestellt.,nan,Menge,nan,berührt.,nan,dummer,nan,Honig,sinken.,nan,dunkle,nan,im,berührt.,gerne.,nan,wurden.,deutlich.,wiederbelebt.,nan,nan,Schule.,nan,nan,deutlich.,wieder,an,nan,nan,an,umzusetzen.,nan,nan,rekonstruiert.,Haus,nan,nan,nan,nan,nan,nan,Rilke.,nan,schon,gepasst.,nan,nan,nan,nan,nan,Menge,nan,Honigs,nan,gefertigt.,nan,nan,nan,nan,Haus,dunkler,nan,nan,gepasst,nan,nan,Milch.,genug.,nan,nan,,,,,,,,,,,,,,,,,,,,,,,12,0,12,0,0,8,8,8,,,,,,,space,0.357350111008,,,,,2017_Feb_03_1302,59.6317148349,spr_backupper,001,Mi17,
,,,,,,,,,,,,,,,,,,,,,,,,,,,,,,,,,,,,,,,,,,,,,,,,,,,,,,,,,,,,,,,,,,,,,,,,,,,,,,,,,,,,,,,,,,,,,,,,,,,,,,,,,,,,,,,,,,,,,,,,,12,0,12,0,,,,,,,,,,,,,None,j,3.80588102341,,2017_Feb_03_1302,59.6317148349,spr_backupper,001,Mi17,
,In,Es,Sie,Sie,Die,Am,Es,100,Die,Die,Wir,Bei,Sie,Wir,Wir,Es,Dass,Die,Die,Bei,Jugendliche,Bei,Die,Viele,In,In,In,Danach,Walter,Man,Die,Nicht,Außer,Sie,In,Er,Ihr,Unter,Mit,Jungtiere,In,Nicht,Wir,Die,Es,Im,Die,Sie,Die,Die,Die,Fernab,Im,Ich,Ich,Außer,Die,Ich,Jetzt,Dort,Wir,Das,Wir,Alle,Die,Die,Beträchtliche,Er,Beträchtliche,In,Viele,Bei,Die,Sie,Am,Manche,Als,Die,Man,Außer,Er,Der,Er,Dort,Wir,Die,Es,Wir,Mit,Die,Er,Die,Außer,Die,In,100,Sie,Wir,,,,,,,,,,,,,,,,,,,,,,,13,0,13,0,0,0,0,0,,,,,,None,space,0.760059833527,,,,,2017_Feb_03_1302,59.6317148349,spr_backupper,001,Mi17,
,den,hat,hatte,verbrauchen,Eislaufbahnen,äußersten,wurden,g,"Uhr,",Teilnehmerinnen,konnten,unserer,haben,übergaben,hatten,waren,es,Uhr,Autos,der,können,der,Kinder,Tonnen,einer,meinem,der,wurde,Scheel,machte,Gäste,ein,dem,hatte,diesem,stellt,Blutdruck,keinen,dieser,sollten,der,ein,übergaben,Uhr,waren,Fernrohr,müden,verbrauchen,Uhr,Kinder,Linie,des,Fernrohr,wurde,nehme,das,Lösung,nehme,ist,türmen,mussten,Tuch,haben,Betten,Gäste,Schule,Stücke,wurde,Stücke,meinem,Tonnen,unserer,Schuhe,verlassen,äußeren,Kreditnehmer,die,Stücke,machte,dem,stellt,Flug,hat,türmen,mussten,Formen,wurden,haben,dieser,Schule,wurde,Schuhe,den,Autos,den,g,verlassen,hatten,,,,,,,,,,,,,,,,,,,,,,,13,0,13,0,0,1,1,1,,,,,,,space,0.642138004303,,,,,2017_Feb_03_1302,59.6317148349,spr_backupper,001,Mi17,
,Kakao,uns,keine,60,wurden,Rand,Eimer,brauner,die,wussten,dann,Ankunft,die,dem,in,nur,"regnete,",schlug,beider,Feier,Kleidung,Feier,fuhren,gebrauchte,Studie,Studium,Tat,die,war,mal,suchen,Tropfen,Bürgermeister,keine,Zirkus,die,kann,Umständen,Methode,immer,Tat,Tropfen,das,schlug,nur,sahen,Teilnehmer,60,war,fuhren,101,Rummels,sahen,damals,eine,Essen,wird,eine,genau,sich,uns,wurde,jede,wurden,suchen,verbraucht,saftiges,trotz,saftigen,Studium,gebrauchter,Ankunft,in,wegen,Rand,sind,Sonne,wurden,mal,Essen,die,zum,ein,sich,uns,wurden,Eimer,jede,Methode,verbraucht,trotz,in,Bürgermeister,beider,Kakao,braunen,wegen,in,,,,,,,,,,,,,,,,,,,,,,,13,0,13,0,0,2,2,2,,,,,,,space,0.520620107651,,,,,2017_Feb_03_1302,59.6317148349,spr_backupper,001,Mi17,
,gehören,die,Lust,Liter,mit,der,roter,Zucker,er,überwiegend,mit,stand,Erlebnisse,Mann,Dänemark,kleinere,hat,"sporadisch,",beteiligter,gedachte,bei,gedachte,mit,Kleidung,wurde,habe,wissen,Leinwand,der,wieder,die,königliches,beschuldigten,Lust,werden,Masse,schon,können,kann,auf,wissen,königlichen,Auto,"sporadisch,",kleinere,wir,wurden,Liter,aus,mit,hält,wurde,wir,schnell,große,kann,mit,große,die,Berge,durch,dann,Menge,mit,die,260.000,Fleisch,dem,Fleischs,las,Kleidung,stand,Größe,dem,der,mit,"unterging,",aus,wieder,kann,Masse,Mond,Hemd,Berge,durch,unter,rote,Menge,kann,260.000,des,Größe,beschuldigten,beteiligten,gehören,Zuckers,des,Dänemark,,,,,,,,,,,,,,,,,,,,,,,13,0,13,0,0,3,3,3,,,,,,,space,0.360752820969,,,,,2017_Feb_03_1302,59.6317148349,spr_backupper,001,Mi17,
,immer,Stimmung,auf,sprudelnden,dauerhaftem,Stadt,Farbe,sind,"trug,","nicht,","minimalem,",ein,bei,das,gelegentlich,"Delikte,",uns,obschon,Fahrer,man,ausreichendem,man,solchen,landen,jetzt,ich,wir,aus,vierte,viel,Wohnung,Blut,die,auf,die,mit,bei,Neuwahlen,man,warmem,wir,Bluts,dem,obwohl,"Delikte,",den,mit,sprudelndes,"Japan,",solch,nicht,schon,den,dank,Packung,ich,"reichlichem,",Packung,richtige,schmutziger,Büschel,mit,alten,"üblichem,",Wohnung,Kilowattstunden,wurden,bekannten,wurden,ich,landen,ein,36,schönen,Stadt,"sämtlichem,",war,"wertvollem,",viel,ich,mit,dauerte,aus,schmutzige,Büschel,"regelmäßigem,",Farbe,alten,man,Kilowattstunden,bekannten,36,die,Fahrer,immer,sind,schönen,einen,,,,,,,,,,,,,,,,,,,,,,,13,0,13,0,0,4,4,4,,,,,,,space,0.503833055496,,,,,2017_Feb_03_1302,59.6317148349,spr_backupper,001,Mi17,
,350,ziemlich,noch,Trinkwassers.,feinem,liegen,geschleudert.,auf,war,was,sauberen,Glas,"frischem,",Auto,einen,deren,die,sie,wurden,den,monatlichem,der,unzureichenden,im,"nachgewiesen,",mehr,um,seltenem,Bundespräsident.,Lärm,des,hat,Störenfriede,noch,Tiere,einem,minimalem,vor,eine,weichem,von,hat,Mann,sie,derer,roten,zusätzlichem,Trinkwasser.,die,unzureichenden,am,immer,roten,täglichem,salzige,leider,purem,salziger,"Zeit,",Wäsche.,frisches,"reichem,",Kram,harten,des,elektrische,serviert.,Skandal,serviert.,mehr,im,Glas,hätten,Wetter,liegen,künftigem,die,klassischen,Lärm,leider,einem,ungefähr,feinem,Wäsche.,frischen,kaltem,geschleudert.,Krams,eine,elektrischer,Skandals,würden,Störenfriede,wurden,350,auf,Wetters,gelegentlichen,,,,,,,,,,,,,,,,,,,,,,,13,0,13,0,0,5,5,5,,,,,,,space,0.443222045898,,,,,2017_Feb_03_1302,59.6317148349,spr_backupper,001,Mi17,
,ml,"vermiest,",eine,nan,Kunsteis,die,nan,jeden,aus,Tupperware,Kraftstoff,köstlichen,kaltem,mehr,Besucher.,sie,Stimmung,defekt,verschrottet.,Soldaten,Taschengeld,Soldaten,Helmen,Müll.,dass,als,die,dichten,nan,um,Herrn,den,jeden.,eine,artgerecht,Esslöffel,täglichen,Dezember,große,Untergrund,den,den,mehr,defekt,sie,Planeten,schwarzem,nan,er,Helmen,Hauptbahnhof.,ruhig,Planet,grünen,Wurst,nichts,Alkohol,Wurst,um,nan,Gras,goldenen,aus,Schaumstoff,Herrn,Energie.,nan,wiedergewählt.,nan,als,Müll.,köstlicher,seiner,die,die,Einkommen,Flut,Schmuck,um,nichts,Esslöffel,drei,dichten,nan,Grases,Abduschen,nan,aus,große,Energie.,wiedergewählt.,seiner,jeden.,verschrottet.,ml,jeden,die,Besucher.,,,,,,,,,,,,,,,,,,,,,,,13,0,13,0,0,6,6,6,,,,,,,space,0.417309999466,,,,,2017_Feb_03_1302,59.6317148349,spr_backupper,001,Mi17,
,warme,dass,Sammlung,nan,eingesprüht.,Slums.,nan,Fall,Japan.,ist.,fahren.,Weins,Saft,als,nan,überführt,ziemlich,war.,nan,des,selber,des,zur,nan,das,einmal,Probleme,Gewebe,nan,jede,Gantenbein.,Boden,nan,Sammlung,gehalten.,warmem,Einsatz,stattfinden.,Menge,liegen.,Problemen,Boden,als,war.,überführt,ganz,Kaffee,nan,trug.,zur,nan,diskutiert.,ganz,Tee,mit,mitbringen.,verdünnt.,mit,Nadelhölzer,nan,zwängen.,Besatz,dem,gefertigt.,Gantenbeins.,nan,nan,nan,nan,einmal,nan,Wein,Frau,Wohnung.,Slums.,haftbar.,zurückgekehrt.,umgearbeitet.,jede,mitbringen.,warmen,Tage.,Stoff,nan,zwängen.,gehärtet.,nan,dem,Menge,nan,nan,Frau,nan,nan,warmer,Fall,Wohnung.,nan,,,,,,,,,,,,,,,,,,,,,,,13,0,13,0,0,7,7,7,,,,,,,space,0.518362045288,,,,,2017_Feb_03_1302,59.6317148349,spr_backupper,001,Mi17,
