text,sent48,sent9,sent8,sent15,sent3,sent2,sent1,sent14,sent7,sent6,sent5,sent4,sent57,sent56,sent55,sent54,sent53,sent52,sent51,sent50,sent13,sent12,sent11,sent10,sent17,sent16,sent59,sent58,sent93,sent92,sent91,sent90,sent97,sent96,sent95,sent94,sent98,sent22,sent23,sent20,sent21,sent26,sent27,sent24,sent25,sent28,sent29,sent68,sent69,sent66,sent67,sent64,sent65,sent62,sent63,sent60,sent61,sent31,sent30,sent33,sent32,sent35,sent34,sent37,sent36,sent39,sent38,sent79,sent78,sent75,sent74,sent77,sent76,sent71,sent70,sent73,sent72,sent19,sent49,sent18,sent44,sent45,sent84,sent85,sent86,sent87,sent80,sent81,sent82,sent83,sent40,sent41,sent42,sent43,sent88,sent89,sent46,sent47,intros.thisRepN,intros.thisTrialN,intros.thisN,intros.thisIndex,trials.thisRepN,trials.thisTrialN,trials.thisN,trials.thisIndex,testWords.thisRepN,testWords.thisTrialN,testWords.thisN,testWords.thisIndex,test1,test3,test2,test5,test4,test7,test6,test9,test8,test10,realTrials.thisRepN,realTrials.thisTrialN,realTrials.thisN,realTrials.thisIndex,words.thisRepN,words.thisTrialN,words.thisN,words.thisIndex,key_resp_3.keys,key_resp_3.rt,key_resp_8.keys,key_resp_10.keys,key_resp_10.rt,key_resp_6.keys,wordRead.keys,wordRead.rt,key_resp_5.keys,questAnswer.keys,questAnswer.rt,key_resp_6.rt,key_resp_5.rt,date,frameRate,expName,session,participant,
"Vielen Dank, dass Sie an diesem Experiment teilnehmen. Vor dem eigentlichen Experiment sehen Sie nun zuerst eine kurze Erläuterung, und Sie absolvieren ein kurze Übungsphase.

Das Experiment dauert insgesamt nicht mehr als 45 Minuten.",,,,,,,,,,,,,,,,,,,,,,,,,,,,,,,,,,,,,,,,,,,,,,,,,,,,,,,,,,,,,,,,,,,,,,,,,,,,,,,,,,,,,,,,,,,,,,,,,,,0,0,0,0,,,,,,,,,,,,,,,,,,,,,,,,,,,,,,,,,,,,,,,,2017_Feb_03_1335,59.7246089133,spr_backupper,001,Mi18,
"In diesem Experiment lesen Sie deutsche Sätze, indem Sie sich von Wort zu Wort mit der Leertaste durch den Satz klicken.",,,,,,,,,,,,,,,,,,,,,,,,,,,,,,,,,,,,,,,,,,,,,,,,,,,,,,,,,,,,,,,,,,,,,,,,,,,,,,,,,,,,,,,,,,,,,,,,,,,0,1,1,1,,,,,,,,,,,,,,,,,,,,,,,,,,,,,,,,,,,,,,,,2017_Feb_03_1335,59.7246089133,spr_backupper,001,Mi18,
"Sie sehen dabei immer nur das aktuelle Wort. Die Lesegeschwindigkeit bestimmen Sie vollständig selber. Vor jedem Satz sehen Sie in der Bildschirmmitte für zwei Sekunden ein + an der Stelle, an der dann die Wörter erscheinen.",,,,,,,,,,,,,,,,,,,,,,,,,,,,,,,,,,,,,,,,,,,,,,,,,,,,,,,,,,,,,,,,,,,,,,,,,,,,,,,,,,,,,,,,,,,,,,,,,,,0,2,2,2,,,,,,,,,,,,,,,,,,,,,,,,,,,,,,,,,,,,,,,,2017_Feb_03_1335,59.7246089133,spr_backupper,001,Mi18,
"Nach jedem Satz wird Ihnen eine Ja/Nein-Verständnisfrage zum zuvor gelesenen Satz gestellt, die Sie mit der J-Taste für "Ja" und der N-Taste für "Nein" beantworten. Antworten Sie möglichst spontan und ohne lange Nachzudenken.",,,,,,,,,,,,,,,,,,,,,,,,,,,,,,,,,,,,,,,,,,,,,,,,,,,,,,,,,,,,,,,,,,,,,,,,,,,,,,,,,,,,,,,,,,,,,,,,,,,0,3,3,3,,,,,,,,,,,,,,,,,,,,,,,,,,,,,,,,,,,,,,,,2017_Feb_03_1335,59.7246089133,spr_backupper,001,Mi18,
"Unterbrechen Sie das Experiment bitte auf keinen Fall, stellen Sie den ExperimentatorInnen nach dem Experimentbeginn keine Fragen, und lassen Sie sich nicht durch Umgebungsgeräusche ablenken.",,,,,,,,,,,,,,,,,,,,,,,,,,,,,,,,,,,,,,,,,,,,,,,,,,,,,,,,,,,,,,,,,,,,,,,,,,,,,,,,,,,,,,,,,,,,,,,,,,,0,4,4,4,,,,,,,,,,,,,,,,,,,,,,,,,,,,,,,,,,,,,,,,2017_Feb_03_1335,59.7246089133,spr_backupper,001,Mi18,
"Im nächsten Schritt beantworten Sie bitte eine Frage zu Ihren Deutschkenntnissen. Danach beginnt eine Übungseinheit, mit der Sie sich an die Art der Durchführung dieses Experiments gewöhnen können.",,,,,,,,,,,,,,,,,,,,,,,,,,,,,,,,,,,,,,,,,,,,,,,,,,,,,,,,,,,,,,,,,,,,,,,,,,,,,,,,,,,,,,,,,,,,,,,,,,,0,5,5,5,,,,,,,,,,,,,,,,,,,,,,,,,,,,,,,,,,,,,,,,2017_Feb_03_1335,59.7246089133,spr_backupper,001,Mi18,
,,,,,,,,,,,,,,,,,,,,,,,,,,,,,,,,,,,,,,,,,,,,,,,,,,,,,,,,,,,,,,,,,,,,,,,,,,,,,,,,,,,,,,,,,,,,,,,,,,,,,,,,,,,,,,,,,,,,,,,,,,,,,,,,,n,27.334097147,,,,,,,,,,,,2017_Feb_03_1335,59.7246089133,spr_backupper,001,Mi18,
,,,,,,,,,,,,,,,,,,,,,,,,,,,,,,,,,,,,,,,,,,,,,,,,,,,,,,,,,,,,,,,,,,,,,,,,,,,,,,,,,,,,,,,,,,,,,,,,,,,,,,,0,0,0,0,,,,,,,,,,,,,,,,,,,,,,,,,None,,,,,,,,,,,2017_Feb_03_1335,59.7246089133,spr_backupper,001,Mi18,
,,,,,,,,,,,,,,,,,,,,,,,,,,,,,,,,,,,,,,,,,,,,,,,,,,,,,,,,,,,,,,,,,,,,,,,,,,,,,,,,,,,,,,,,,,,,,,,,,,,,,,,1,0,1,0,,,,,,,,,,,,,,,,,,,,,,,,,None,,,,,,,,,,,2017_Feb_03_1335,59.7246089133,spr_backupper,001,Mi18,
,,,,,,,,,,,,,,,,,,,,,,,,,,,,,,,,,,,,,,,,,,,,,,,,,,,,,,,,,,,,,,,,,,,,,,,,,,,,,,,,,,,,,,,,,,,,,,,,,,,,,,,2,0,2,0,,,,,,,,,,,,,,,,,,,,,,,,,None,,,,,,,,,,,2017_Feb_03_1335,59.7246089133,spr_backupper,001,Mi18,
,,,,,,,,,,,,,,,,,,,,,,,,,,,,,,,,,,,,,,,,,,,,,,,,,,,,,,,,,,,,,,,,,,,,,,,,,,,,,,,,,,,,,,,,,,,,,,,,,,,,,,,3,0,3,0,,,,,,,,,,,,,,,,,,,,,,,,,None,,,,,,,,,,,2017_Feb_03_1335,59.7246089133,spr_backupper,001,Mi18,
,,,,,,,,,,,,,,,,,,,,,,,,,,,,,,,,,,,,,,,,,,,,,,,,,,,,,,,,,,,,,,,,,,,,,,,,,,,,,,,,,,,,,,,,,,,,,,,,,,,,,,,4,0,4,0,,,,,,,,,,,,,,,,,,,,,,,,,None,,,,,,,,,,,2017_Feb_03_1335,59.7246089133,spr_backupper,001,Mi18,
,,,,,,,,,,,,,,,,,,,,,,,,,,,,,,,,,,,,,,,,,,,,,,,,,,,,,,,,,,,,,,,,,,,,,,,,,,,,,,,,,,,,,,,,,,,,,,,,,,,,,,,5,0,5,0,,,,,,,,,,,,,,,,,,,,,,,,,None,,,,,,,,,,,2017_Feb_03_1335,59.7246089133,spr_backupper,001,Mi18,
,,,,,,,,,,,,,,,,,,,,,,,,,,,,,,,,,,,,,,,,,,,,,,,,,,,,,,,,,,,,,,,,,,,,,,,,,,,,,,,,,,,,,,,,,,,,,,,,,,,,,,,6,0,6,0,,,,,,,,,,,,,,,,,,,,,,,,,None,,,,,,,,,,,2017_Feb_03_1335,59.7246089133,spr_backupper,001,Mi18,
,,,,,,,,,,,,,,,,,,,,,,,,,,,,,,,,,,,,,,,,,,,,,,,,,,,,,,,,,,,,,,,,,,,,,,,,,,,,,,,,,,,,,,,,,,,,,,,,,,,,,,,7,0,7,0,,,,,,,,,,,,,,,,,,,,,,,,,None,,,,,,,,,,,2017_Feb_03_1335,59.7246089133,spr_backupper,001,Mi18,
,,,,,,,,,,,,,,,,,,,,,,,,,,,,,,,,,,,,,,,,,,,,,,,,,,,,,,,,,,,,,,,,,,,,,,,,,,,,,,,,,,,,,,,,,,,,,,,,,,,,,,,8,0,8,0,,,,,,,,,,,,,,,,,,,,,,,,,None,,,,,,,,,,,2017_Feb_03_1335,59.7246089133,spr_backupper,001,Mi18,
,,,,,,,,,,,,,,,,,,,,,,,,,,,,,,,,,,,,,,,,,,,,,,,,,,,,,,,,,,,,,,,,,,,,,,,,,,,,,,,,,,,,,,,,,,,,,,,,,,,,,,,9,0,9,0,,,,,,,,,,,,,,,,,,,,,,,,,None,,,,,,,,,,,2017_Feb_03_1335,59.7246089133,spr_backupper,001,Mi18,
,,,,,,,,,,,,,,,,,,,,,,,,,,,,,,,,,,,,,,,,,,,,,,,,,,,,,,,,,,,,,,,,,,,,,,,,,,,,,,,,,,,,,,,,,,,,,,,,,,,,,,,,,,,,,,,,,,,,,,,,,,,,,,,,,,,,space,4.24260306358,,,,,,,,,2017_Feb_03_1335,59.7246089133,spr_backupper,001,Mi18,
,Die,In,Ich,Wir,Als,Ihr,Wir,Walter,Die,Manche,Man,Mit,Im,Es,Sie,Man,Mit,Die,In,Er,Danach,Die,Bei,Fernab,Im,100,Dort,Die,Unter,Die,100,Wir,Bei,Sie,Sie,Die,Das,Er,Die,Die,Ich,Außer,In,Wir,Nicht,In,Er,Wir,Er,Jugendliche,Alle,In,Die,Es,Die,Viele,Am,Die,Es,Sie,In,Wir,Bei,Die,Am,Sie,Die,Der,Die,Bei,Ich,Außer,Wir,Die,Wir,Jetzt,Die,Dass,Sie,Dort,Es,Die,Außer,In,In,Wir,Jungtiere,Die,Beträchtliche,Die,Außer,Die,Viele,Beträchtliche,Nicht,Es,Sie,Er,,,,,,,,,,,,,,,,,,,,,,,0,0,0,0,0,0,0,0,,,,,,None,space,2.34307813644,,,,,,2017_Feb_03_1335,59.7246089133,spr_backupper,001,Mi18,
,Schuhe,den,wurde,haben,die,Blutdruck,mussten,Scheel,Lösung,Kreditnehmer,machte,dieser,Fernrohr,wurden,hatte,machte,dieser,Kinder,den,stellt,wurde,Linie,der,des,Fernrohr,g,türmen,müden,keinen,Teilnehmerinnen,g,haben,der,verbrauchen,verlassen,Gäste,Tuch,wurde,Uhr,Gäste,nehme,dem,meinem,übergaben,ein,der,stellt,konnten,wurde,können,Betten,meinem,Eislaufbahnen,hat,Uhr,Tonnen,äußersten,Formen,wurden,haben,diesem,hatten,unserer,Kinder,äußeren,verlassen,Schule,Flug,Autos,unserer,nehme,den,mussten,Stücke,hatten,ist,"Uhr,",es,hatte,türmen,waren,Uhr,dem,einer,der,übergaben,sollten,Schuhe,Stücke,Schule,das,Autos,Tonnen,Stücke,ein,waren,verbrauchen,hat,,,,,,,,,,,,,,,,,,,,,,,0,0,0,0,0,1,1,1,,,,,,,space,1.15781784058,,,,,,2017_Feb_03_1335,59.7246089133,spr_backupper,001,Mi18,
,in,Kakao,damals,jede,Sonne,kann,uns,war,wird,sind,mal,Methode,sahen,Eimer,keine,mal,Methode,fuhren,Kakao,die,die,101,Feier,Rummels,sahen,braunen,sich,Teilnehmer,Umständen,wussten,brauner,jede,Feier,60,wegen,suchen,wurde,trotz,war,suchen,eine,Bürgermeister,Studium,dem,Tropfen,Tat,die,dann,trotz,Kleidung,wurden,Studium,wurden,uns,schlug,gebrauchte,Rand,wurden,Eimer,die,Zirkus,in,Ankunft,fuhren,Rand,wegen,verbraucht,zum,beider,Ankunft,eine,Bürgermeister,uns,wurden,in,genau,die,"regnete,",keine,sich,nur,schlug,Essen,Studie,Tat,das,immer,in,saftiges,verbraucht,Essen,beider,gebrauchter,saftigen,Tropfen,nur,60,ein,,,,,,,,,,,,,,,,,,,,,,,0,0,0,0,0,2,2,2,,,,,,,space,1.48448014259,,,,,,2017_Feb_03_1335,59.7246089133,spr_backupper,001,Mi18,
,Größe,gehören,schnell,Menge,"unterging,",schon,durch,der,mit,mit,wieder,kann,wir,roter,Lust,wieder,kann,mit,gehören,Masse,Leinwand,hält,gedachte,wurde,wir,Zuckers,Berge,wurden,können,überwiegend,Zucker,Menge,gedachte,Liter,des,die,dann,dem,aus,die,große,beschuldigten,las,Mann,königliches,wissen,Masse,mit,des,bei,mit,habe,mit,die,"sporadisch,",Kleidung,der,unter,rote,Erlebnisse,werden,Dänemark,stand,mit,der,dem,260.000,Mond,beteiligten,stand,große,beschuldigten,durch,aus,Dänemark,die,er,hat,Lust,Berge,kleinere,"sporadisch,",kann,wurde,wissen,Auto,auf,Größe,Fleisch,260.000,kann,beteiligter,Kleidung,Fleischs,königlichen,kleinere,Liter,Hemd,,,,,,,,,,,,,,,,,,,,,,,0,0,0,0,0,3,3,3,,,,,,,space,0.910965919495,,,,,,2017_Feb_03_1335,59.7246089133,spr_backupper,001,Mi18,
,36,immer,dank,alten,war,bei,Büschel,vierte,"reichlichem,","sämtlichem,",viel,man,den,Farbe,auf,viel,man,solchen,immer,mit,aus,nicht,man,schon,den,sind,schmutziger,mit,Neuwahlen,"nicht,",sind,alten,man,sprudelnden,schönen,Wohnung,mit,bekannten,"Japan,",Wohnung,Packung,die,ich,das,Blut,wir,mit,"minimalem,",bekannten,ausreichendem,"üblichem,",ich,dauerhaftem,Stimmung,obwohl,landen,Stadt,"regelmäßigem,",Farbe,bei,die,gelegentlich,ein,solch,Stadt,schönen,Kilowattstunden,dauerte,Fahrer,ein,Packung,die,Büschel,"wertvollem,",einen,richtige,"trug,",uns,auf,schmutzige,"Delikte,",obschon,ich,jetzt,wir,dem,warmem,36,wurden,Kilowattstunden,ich,Fahrer,landen,wurden,Bluts,"Delikte,",sprudelndes,aus,,,,,,,,,,,,,,,,,,,,,,,0,0,0,0,0,4,4,4,,,,,,,space,1.12403106689,,,,,,2017_Feb_03_1335,59.7246089133,spr_backupper,001,Mi18,
,hätten,350,täglichem,Krams,die,minimalem,frischen,Bundespräsident.,purem,künftigem,Lärm,eine,roten,geschleudert.,noch,Lärm,eine,unzureichenden,350,einem,seltenem,am,den,immer,roten,auf,Wäsche.,zusätzlichem,vor,was,auf,Kram,der,Trinkwassers.,Wetters,des,"reichem,",Skandal,die,des,salzige,Störenfriede,mehr,Auto,hat,um,einem,sauberen,Skandals,monatlichem,harten,mehr,feinem,ziemlich,sie,im,liegen,kaltem,geschleudert.,"frischem,",Tiere,einen,Glas,unzureichenden,liegen,Wetter,elektrischer,ungefähr,wurden,Glas,salziger,Störenfriede,frisches,klassischen,gelegentlichen,"Zeit,",war,die,noch,Wäsche.,deren,sie,leider,"nachgewiesen,",von,Mann,weichem,würden,serviert.,elektrische,leider,wurden,im,serviert.,hat,derer,Trinkwasser.,feinem,,,,,,,,,,,,,,,,,,,,,,,0,0,0,0,0,5,5,5,,,,,,,space,1.42668914795,,,,,,2017_Feb_03_1335,59.7246089133,spr_backupper,001,Mi18,
,seiner,ml,grünen,aus,Flut,täglichen,Grases,nan,Alkohol,Einkommen,um,große,Planeten,nan,eine,um,große,Helmen,ml,Esslöffel,dichten,Hauptbahnhof.,Soldaten,ruhig,Planet,jeden,nan,schwarzem,Dezember,Tupperware,jeden,aus,Soldaten,nan,die,Herrn,goldenen,wiedergewählt.,er,Herrn,Wurst,jeden.,als,mehr,den,die,Esslöffel,Kraftstoff,wiedergewählt.,Taschengeld,Schaumstoff,als,Kunsteis,"vermiest,",defekt,Müll.,die,Abduschen,nan,kaltem,artgerecht,Besucher.,köstlicher,Helmen,die,die,Energie.,drei,verschrottet.,köstlichen,Wurst,jeden.,Gras,Schmuck,Besucher.,um,aus,Stimmung,eine,nan,sie,defekt,nichts,dass,den,mehr,Untergrund,seiner,nan,Energie.,nichts,verschrottet.,Müll.,nan,den,sie,nan,dichten,,,,,,,,,,,,,,,,,,,,,,,0,0,0,0,0,6,6,6,,,,,,,space,1.01102495193,,,,,,2017_Feb_03_1335,59.7246089133,spr_backupper,001,Mi18,
,Frau,warmer,Tee,dem,zurückgekehrt.,Einsatz,zwängen.,nan,verdünnt.,haftbar.,jede,Menge,ganz,nan,Sammlung,jede,Menge,zur,warme,warmen,Gewebe,nan,des,diskutiert.,ganz,Fall,nan,Kaffee,stattfinden.,ist.,Fall,dem,des,nan,Wohnung.,Gantenbeins.,Besatz,nan,trug.,Gantenbein.,mit,nan,einmal,als,Boden,Probleme,warmem,fahren.,nan,selber,gefertigt.,einmal,eingesprüht.,dass,war.,nan,Slums.,gehärtet.,nan,Saft,gehalten.,nan,Wein,zur,Slums.,Wohnung.,nan,Tage.,nan,Weins,mit,nan,zwängen.,umgearbeitet.,nan,Nadelhölzer,Japan.,ziemlich,Sammlung,nan,überführt,war.,mitbringen.,das,Problemen,als,liegen.,Frau,nan,nan,mitbringen.,nan,nan,nan,Boden,überführt,nan,Stoff,,,,,,,,,,,,,,,,,,,,,,,0,0,0,0,0,7,7,7,,,,,,,space,2.71733093262,,,,,,2017_Feb_03_1335,59.7246089133,spr_backupper,001,Mi18,
,,,,,,,,,,,,,,,,,,,,,,,,,,,,,,,,,,,,,,,,,,,,,,,,,,,,,,,,,,,,,,,,,,,,,,,,,,,,,,,,,,,,,,,,,,,,,,,,,,,,,,,,,,,,,,,,,,,,,,,,,0,0,0,0,,,,,,,,,,,,,None,n,3.58872509003,,,2017_Feb_03_1335,59.7246089133,spr_backupper,001,Mi18,
,Die,In,Ich,Wir,Als,Ihr,Wir,Walter,Die,Manche,Man,Mit,Im,Es,Sie,Man,Mit,Die,In,Er,Danach,Die,Bei,Fernab,Im,100,Dort,Die,Unter,Die,100,Wir,Bei,Sie,Sie,Die,Das,Er,Die,Die,Ich,Außer,In,Wir,Nicht,In,Er,Wir,Er,Jugendliche,Alle,In,Die,Es,Die,Viele,Am,Die,Es,Sie,In,Wir,Bei,Die,Am,Sie,Die,Der,Die,Bei,Ich,Außer,Wir,Die,Wir,Jetzt,Die,Dass,Sie,Dort,Es,Die,Außer,In,In,Wir,Jungtiere,Die,Beträchtliche,Die,Außer,Die,Viele,Beträchtliche,Nicht,Es,Sie,Er,,,,,,,,,,,,,,,,,,,,,,,1,0,1,0,0,0,0,0,,,,,,space,space,1.05210590363,,,,0.905733108521,,2017_Feb_03_1335,59.7246089133,spr_backupper,001,Mi18,
,Schuhe,den,wurde,haben,die,Blutdruck,mussten,Scheel,Lösung,Kreditnehmer,machte,dieser,Fernrohr,wurden,hatte,machte,dieser,Kinder,den,stellt,wurde,Linie,der,des,Fernrohr,g,türmen,müden,keinen,Teilnehmerinnen,g,haben,der,verbrauchen,verlassen,Gäste,Tuch,wurde,Uhr,Gäste,nehme,dem,meinem,übergaben,ein,der,stellt,konnten,wurde,können,Betten,meinem,Eislaufbahnen,hat,Uhr,Tonnen,äußersten,Formen,wurden,haben,diesem,hatten,unserer,Kinder,äußeren,verlassen,Schule,Flug,Autos,unserer,nehme,den,mussten,Stücke,hatten,ist,"Uhr,",es,hatte,türmen,waren,Uhr,dem,einer,der,übergaben,sollten,Schuhe,Stücke,Schule,das,Autos,Tonnen,Stücke,ein,waren,verbrauchen,hat,,,,,,,,,,,,,,,,,,,,,,,1,0,1,0,0,1,1,1,,,,,,,space,1.13630604744,,,,,,2017_Feb_03_1335,59.7246089133,spr_backupper,001,Mi18,
,in,Kakao,damals,jede,Sonne,kann,uns,war,wird,sind,mal,Methode,sahen,Eimer,keine,mal,Methode,fuhren,Kakao,die,die,101,Feier,Rummels,sahen,braunen,sich,Teilnehmer,Umständen,wussten,brauner,jede,Feier,60,wegen,suchen,wurde,trotz,war,suchen,eine,Bürgermeister,Studium,dem,Tropfen,Tat,die,dann,trotz,Kleidung,wurden,Studium,wurden,uns,schlug,gebrauchte,Rand,wurden,Eimer,die,Zirkus,in,Ankunft,fuhren,Rand,wegen,verbraucht,zum,beider,Ankunft,eine,Bürgermeister,uns,wurden,in,genau,die,"regnete,",keine,sich,nur,schlug,Essen,Studie,Tat,das,immer,in,saftiges,verbraucht,Essen,beider,gebrauchter,saftigen,Tropfen,nur,60,ein,,,,,,,,,,,,,,,,,,,,,,,1,0,1,0,0,2,2,2,,,,,,,space,1.05720496178,,,,,,2017_Feb_03_1335,59.7246089133,spr_backupper,001,Mi18,
,Größe,gehören,schnell,Menge,"unterging,",schon,durch,der,mit,mit,wieder,kann,wir,roter,Lust,wieder,kann,mit,gehören,Masse,Leinwand,hält,gedachte,wurde,wir,Zuckers,Berge,wurden,können,überwiegend,Zucker,Menge,gedachte,Liter,des,die,dann,dem,aus,die,große,beschuldigten,las,Mann,königliches,wissen,Masse,mit,des,bei,mit,habe,mit,die,"sporadisch,",Kleidung,der,unter,rote,Erlebnisse,werden,Dänemark,stand,mit,der,dem,260.000,Mond,beteiligten,stand,große,beschuldigten,durch,aus,Dänemark,die,er,hat,Lust,Berge,kleinere,"sporadisch,",kann,wurde,wissen,Auto,auf,Größe,Fleisch,260.000,kann,beteiligter,Kleidung,Fleischs,königlichen,kleinere,Liter,Hemd,,,,,,,,,,,,,,,,,,,,,,,1,0,1,0,0,3,3,3,,,,,,,space,0.780610084534,,,,,,2017_Feb_03_1335,59.7246089133,spr_backupper,001,Mi18,
,36,immer,dank,alten,war,bei,Büschel,vierte,"reichlichem,","sämtlichem,",viel,man,den,Farbe,auf,viel,man,solchen,immer,mit,aus,nicht,man,schon,den,sind,schmutziger,mit,Neuwahlen,"nicht,",sind,alten,man,sprudelnden,schönen,Wohnung,mit,bekannten,"Japan,",Wohnung,Packung,die,ich,das,Blut,wir,mit,"minimalem,",bekannten,ausreichendem,"üblichem,",ich,dauerhaftem,Stimmung,obwohl,landen,Stadt,"regelmäßigem,",Farbe,bei,die,gelegentlich,ein,solch,Stadt,schönen,Kilowattstunden,dauerte,Fahrer,ein,Packung,die,Büschel,"wertvollem,",einen,richtige,"trug,",uns,auf,schmutzige,"Delikte,",obschon,ich,jetzt,wir,dem,warmem,36,wurden,Kilowattstunden,ich,Fahrer,landen,wurden,Bluts,"Delikte,",sprudelndes,aus,,,,,,,,,,,,,,,,,,,,,,,1,0,1,0,0,4,4,4,,,,,,,space,0.772068023682,,,,,,2017_Feb_03_1335,59.7246089133,spr_backupper,001,Mi18,
,hätten,350,täglichem,Krams,die,minimalem,frischen,Bundespräsident.,purem,künftigem,Lärm,eine,roten,geschleudert.,noch,Lärm,eine,unzureichenden,350,einem,seltenem,am,den,immer,roten,auf,Wäsche.,zusätzlichem,vor,was,auf,Kram,der,Trinkwassers.,Wetters,des,"reichem,",Skandal,die,des,salzige,Störenfriede,mehr,Auto,hat,um,einem,sauberen,Skandals,monatlichem,harten,mehr,feinem,ziemlich,sie,im,liegen,kaltem,geschleudert.,"frischem,",Tiere,einen,Glas,unzureichenden,liegen,Wetter,elektrischer,ungefähr,wurden,Glas,salziger,Störenfriede,frisches,klassischen,gelegentlichen,"Zeit,",war,die,noch,Wäsche.,deren,sie,leider,"nachgewiesen,",von,Mann,weichem,würden,serviert.,elektrische,leider,wurden,im,serviert.,hat,derer,Trinkwasser.,feinem,,,,,,,,,,,,,,,,,,,,,,,1,0,1,0,0,5,5,5,,,,,,,space,1.00515604019,,,,,,2017_Feb_03_1335,59.7246089133,spr_backupper,001,Mi18,
,seiner,ml,grünen,aus,Flut,täglichen,Grases,nan,Alkohol,Einkommen,um,große,Planeten,nan,eine,um,große,Helmen,ml,Esslöffel,dichten,Hauptbahnhof.,Soldaten,ruhig,Planet,jeden,nan,schwarzem,Dezember,Tupperware,jeden,aus,Soldaten,nan,die,Herrn,goldenen,wiedergewählt.,er,Herrn,Wurst,jeden.,als,mehr,den,die,Esslöffel,Kraftstoff,wiedergewählt.,Taschengeld,Schaumstoff,als,Kunsteis,"vermiest,",defekt,Müll.,die,Abduschen,nan,kaltem,artgerecht,Besucher.,köstlicher,Helmen,die,die,Energie.,drei,verschrottet.,köstlichen,Wurst,jeden.,Gras,Schmuck,Besucher.,um,aus,Stimmung,eine,nan,sie,defekt,nichts,dass,den,mehr,Untergrund,seiner,nan,Energie.,nichts,verschrottet.,Müll.,nan,den,sie,nan,dichten,,,,,,,,,,,,,,,,,,,,,,,1,0,1,0,0,6,6,6,,,,,,,space,1.00622701645,,,,,,2017_Feb_03_1335,59.7246089133,spr_backupper,001,Mi18,
,Frau,warmer,Tee,dem,zurückgekehrt.,Einsatz,zwängen.,nan,verdünnt.,haftbar.,jede,Menge,ganz,nan,Sammlung,jede,Menge,zur,warme,warmen,Gewebe,nan,des,diskutiert.,ganz,Fall,nan,Kaffee,stattfinden.,ist.,Fall,dem,des,nan,Wohnung.,Gantenbeins.,Besatz,nan,trug.,Gantenbein.,mit,nan,einmal,als,Boden,Probleme,warmem,fahren.,nan,selber,gefertigt.,einmal,eingesprüht.,dass,war.,nan,Slums.,gehärtet.,nan,Saft,gehalten.,nan,Wein,zur,Slums.,Wohnung.,nan,Tage.,nan,Weins,mit,nan,zwängen.,umgearbeitet.,nan,Nadelhölzer,Japan.,ziemlich,Sammlung,nan,überführt,war.,mitbringen.,das,Problemen,als,liegen.,Frau,nan,nan,mitbringen.,nan,nan,nan,Boden,überführt,nan,Stoff,,,,,,,,,,,,,,,,,,,,,,,1,0,1,0,0,7,7,7,,,,,,,space,0.904700994492,,,,,,2017_Feb_03_1335,59.7246089133,spr_backupper,001,Mi18,
,gepasst.,Milch.,wieder,Haus,nan,sinken.,nan,nan,nan,nan,Menge,dunkler,deutlich.,nan,dumme,Menge,dunkle,Schule.,Milch.,Honigs,wiederhergestellt.,nan,zweiten,nan,deutlich.,genug.,nan,wiederbelebt.,nan,nan,genug.,Haus,zweiten,nan,nan,nan,rekonstruiert.,nan,nan,nan,an,nan,Rilke.,gerne.,berührt.,im,Honig,nan,nan,kaufen.,nan,Rilke,nan,es,nan,nan,nan,nan,nan,besprochen.,nan,nan,schon,Schule.,nan,nan,nan,nan,nan,schon,an,nan,nan,nan,nan,umzusetzen.,nan,vermiest.,dummer,nan,wurden.,nan,nan,Medikament,im,gerne.,nan,gepasst,nan,nan,nan,nan,nan,nan,berührt.,wurden.,nan,gefertigt.,,,,,,,,,,,,,,,,,,,,,,,1,0,1,0,0,8,8,8,,,,,,,space,4.75657200813,,,,,,2017_Feb_03_1335,59.7246089133,spr_backupper,001,Mi18,
,,,,,,,,,,,,,,,,,,,,,,,,,,,,,,,,,,,,,,,,,,,,,,,,,,,,,,,,,,,,,,,,,,,,,,,,,,,,,,,,,,,,,,,,,,,,,,,,,,,,,,,,,,,,,,,,,,,,,,,,,1,0,1,0,,,,,,,,,,,,,None,j,3.95824694633,,,2017_Feb_03_1335,59.7246089133,spr_backupper,001,Mi18,
,Die,In,Ich,Wir,Als,Ihr,Wir,Walter,Die,Manche,Man,Mit,Im,Es,Sie,Man,Mit,Die,In,Er,Danach,Die,Bei,Fernab,Im,100,Dort,Die,Unter,Die,100,Wir,Bei,Sie,Sie,Die,Das,Er,Die,Die,Ich,Außer,In,Wir,Nicht,In,Er,Wir,Er,Jugendliche,Alle,In,Die,Es,Die,Viele,Am,Die,Es,Sie,In,Wir,Bei,Die,Am,Sie,Die,Der,Die,Bei,Ich,Außer,Wir,Die,Wir,Jetzt,Die,Dass,Sie,Dort,Es,Die,Außer,In,In,Wir,Jungtiere,Die,Beträchtliche,Die,Außer,Die,Viele,Beträchtliche,Nicht,Es,Sie,Er,,,,,,,,,,,,,,,,,,,,,,,2,0,2,0,0,0,0,0,,,,,,None,space,0.000147819519043,,,,,,2017_Feb_03_1335,59.7246089133,spr_backupper,001,Mi18,
,Schuhe,den,wurde,haben,die,Blutdruck,mussten,Scheel,Lösung,Kreditnehmer,machte,dieser,Fernrohr,wurden,hatte,machte,dieser,Kinder,den,stellt,wurde,Linie,der,des,Fernrohr,g,türmen,müden,keinen,Teilnehmerinnen,g,haben,der,verbrauchen,verlassen,Gäste,Tuch,wurde,Uhr,Gäste,nehme,dem,meinem,übergaben,ein,der,stellt,konnten,wurde,können,Betten,meinem,Eislaufbahnen,hat,Uhr,Tonnen,äußersten,Formen,wurden,haben,diesem,hatten,unserer,Kinder,äußeren,verlassen,Schule,Flug,Autos,unserer,nehme,den,mussten,Stücke,hatten,ist,"Uhr,",es,hatte,türmen,waren,Uhr,dem,einer,der,übergaben,sollten,Schuhe,Stücke,Schule,das,Autos,Tonnen,Stücke,ein,waren,verbrauchen,hat,,,,,,,,,,,,,,,,,,,,,,,2,0,2,0,0,1,1,1,,,,,,,space,1.38094902039,,,,,,2017_Feb_03_1335,59.7246089133,spr_backupper,001,Mi18,
,in,Kakao,damals,jede,Sonne,kann,uns,war,wird,sind,mal,Methode,sahen,Eimer,keine,mal,Methode,fuhren,Kakao,die,die,101,Feier,Rummels,sahen,braunen,sich,Teilnehmer,Umständen,wussten,brauner,jede,Feier,60,wegen,suchen,wurde,trotz,war,suchen,eine,Bürgermeister,Studium,dem,Tropfen,Tat,die,dann,trotz,Kleidung,wurden,Studium,wurden,uns,schlug,gebrauchte,Rand,wurden,Eimer,die,Zirkus,in,Ankunft,fuhren,Rand,wegen,verbraucht,zum,beider,Ankunft,eine,Bürgermeister,uns,wurden,in,genau,die,"regnete,",keine,sich,nur,schlug,Essen,Studie,Tat,das,immer,in,saftiges,verbraucht,Essen,beider,gebrauchter,saftigen,Tropfen,nur,60,ein,,,,,,,,,,,,,,,,,,,,,,,2,0,2,0,0,2,2,2,,,,,,,space,0.638394117355,,,,,,2017_Feb_03_1335,59.7246089133,spr_backupper,001,Mi18,
,Größe,gehören,schnell,Menge,"unterging,",schon,durch,der,mit,mit,wieder,kann,wir,roter,Lust,wieder,kann,mit,gehören,Masse,Leinwand,hält,gedachte,wurde,wir,Zuckers,Berge,wurden,können,überwiegend,Zucker,Menge,gedachte,Liter,des,die,dann,dem,aus,die,große,beschuldigten,las,Mann,königliches,wissen,Masse,mit,des,bei,mit,habe,mit,die,"sporadisch,",Kleidung,der,unter,rote,Erlebnisse,werden,Dänemark,stand,mit,der,dem,260.000,Mond,beteiligten,stand,große,beschuldigten,durch,aus,Dänemark,die,er,hat,Lust,Berge,kleinere,"sporadisch,",kann,wurde,wissen,Auto,auf,Größe,Fleisch,260.000,kann,beteiligter,Kleidung,Fleischs,königlichen,kleinere,Liter,Hemd,,,,,,,,,,,,,,,,,,,,,,,2,0,2,0,0,3,3,3,,,,,,,space,1.92389297485,,,,,,2017_Feb_03_1335,59.7246089133,spr_backupper,001,Mi18,
,36,immer,dank,alten,war,bei,Büschel,vierte,"reichlichem,","sämtlichem,",viel,man,den,Farbe,auf,viel,man,solchen,immer,mit,aus,nicht,man,schon,den,sind,schmutziger,mit,Neuwahlen,"nicht,",sind,alten,man,sprudelnden,schönen,Wohnung,mit,bekannten,"Japan,",Wohnung,Packung,die,ich,das,Blut,wir,mit,"minimalem,",bekannten,ausreichendem,"üblichem,",ich,dauerhaftem,Stimmung,obwohl,landen,Stadt,"regelmäßigem,",Farbe,bei,die,gelegentlich,ein,solch,Stadt,schönen,Kilowattstunden,dauerte,Fahrer,ein,Packung,die,Büschel,"wertvollem,",einen,richtige,"trug,",uns,auf,schmutzige,"Delikte,",obschon,ich,jetzt,wir,dem,warmem,36,wurden,Kilowattstunden,ich,Fahrer,landen,wurden,Bluts,"Delikte,",sprudelndes,aus,,,,,,,,,,,,,,,,,,,,,,,2,0,2,0,0,4,4,4,,,,,,,space,0.963035106659,,,,,,2017_Feb_03_1335,59.7246089133,spr_backupper,001,Mi18,
,hätten,350,täglichem,Krams,die,minimalem,frischen,Bundespräsident.,purem,künftigem,Lärm,eine,roten,geschleudert.,noch,Lärm,eine,unzureichenden,350,einem,seltenem,am,den,immer,roten,auf,Wäsche.,zusätzlichem,vor,was,auf,Kram,der,Trinkwassers.,Wetters,des,"reichem,",Skandal,die,des,salzige,Störenfriede,mehr,Auto,hat,um,einem,sauberen,Skandals,monatlichem,harten,mehr,feinem,ziemlich,sie,im,liegen,kaltem,geschleudert.,"frischem,",Tiere,einen,Glas,unzureichenden,liegen,Wetter,elektrischer,ungefähr,wurden,Glas,salziger,Störenfriede,frisches,klassischen,gelegentlichen,"Zeit,",war,die,noch,Wäsche.,deren,sie,leider,"nachgewiesen,",von,Mann,weichem,würden,serviert.,elektrische,leider,wurden,im,serviert.,hat,derer,Trinkwasser.,feinem,,,,,,,,,,,,,,,,,,,,,,,2,0,2,0,0,5,5,5,,,,,,,space,0.848247051239,,,,,,2017_Feb_03_1335,59.7246089133,spr_backupper,001,Mi18,
,seiner,ml,grünen,aus,Flut,täglichen,Grases,nan,Alkohol,Einkommen,um,große,Planeten,nan,eine,um,große,Helmen,ml,Esslöffel,dichten,Hauptbahnhof.,Soldaten,ruhig,Planet,jeden,nan,schwarzem,Dezember,Tupperware,jeden,aus,Soldaten,nan,die,Herrn,goldenen,wiedergewählt.,er,Herrn,Wurst,jeden.,als,mehr,den,die,Esslöffel,Kraftstoff,wiedergewählt.,Taschengeld,Schaumstoff,als,Kunsteis,"vermiest,",defekt,Müll.,die,Abduschen,nan,kaltem,artgerecht,Besucher.,köstlicher,Helmen,die,die,Energie.,drei,verschrottet.,köstlichen,Wurst,jeden.,Gras,Schmuck,Besucher.,um,aus,Stimmung,eine,nan,sie,defekt,nichts,dass,den,mehr,Untergrund,seiner,nan,Energie.,nichts,verschrottet.,Müll.,nan,den,sie,nan,dichten,,,,,,,,,,,,,,,,,,,,,,,2,0,2,0,0,6,6,6,,,,,,,space,0.923495054245,,,,,,2017_Feb_03_1335,59.7246089133,spr_backupper,001,Mi18,
,Frau,warmer,Tee,dem,zurückgekehrt.,Einsatz,zwängen.,nan,verdünnt.,haftbar.,jede,Menge,ganz,nan,Sammlung,jede,Menge,zur,warme,warmen,Gewebe,nan,des,diskutiert.,ganz,Fall,nan,Kaffee,stattfinden.,ist.,Fall,dem,des,nan,Wohnung.,Gantenbeins.,Besatz,nan,trug.,Gantenbein.,mit,nan,einmal,als,Boden,Probleme,warmem,fahren.,nan,selber,gefertigt.,einmal,eingesprüht.,dass,war.,nan,Slums.,gehärtet.,nan,Saft,gehalten.,nan,Wein,zur,Slums.,Wohnung.,nan,Tage.,nan,Weins,mit,nan,zwängen.,umgearbeitet.,nan,Nadelhölzer,Japan.,ziemlich,Sammlung,nan,überführt,war.,mitbringen.,das,Problemen,als,liegen.,Frau,nan,nan,mitbringen.,nan,nan,nan,Boden,überführt,nan,Stoff,,,,,,,,,,,,,,,,,,,,,,,2,0,2,0,0,7,7,7,,,,,,,space,4.55555701256,,,,,,2017_Feb_03_1335,59.7246089133,spr_backupper,001,Mi18,
,,,,,,,,,,,,,,,,,,,,,,,,,,,,,,,,,,,,,,,,,,,,,,,,,,,,,,,,,,,,,,,,,,,,,,,,,,,,,,,,,,,,,,,,,,,,,,,,,,,,,,,,,,,,,,,,,,,,,,,,,2,0,2,0,,,,,,,,,,,,,None,n,14.3895170689,,,2017_Feb_03_1335,59.7246089133,spr_backupper,001,Mi18,
,Die,In,Ich,Wir,Als,Ihr,Wir,Walter,Die,Manche,Man,Mit,Im,Es,Sie,Man,Mit,Die,In,Er,Danach,Die,Bei,Fernab,Im,100,Dort,Die,Unter,Die,100,Wir,Bei,Sie,Sie,Die,Das,Er,Die,Die,Ich,Außer,In,Wir,Nicht,In,Er,Wir,Er,Jugendliche,Alle,In,Die,Es,Die,Viele,Am,Die,Es,Sie,In,Wir,Bei,Die,Am,Sie,Die,Der,Die,Bei,Ich,Außer,Wir,Die,Wir,Jetzt,Die,Dass,Sie,Dort,Es,Die,Außer,In,In,Wir,Jungtiere,Die,Beträchtliche,Die,Außer,Die,Viele,Beträchtliche,Nicht,Es,Sie,Er,,,,,,,,,,,,,,,,,,,,,,,3,0,3,0,0,0,0,0,,,,,,space,space,0.471385002136,,,,0.939272880554,,2017_Feb_03_1335,59.7246089133,spr_backupper,001,Mi18,
,Schuhe,den,wurde,haben,die,Blutdruck,mussten,Scheel,Lösung,Kreditnehmer,machte,dieser,Fernrohr,wurden,hatte,machte,dieser,Kinder,den,stellt,wurde,Linie,der,des,Fernrohr,g,türmen,müden,keinen,Teilnehmerinnen,g,haben,der,verbrauchen,verlassen,Gäste,Tuch,wurde,Uhr,Gäste,nehme,dem,meinem,übergaben,ein,der,stellt,konnten,wurde,können,Betten,meinem,Eislaufbahnen,hat,Uhr,Tonnen,äußersten,Formen,wurden,haben,diesem,hatten,unserer,Kinder,äußeren,verlassen,Schule,Flug,Autos,unserer,nehme,den,mussten,Stücke,hatten,ist,"Uhr,",es,hatte,türmen,waren,Uhr,dem,einer,der,übergaben,sollten,Schuhe,Stücke,Schule,das,Autos,Tonnen,Stücke,ein,waren,verbrauchen,hat,,,,,,,,,,,,,,,,,,,,,,,3,0,3,0,0,1,1,1,,,,,,,space,0.508013010025,,,,,,2017_Feb_03_1335,59.7246089133,spr_backupper,001,Mi18,
,in,Kakao,damals,jede,Sonne,kann,uns,war,wird,sind,mal,Methode,sahen,Eimer,keine,mal,Methode,fuhren,Kakao,die,die,101,Feier,Rummels,sahen,braunen,sich,Teilnehmer,Umständen,wussten,brauner,jede,Feier,60,wegen,suchen,wurde,trotz,war,suchen,eine,Bürgermeister,Studium,dem,Tropfen,Tat,die,dann,trotz,Kleidung,wurden,Studium,wurden,uns,schlug,gebrauchte,Rand,wurden,Eimer,die,Zirkus,in,Ankunft,fuhren,Rand,wegen,verbraucht,zum,beider,Ankunft,eine,Bürgermeister,uns,wurden,in,genau,die,"regnete,",keine,sich,nur,schlug,Essen,Studie,Tat,das,immer,in,saftiges,verbraucht,Essen,beider,gebrauchter,saftigen,Tropfen,nur,60,ein,,,,,,,,,,,,,,,,,,,,,,,3,0,3,0,0,2,2,2,,,,,,,space,0.800249814987,,,,,,2017_Feb_03_1335,59.7246089133,spr_backupper,001,Mi18,
,Größe,gehören,schnell,Menge,"unterging,",schon,durch,der,mit,mit,wieder,kann,wir,roter,Lust,wieder,kann,mit,gehören,Masse,Leinwand,hält,gedachte,wurde,wir,Zuckers,Berge,wurden,können,überwiegend,Zucker,Menge,gedachte,Liter,des,die,dann,dem,aus,die,große,beschuldigten,las,Mann,königliches,wissen,Masse,mit,des,bei,mit,habe,mit,die,"sporadisch,",Kleidung,der,unter,rote,Erlebnisse,werden,Dänemark,stand,mit,der,dem,260.000,Mond,beteiligten,stand,große,beschuldigten,durch,aus,Dänemark,die,er,hat,Lust,Berge,kleinere,"sporadisch,",kann,wurde,wissen,Auto,auf,Größe,Fleisch,260.000,kann,beteiligter,Kleidung,Fleischs,königlichen,kleinere,Liter,Hemd,,,,,,,,,,,,,,,,,,,,,,,3,0,3,0,0,3,3,3,,,,,,,space,0.509311914444,,,,,,2017_Feb_03_1335,59.7246089133,spr_backupper,001,Mi18,
,36,immer,dank,alten,war,bei,Büschel,vierte,"reichlichem,","sämtlichem,",viel,man,den,Farbe,auf,viel,man,solchen,immer,mit,aus,nicht,man,schon,den,sind,schmutziger,mit,Neuwahlen,"nicht,",sind,alten,man,sprudelnden,schönen,Wohnung,mit,bekannten,"Japan,",Wohnung,Packung,die,ich,das,Blut,wir,mit,"minimalem,",bekannten,ausreichendem,"üblichem,",ich,dauerhaftem,Stimmung,obwohl,landen,Stadt,"regelmäßigem,",Farbe,bei,die,gelegentlich,ein,solch,Stadt,schönen,Kilowattstunden,dauerte,Fahrer,ein,Packung,die,Büschel,"wertvollem,",einen,richtige,"trug,",uns,auf,schmutzige,"Delikte,",obschon,ich,jetzt,wir,dem,warmem,36,wurden,Kilowattstunden,ich,Fahrer,landen,wurden,Bluts,"Delikte,",sprudelndes,aus,,,,,,,,,,,,,,,,,,,,,,,3,0,3,0,0,4,4,4,,,,,,,space,0.469569921494,,,,,,2017_Feb_03_1335,59.7246089133,spr_backupper,001,Mi18,
,hätten,350,täglichem,Krams,die,minimalem,frischen,Bundespräsident.,purem,künftigem,Lärm,eine,roten,geschleudert.,noch,Lärm,eine,unzureichenden,350,einem,seltenem,am,den,immer,roten,auf,Wäsche.,zusätzlichem,vor,was,auf,Kram,der,Trinkwassers.,Wetters,des,"reichem,",Skandal,die,des,salzige,Störenfriede,mehr,Auto,hat,um,einem,sauberen,Skandals,monatlichem,harten,mehr,feinem,ziemlich,sie,im,liegen,kaltem,geschleudert.,"frischem,",Tiere,einen,Glas,unzureichenden,liegen,Wetter,elektrischer,ungefähr,wurden,Glas,salziger,Störenfriede,frisches,klassischen,gelegentlichen,"Zeit,",war,die,noch,Wäsche.,deren,sie,leider,"nachgewiesen,",von,Mann,weichem,würden,serviert.,elektrische,leider,wurden,im,serviert.,hat,derer,Trinkwasser.,feinem,,,,,,,,,,,,,,,,,,,,,,,3,0,3,0,0,5,5,5,,,,,,,space,0.470747947693,,,,,,2017_Feb_03_1335,59.7246089133,spr_backupper,001,Mi18,
,seiner,ml,grünen,aus,Flut,täglichen,Grases,nan,Alkohol,Einkommen,um,große,Planeten,nan,eine,um,große,Helmen,ml,Esslöffel,dichten,Hauptbahnhof.,Soldaten,ruhig,Planet,jeden,nan,schwarzem,Dezember,Tupperware,jeden,aus,Soldaten,nan,die,Herrn,goldenen,wiedergewählt.,er,Herrn,Wurst,jeden.,als,mehr,den,die,Esslöffel,Kraftstoff,wiedergewählt.,Taschengeld,Schaumstoff,als,Kunsteis,"vermiest,",defekt,Müll.,die,Abduschen,nan,kaltem,artgerecht,Besucher.,köstlicher,Helmen,die,die,Energie.,drei,verschrottet.,köstlichen,Wurst,jeden.,Gras,Schmuck,Besucher.,um,aus,Stimmung,eine,nan,sie,defekt,nichts,dass,den,mehr,Untergrund,seiner,nan,Energie.,nichts,verschrottet.,Müll.,nan,den,sie,nan,dichten,,,,,,,,,,,,,,,,,,,,,,,3,0,3,0,0,6,6,6,,,,,,,space,0.540438175201,,,,,,2017_Feb_03_1335,59.7246089133,spr_backupper,001,Mi18,
,Frau,warmer,Tee,dem,zurückgekehrt.,Einsatz,zwängen.,nan,verdünnt.,haftbar.,jede,Menge,ganz,nan,Sammlung,jede,Menge,zur,warme,warmen,Gewebe,nan,des,diskutiert.,ganz,Fall,nan,Kaffee,stattfinden.,ist.,Fall,dem,des,nan,Wohnung.,Gantenbeins.,Besatz,nan,trug.,Gantenbein.,mit,nan,einmal,als,Boden,Probleme,warmem,fahren.,nan,selber,gefertigt.,einmal,eingesprüht.,dass,war.,nan,Slums.,gehärtet.,nan,Saft,gehalten.,nan,Wein,zur,Slums.,Wohnung.,nan,Tage.,nan,Weins,mit,nan,zwängen.,umgearbeitet.,nan,Nadelhölzer,Japan.,ziemlich,Sammlung,nan,überführt,war.,mitbringen.,das,Problemen,als,liegen.,Frau,nan,nan,mitbringen.,nan,nan,nan,Boden,überführt,nan,Stoff,,,,,,,,,,,,,,,,,,,,,,,3,0,3,0,0,7,7,7,,,,,,,space,0.900104045868,,,,,,2017_Feb_03_1335,59.7246089133,spr_backupper,001,Mi18,
,gepasst.,Milch.,wieder,Haus,nan,sinken.,nan,nan,nan,nan,Menge,dunkler,deutlich.,nan,dumme,Menge,dunkle,Schule.,Milch.,Honigs,wiederhergestellt.,nan,zweiten,nan,deutlich.,genug.,nan,wiederbelebt.,nan,nan,genug.,Haus,zweiten,nan,nan,nan,rekonstruiert.,nan,nan,nan,an,nan,Rilke.,gerne.,berührt.,im,Honig,nan,nan,kaufen.,nan,Rilke,nan,es,nan,nan,nan,nan,nan,besprochen.,nan,nan,schon,Schule.,nan,nan,nan,nan,nan,schon,an,nan,nan,nan,nan,umzusetzen.,nan,vermiest.,dummer,nan,wurden.,nan,nan,Medikament,im,gerne.,nan,gepasst,nan,nan,nan,nan,nan,nan,berührt.,wurden.,nan,gefertigt.,,,,,,,,,,,,,,,,,,,,,,,3,0,3,0,0,8,8,8,,,,,,,space,0.588055849075,,,,,,2017_Feb_03_1335,59.7246089133,spr_backupper,001,Mi18,
,nan,nan,fit.,geschafft.,nan,nan,nan,nan,nan,nan,heiße,Materie,nan,nan,Sprüche.,heißer,Materie,nan,nan,her.,nan,nan,Weltkriegs.,nan,nan,nan,nan,nan,nan,nan,nan,geschafft.,Weltkriegs.,nan,nan,nan,nan,nan,nan,nan,den,nan,nan,nan,nan,Landkreis.,her.,nan,nan,nan,nan,gelesen.,nan,regnete.,nan,nan,nan,nan,nan,nan,nan,nan,auf,nan,nan,nan,nan,nan,nan,auf,den,nan,nan,nan,nan,nan,nan,nan,Sprüche.,nan,nan,nan,nan,nicht,Landkreis.,nan,nan,haben.,nan,nan,nan,nan,nan,nan,nan,nan,nan,nan,,,,,,,,,,,,,,,,,,,,,,,3,0,3,0,0,9,9,9,,,,,,,space,0.727621078491,,,,,,2017_Feb_03_1335,59.7246089133,spr_backupper,001,Mi18,
,nan,nan,nan,nan,nan,nan,nan,nan,nan,nan,Luft.,erzeugen.,nan,nan,nan,Luft.,erzeugen.,nan,nan,nan,nan,nan,nan,nan,nan,nan,nan,nan,nan,nan,nan,nan,nan,nan,nan,nan,nan,nan,nan,nan,See.,nan,nan,nan,nan,nan,nan,nan,nan,nan,nan,nan,nan,nan,nan,nan,nan,nan,nan,nan,nan,nan,dem,nan,nan,nan,nan,nan,nan,dem,See.,nan,nan,nan,nan,nan,nan,nan,nan,nan,nan,nan,nan,wirkt.,nan,nan,nan,nan,nan,nan,nan,nan,nan,nan,nan,nan,nan,nan,,,,,,,,,,,,,,,,,,,,,,,3,0,3,0,0,10,10,10,,,,,,,space,2.13418197632,,,,,,2017_Feb_03_1335,59.7246089133,spr_backupper,001,Mi18,
,,,,,,,,,,,,,,,,,,,,,,,,,,,,,,,,,,,,,,,,,,,,,,,,,,,,,,,,,,,,,,,,,,,,,,,,,,,,,,,,,,,,,,,,,,,,,,,,,,,,,,,,,,,,,,,,,,,,,,,,,3,0,3,0,,,,,,,,,,,,,None,n,7.22825503349,,,2017_Feb_03_1335,59.7246089133,spr_backupper,001,Mi18,
,Die,In,Ich,Wir,Als,Ihr,Wir,Walter,Die,Manche,Man,Mit,Im,Es,Sie,Man,Mit,Die,In,Er,Danach,Die,Bei,Fernab,Im,100,Dort,Die,Unter,Die,100,Wir,Bei,Sie,Sie,Die,Das,Er,Die,Die,Ich,Außer,In,Wir,Nicht,In,Er,Wir,Er,Jugendliche,Alle,In,Die,Es,Die,Viele,Am,Die,Es,Sie,In,Wir,Bei,Die,Am,Sie,Die,Der,Die,Bei,Ich,Außer,Wir,Die,Wir,Jetzt,Die,Dass,Sie,Dort,Es,Die,Außer,In,In,Wir,Jungtiere,Die,Beträchtliche,Die,Außer,Die,Viele,Beträchtliche,Nicht,Es,Sie,Er,,,,,,,,,,,,,,,,,,,,,,,4,0,4,0,0,0,0,0,,,,,,space,space,0.520810127258,,,,0.722018003464,,2017_Feb_03_1335,59.7246089133,spr_backupper,001,Mi18,
,Schuhe,den,wurde,haben,die,Blutdruck,mussten,Scheel,Lösung,Kreditnehmer,machte,dieser,Fernrohr,wurden,hatte,machte,dieser,Kinder,den,stellt,wurde,Linie,der,des,Fernrohr,g,türmen,müden,keinen,Teilnehmerinnen,g,haben,der,verbrauchen,verlassen,Gäste,Tuch,wurde,Uhr,Gäste,nehme,dem,meinem,übergaben,ein,der,stellt,konnten,wurde,können,Betten,meinem,Eislaufbahnen,hat,Uhr,Tonnen,äußersten,Formen,wurden,haben,diesem,hatten,unserer,Kinder,äußeren,verlassen,Schule,Flug,Autos,unserer,nehme,den,mussten,Stücke,hatten,ist,"Uhr,",es,hatte,türmen,waren,Uhr,dem,einer,der,übergaben,sollten,Schuhe,Stücke,Schule,das,Autos,Tonnen,Stücke,ein,waren,verbrauchen,hat,,,,,,,,,,,,,,,,,,,,,,,4,0,4,0,0,1,1,1,,,,,,,space,0.657752037048,,,,,,2017_Feb_03_1335,59.7246089133,spr_backupper,001,Mi18,
,in,Kakao,damals,jede,Sonne,kann,uns,war,wird,sind,mal,Methode,sahen,Eimer,keine,mal,Methode,fuhren,Kakao,die,die,101,Feier,Rummels,sahen,braunen,sich,Teilnehmer,Umständen,wussten,brauner,jede,Feier,60,wegen,suchen,wurde,trotz,war,suchen,eine,Bürgermeister,Studium,dem,Tropfen,Tat,die,dann,trotz,Kleidung,wurden,Studium,wurden,uns,schlug,gebrauchte,Rand,wurden,Eimer,die,Zirkus,in,Ankunft,fuhren,Rand,wegen,verbraucht,zum,beider,Ankunft,eine,Bürgermeister,uns,wurden,in,genau,die,"regnete,",keine,sich,nur,schlug,Essen,Studie,Tat,das,immer,in,saftiges,verbraucht,Essen,beider,gebrauchter,saftigen,Tropfen,nur,60,ein,,,,,,,,,,,,,,,,,,,,,,,4,0,4,0,0,2,2,2,,,,,,,space,0.621922016144,,,,,,2017_Feb_03_1335,59.7246089133,spr_backupper,001,Mi18,
,Größe,gehören,schnell,Menge,"unterging,",schon,durch,der,mit,mit,wieder,kann,wir,roter,Lust,wieder,kann,mit,gehören,Masse,Leinwand,hält,gedachte,wurde,wir,Zuckers,Berge,wurden,können,überwiegend,Zucker,Menge,gedachte,Liter,des,die,dann,dem,aus,die,große,beschuldigten,las,Mann,königliches,wissen,Masse,mit,des,bei,mit,habe,mit,die,"sporadisch,",Kleidung,der,unter,rote,Erlebnisse,werden,Dänemark,stand,mit,der,dem,260.000,Mond,beteiligten,stand,große,beschuldigten,durch,aus,Dänemark,die,er,hat,Lust,Berge,kleinere,"sporadisch,",kann,wurde,wissen,Auto,auf,Größe,Fleisch,260.000,kann,beteiligter,Kleidung,Fleischs,königlichen,kleinere,Liter,Hemd,,,,,,,,,,,,,,,,,,,,,,,4,0,4,0,0,3,3,3,,,,,,,space,0.499242067337,,,,,,2017_Feb_03_1335,59.7246089133,spr_backupper,001,Mi18,
,36,immer,dank,alten,war,bei,Büschel,vierte,"reichlichem,","sämtlichem,",viel,man,den,Farbe,auf,viel,man,solchen,immer,mit,aus,nicht,man,schon,den,sind,schmutziger,mit,Neuwahlen,"nicht,",sind,alten,man,sprudelnden,schönen,Wohnung,mit,bekannten,"Japan,",Wohnung,Packung,die,ich,das,Blut,wir,mit,"minimalem,",bekannten,ausreichendem,"üblichem,",ich,dauerhaftem,Stimmung,obwohl,landen,Stadt,"regelmäßigem,",Farbe,bei,die,gelegentlich,ein,solch,Stadt,schönen,Kilowattstunden,dauerte,Fahrer,ein,Packung,die,Büschel,"wertvollem,",einen,richtige,"trug,",uns,auf,schmutzige,"Delikte,",obschon,ich,jetzt,wir,dem,warmem,36,wurden,Kilowattstunden,ich,Fahrer,landen,wurden,Bluts,"Delikte,",sprudelndes,aus,,,,,,,,,,,,,,,,,,,,,,,4,0,4,0,0,4,4,4,,,,,,,space,0.466120958328,,,,,,2017_Feb_03_1335,59.7246089133,spr_backupper,001,Mi18,
,hätten,350,täglichem,Krams,die,minimalem,frischen,Bundespräsident.,purem,künftigem,Lärm,eine,roten,geschleudert.,noch,Lärm,eine,unzureichenden,350,einem,seltenem,am,den,immer,roten,auf,Wäsche.,zusätzlichem,vor,was,auf,Kram,der,Trinkwassers.,Wetters,des,"reichem,",Skandal,die,des,salzige,Störenfriede,mehr,Auto,hat,um,einem,sauberen,Skandals,monatlichem,harten,mehr,feinem,ziemlich,sie,im,liegen,kaltem,geschleudert.,"frischem,",Tiere,einen,Glas,unzureichenden,liegen,Wetter,elektrischer,ungefähr,wurden,Glas,salziger,Störenfriede,frisches,klassischen,gelegentlichen,"Zeit,",war,die,noch,Wäsche.,deren,sie,leider,"nachgewiesen,",von,Mann,weichem,würden,serviert.,elektrische,leider,wurden,im,serviert.,hat,derer,Trinkwasser.,feinem,,,,,,,,,,,,,,,,,,,,,,,4,0,4,0,0,5,5,5,,,,,,,space,0.521169900894,,,,,,2017_Feb_03_1335,59.7246089133,spr_backupper,001,Mi18,
,seiner,ml,grünen,aus,Flut,täglichen,Grases,nan,Alkohol,Einkommen,um,große,Planeten,nan,eine,um,große,Helmen,ml,Esslöffel,dichten,Hauptbahnhof.,Soldaten,ruhig,Planet,jeden,nan,schwarzem,Dezember,Tupperware,jeden,aus,Soldaten,nan,die,Herrn,goldenen,wiedergewählt.,er,Herrn,Wurst,jeden.,als,mehr,den,die,Esslöffel,Kraftstoff,wiedergewählt.,Taschengeld,Schaumstoff,als,Kunsteis,"vermiest,",defekt,Müll.,die,Abduschen,nan,kaltem,artgerecht,Besucher.,köstlicher,Helmen,die,die,Energie.,drei,verschrottet.,köstlichen,Wurst,jeden.,Gras,Schmuck,Besucher.,um,aus,Stimmung,eine,nan,sie,defekt,nichts,dass,den,mehr,Untergrund,seiner,nan,Energie.,nichts,verschrottet.,Müll.,nan,den,sie,nan,dichten,,,,,,,,,,,,,,,,,,,,,,,4,0,4,0,0,6,6,6,,,,,,,space,0.453414916992,,,,,,2017_Feb_03_1335,59.7246089133,spr_backupper,001,Mi18,
,Frau,warmer,Tee,dem,zurückgekehrt.,Einsatz,zwängen.,nan,verdünnt.,haftbar.,jede,Menge,ganz,nan,Sammlung,jede,Menge,zur,warme,warmen,Gewebe,nan,des,diskutiert.,ganz,Fall,nan,Kaffee,stattfinden.,ist.,Fall,dem,des,nan,Wohnung.,Gantenbeins.,Besatz,nan,trug.,Gantenbein.,mit,nan,einmal,als,Boden,Probleme,warmem,fahren.,nan,selber,gefertigt.,einmal,eingesprüht.,dass,war.,nan,Slums.,gehärtet.,nan,Saft,gehalten.,nan,Wein,zur,Slums.,Wohnung.,nan,Tage.,nan,Weins,mit,nan,zwängen.,umgearbeitet.,nan,Nadelhölzer,Japan.,ziemlich,Sammlung,nan,überführt,war.,mitbringen.,das,Problemen,als,liegen.,Frau,nan,nan,mitbringen.,nan,nan,nan,Boden,überführt,nan,Stoff,,,,,,,,,,,,,,,,,,,,,,,4,0,4,0,0,7,7,7,,,,,,,space,0.576451063156,,,,,,2017_Feb_03_1335,59.7246089133,spr_backupper,001,Mi18,
,gepasst.,Milch.,wieder,Haus,nan,sinken.,nan,nan,nan,nan,Menge,dunkler,deutlich.,nan,dumme,Menge,dunkle,Schule.,Milch.,Honigs,wiederhergestellt.,nan,zweiten,nan,deutlich.,genug.,nan,wiederbelebt.,nan,nan,genug.,Haus,zweiten,nan,nan,nan,rekonstruiert.,nan,nan,nan,an,nan,Rilke.,gerne.,berührt.,im,Honig,nan,nan,kaufen.,nan,Rilke,nan,es,nan,nan,nan,nan,nan,besprochen.,nan,nan,schon,Schule.,nan,nan,nan,nan,nan,schon,an,nan,nan,nan,nan,umzusetzen.,nan,vermiest.,dummer,nan,wurden.,nan,nan,Medikament,im,gerne.,nan,gepasst,nan,nan,nan,nan,nan,nan,berührt.,wurden.,nan,gefertigt.,,,,,,,,,,,,,,,,,,,,,,,4,0,4,0,0,8,8,8,,,,,,,space,0.604965925217,,,,,,2017_Feb_03_1335,59.7246089133,spr_backupper,001,Mi18,
,nan,nan,fit.,geschafft.,nan,nan,nan,nan,nan,nan,heiße,Materie,nan,nan,Sprüche.,heißer,Materie,nan,nan,her.,nan,nan,Weltkriegs.,nan,nan,nan,nan,nan,nan,nan,nan,geschafft.,Weltkriegs.,nan,nan,nan,nan,nan,nan,nan,den,nan,nan,nan,nan,Landkreis.,her.,nan,nan,nan,nan,gelesen.,nan,regnete.,nan,nan,nan,nan,nan,nan,nan,nan,auf,nan,nan,nan,nan,nan,nan,auf,den,nan,nan,nan,nan,nan,nan,nan,Sprüche.,nan,nan,nan,nan,nicht,Landkreis.,nan,nan,haben.,nan,nan,nan,nan,nan,nan,nan,nan,nan,nan,,,,,,,,,,,,,,,,,,,,,,,4,0,4,0,0,9,9,9,,,,,,,space,0.796663999557,,,,,,2017_Feb_03_1335,59.7246089133,spr_backupper,001,Mi18,
,nan,nan,nan,nan,nan,nan,nan,nan,nan,nan,Luft.,erzeugen.,nan,nan,nan,Luft.,erzeugen.,nan,nan,nan,nan,nan,nan,nan,nan,nan,nan,nan,nan,nan,nan,nan,nan,nan,nan,nan,nan,nan,nan,nan,See.,nan,nan,nan,nan,nan,nan,nan,nan,nan,nan,nan,nan,nan,nan,nan,nan,nan,nan,nan,nan,nan,dem,nan,nan,nan,nan,nan,nan,dem,See.,nan,nan,nan,nan,nan,nan,nan,nan,nan,nan,nan,nan,wirkt.,nan,nan,nan,nan,nan,nan,nan,nan,nan,nan,nan,nan,nan,nan,,,,,,,,,,,,,,,,,,,,,,,4,0,4,0,0,10,10,10,,,,,,,space,3.89658880234,,,,,,2017_Feb_03_1335,59.7246089133,spr_backupper,001,Mi18,
,,,,,,,,,,,,,,,,,,,,,,,,,,,,,,,,,,,,,,,,,,,,,,,,,,,,,,,,,,,,,,,,,,,,,,,,,,,,,,,,,,,,,,,,,,,,,,,,,,,,,,,,,,,,,,,,,,,,,,,,,4,0,4,0,,,,,,,,,,,,,None,j,13.1872210503,,,2017_Feb_03_1335,59.7246089133,spr_backupper,001,Mi18,
,Die,In,Ich,Wir,Als,Ihr,Wir,Walter,Die,Manche,Man,Mit,Im,Es,Sie,Man,Mit,Die,In,Er,Danach,Die,Bei,Fernab,Im,100,Dort,Die,Unter,Die,100,Wir,Bei,Sie,Sie,Die,Das,Er,Die,Die,Ich,Außer,In,Wir,Nicht,In,Er,Wir,Er,Jugendliche,Alle,In,Die,Es,Die,Viele,Am,Die,Es,Sie,In,Wir,Bei,Die,Am,Sie,Die,Der,Die,Bei,Ich,Außer,Wir,Die,Wir,Jetzt,Die,Dass,Sie,Dort,Es,Die,Außer,In,In,Wir,Jungtiere,Die,Beträchtliche,Die,Außer,Die,Viele,Beträchtliche,Nicht,Es,Sie,Er,,,,,,,,,,,,,,,,,,,,,,,5,0,5,0,0,0,0,0,,,,,,space,space,0.769937992096,,,,0.838589906693,,2017_Feb_03_1335,59.7246089133,spr_backupper,001,Mi18,
,Schuhe,den,wurde,haben,die,Blutdruck,mussten,Scheel,Lösung,Kreditnehmer,machte,dieser,Fernrohr,wurden,hatte,machte,dieser,Kinder,den,stellt,wurde,Linie,der,des,Fernrohr,g,türmen,müden,keinen,Teilnehmerinnen,g,haben,der,verbrauchen,verlassen,Gäste,Tuch,wurde,Uhr,Gäste,nehme,dem,meinem,übergaben,ein,der,stellt,konnten,wurde,können,Betten,meinem,Eislaufbahnen,hat,Uhr,Tonnen,äußersten,Formen,wurden,haben,diesem,hatten,unserer,Kinder,äußeren,verlassen,Schule,Flug,Autos,unserer,nehme,den,mussten,Stücke,hatten,ist,"Uhr,",es,hatte,türmen,waren,Uhr,dem,einer,der,übergaben,sollten,Schuhe,Stücke,Schule,das,Autos,Tonnen,Stücke,ein,waren,verbrauchen,hat,,,,,,,,,,,,,,,,,,,,,,,5,0,5,0,0,1,1,1,,,,,,,space,1.14104104042,,,,,,2017_Feb_03_1335,59.7246089133,spr_backupper,001,Mi18,
,in,Kakao,damals,jede,Sonne,kann,uns,war,wird,sind,mal,Methode,sahen,Eimer,keine,mal,Methode,fuhren,Kakao,die,die,101,Feier,Rummels,sahen,braunen,sich,Teilnehmer,Umständen,wussten,brauner,jede,Feier,60,wegen,suchen,wurde,trotz,war,suchen,eine,Bürgermeister,Studium,dem,Tropfen,Tat,die,dann,trotz,Kleidung,wurden,Studium,wurden,uns,schlug,gebrauchte,Rand,wurden,Eimer,die,Zirkus,in,Ankunft,fuhren,Rand,wegen,verbraucht,zum,beider,Ankunft,eine,Bürgermeister,uns,wurden,in,genau,die,"regnete,",keine,sich,nur,schlug,Essen,Studie,Tat,das,immer,in,saftiges,verbraucht,Essen,beider,gebrauchter,saftigen,Tropfen,nur,60,ein,,,,,,,,,,,,,,,,,,,,,,,5,0,5,0,0,2,2,2,,,,,,,space,1.04084205627,,,,,,2017_Feb_03_1335,59.7246089133,spr_backupper,001,Mi18,
,Größe,gehören,schnell,Menge,"unterging,",schon,durch,der,mit,mit,wieder,kann,wir,roter,Lust,wieder,kann,mit,gehören,Masse,Leinwand,hält,gedachte,wurde,wir,Zuckers,Berge,wurden,können,überwiegend,Zucker,Menge,gedachte,Liter,des,die,dann,dem,aus,die,große,beschuldigten,las,Mann,königliches,wissen,Masse,mit,des,bei,mit,habe,mit,die,"sporadisch,",Kleidung,der,unter,rote,Erlebnisse,werden,Dänemark,stand,mit,der,dem,260.000,Mond,beteiligten,stand,große,beschuldigten,durch,aus,Dänemark,die,er,hat,Lust,Berge,kleinere,"sporadisch,",kann,wurde,wissen,Auto,auf,Größe,Fleisch,260.000,kann,beteiligter,Kleidung,Fleischs,königlichen,kleinere,Liter,Hemd,,,,,,,,,,,,,,,,,,,,,,,5,0,5,0,0,3,3,3,,,,,,,space,0.718327045441,,,,,,2017_Feb_03_1335,59.7246089133,spr_backupper,001,Mi18,
,36,immer,dank,alten,war,bei,Büschel,vierte,"reichlichem,","sämtlichem,",viel,man,den,Farbe,auf,viel,man,solchen,immer,mit,aus,nicht,man,schon,den,sind,schmutziger,mit,Neuwahlen,"nicht,",sind,alten,man,sprudelnden,schönen,Wohnung,mit,bekannten,"Japan,",Wohnung,Packung,die,ich,das,Blut,wir,mit,"minimalem,",bekannten,ausreichendem,"üblichem,",ich,dauerhaftem,Stimmung,obwohl,landen,Stadt,"regelmäßigem,",Farbe,bei,die,gelegentlich,ein,solch,Stadt,schönen,Kilowattstunden,dauerte,Fahrer,ein,Packung,die,Büschel,"wertvollem,",einen,richtige,"trug,",uns,auf,schmutzige,"Delikte,",obschon,ich,jetzt,wir,dem,warmem,36,wurden,Kilowattstunden,ich,Fahrer,landen,wurden,Bluts,"Delikte,",sprudelndes,aus,,,,,,,,,,,,,,,,,,,,,,,5,0,5,0,0,4,4,4,,,,,,,space,1.24647092819,,,,,,2017_Feb_03_1335,59.7246089133,spr_backupper,001,Mi18,
,hätten,350,täglichem,Krams,die,minimalem,frischen,Bundespräsident.,purem,künftigem,Lärm,eine,roten,geschleudert.,noch,Lärm,eine,unzureichenden,350,einem,seltenem,am,den,immer,roten,auf,Wäsche.,zusätzlichem,vor,was,auf,Kram,der,Trinkwassers.,Wetters,des,"reichem,",Skandal,die,des,salzige,Störenfriede,mehr,Auto,hat,um,einem,sauberen,Skandals,monatlichem,harten,mehr,feinem,ziemlich,sie,im,liegen,kaltem,geschleudert.,"frischem,",Tiere,einen,Glas,unzureichenden,liegen,Wetter,elektrischer,ungefähr,wurden,Glas,salziger,Störenfriede,frisches,klassischen,gelegentlichen,"Zeit,",war,die,noch,Wäsche.,deren,sie,leider,"nachgewiesen,",von,Mann,weichem,würden,serviert.,elektrische,leider,wurden,im,serviert.,hat,derer,Trinkwasser.,feinem,,,,,,,,,,,,,,,,,,,,,,,5,0,5,0,0,5,5,5,,,,,,,space,1.0636818409,,,,,,2017_Feb_03_1335,59.7246089133,spr_backupper,001,Mi18,
,seiner,ml,grünen,aus,Flut,täglichen,Grases,nan,Alkohol,Einkommen,um,große,Planeten,nan,eine,um,große,Helmen,ml,Esslöffel,dichten,Hauptbahnhof.,Soldaten,ruhig,Planet,jeden,nan,schwarzem,Dezember,Tupperware,jeden,aus,Soldaten,nan,die,Herrn,goldenen,wiedergewählt.,er,Herrn,Wurst,jeden.,als,mehr,den,die,Esslöffel,Kraftstoff,wiedergewählt.,Taschengeld,Schaumstoff,als,Kunsteis,"vermiest,",defekt,Müll.,die,Abduschen,nan,kaltem,artgerecht,Besucher.,köstlicher,Helmen,die,die,Energie.,drei,verschrottet.,köstlichen,Wurst,jeden.,Gras,Schmuck,Besucher.,um,aus,Stimmung,eine,nan,sie,defekt,nichts,dass,den,mehr,Untergrund,seiner,nan,Energie.,nichts,verschrottet.,Müll.,nan,den,sie,nan,dichten,,,,,,,,,,,,,,,,,,,,,,,5,0,5,0,0,6,6,6,,,,,,,space,0.80576300621,,,,,,2017_Feb_03_1335,59.7246089133,spr_backupper,001,Mi18,
,Frau,warmer,Tee,dem,zurückgekehrt.,Einsatz,zwängen.,nan,verdünnt.,haftbar.,jede,Menge,ganz,nan,Sammlung,jede,Menge,zur,warme,warmen,Gewebe,nan,des,diskutiert.,ganz,Fall,nan,Kaffee,stattfinden.,ist.,Fall,dem,des,nan,Wohnung.,Gantenbeins.,Besatz,nan,trug.,Gantenbein.,mit,nan,einmal,als,Boden,Probleme,warmem,fahren.,nan,selber,gefertigt.,einmal,eingesprüht.,dass,war.,nan,Slums.,gehärtet.,nan,Saft,gehalten.,nan,Wein,zur,Slums.,Wohnung.,nan,Tage.,nan,Weins,mit,nan,zwängen.,umgearbeitet.,nan,Nadelhölzer,Japan.,ziemlich,Sammlung,nan,überführt,war.,mitbringen.,das,Problemen,als,liegen.,Frau,nan,nan,mitbringen.,nan,nan,nan,Boden,überführt,nan,Stoff,,,,,,,,,,,,,,,,,,,,,,,5,0,5,0,0,7,7,7,,,,,,,space,3.22731614113,,,,,,2017_Feb_03_1335,59.7246089133,spr_backupper,001,Mi18,
,,,,,,,,,,,,,,,,,,,,,,,,,,,,,,,,,,,,,,,,,,,,,,,,,,,,,,,,,,,,,,,,,,,,,,,,,,,,,,,,,,,,,,,,,,,,,,,,,,,,,,,,,,,,,,,,,,,,,,,,,5,0,5,0,,,,,,,,,,,,,None,j,6.72591209412,,,2017_Feb_03_1335,59.7246089133,spr_backupper,001,Mi18,
,Die,In,Ich,Wir,Als,Ihr,Wir,Walter,Die,Manche,Man,Mit,Im,Es,Sie,Man,Mit,Die,In,Er,Danach,Die,Bei,Fernab,Im,100,Dort,Die,Unter,Die,100,Wir,Bei,Sie,Sie,Die,Das,Er,Die,Die,Ich,Außer,In,Wir,Nicht,In,Er,Wir,Er,Jugendliche,Alle,In,Die,Es,Die,Viele,Am,Die,Es,Sie,In,Wir,Bei,Die,Am,Sie,Die,Der,Die,Bei,Ich,Außer,Wir,Die,Wir,Jetzt,Die,Dass,Sie,Dort,Es,Die,Außer,In,In,Wir,Jungtiere,Die,Beträchtliche,Die,Außer,Die,Viele,Beträchtliche,Nicht,Es,Sie,Er,,,,,,,,,,,,,,,,,,,,,,,6,0,6,0,0,0,0,0,,,,,,None,space,1.34067201614,,,,,,2017_Feb_03_1335,59.7246089133,spr_backupper,001,Mi18,
,Schuhe,den,wurde,haben,die,Blutdruck,mussten,Scheel,Lösung,Kreditnehmer,machte,dieser,Fernrohr,wurden,hatte,machte,dieser,Kinder,den,stellt,wurde,Linie,der,des,Fernrohr,g,türmen,müden,keinen,Teilnehmerinnen,g,haben,der,verbrauchen,verlassen,Gäste,Tuch,wurde,Uhr,Gäste,nehme,dem,meinem,übergaben,ein,der,stellt,konnten,wurde,können,Betten,meinem,Eislaufbahnen,hat,Uhr,Tonnen,äußersten,Formen,wurden,haben,diesem,hatten,unserer,Kinder,äußeren,verlassen,Schule,Flug,Autos,unserer,nehme,den,mussten,Stücke,hatten,ist,"Uhr,",es,hatte,türmen,waren,Uhr,dem,einer,der,übergaben,sollten,Schuhe,Stücke,Schule,das,Autos,Tonnen,Stücke,ein,waren,verbrauchen,hat,,,,,,,,,,,,,,,,,,,,,,,6,0,6,0,0,1,1,1,,,,,,,space,0.592952013016,,,,,,2017_Feb_03_1335,59.7246089133,spr_backupper,001,Mi18,
,in,Kakao,damals,jede,Sonne,kann,uns,war,wird,sind,mal,Methode,sahen,Eimer,keine,mal,Methode,fuhren,Kakao,die,die,101,Feier,Rummels,sahen,braunen,sich,Teilnehmer,Umständen,wussten,brauner,jede,Feier,60,wegen,suchen,wurde,trotz,war,suchen,eine,Bürgermeister,Studium,dem,Tropfen,Tat,die,dann,trotz,Kleidung,wurden,Studium,wurden,uns,schlug,gebrauchte,Rand,wurden,Eimer,die,Zirkus,in,Ankunft,fuhren,Rand,wegen,verbraucht,zum,beider,Ankunft,eine,Bürgermeister,uns,wurden,in,genau,die,"regnete,",keine,sich,nur,schlug,Essen,Studie,Tat,das,immer,in,saftiges,verbraucht,Essen,beider,gebrauchter,saftigen,Tropfen,nur,60,ein,,,,,,,,,,,,,,,,,,,,,,,6,0,6,0,0,2,2,2,,,,,,,space,0.750991106033,,,,,,2017_Feb_03_1335,59.7246089133,spr_backupper,001,Mi18,
,Größe,gehören,schnell,Menge,"unterging,",schon,durch,der,mit,mit,wieder,kann,wir,roter,Lust,wieder,kann,mit,gehören,Masse,Leinwand,hält,gedachte,wurde,wir,Zuckers,Berge,wurden,können,überwiegend,Zucker,Menge,gedachte,Liter,des,die,dann,dem,aus,die,große,beschuldigten,las,Mann,königliches,wissen,Masse,mit,des,bei,mit,habe,mit,die,"sporadisch,",Kleidung,der,unter,rote,Erlebnisse,werden,Dänemark,stand,mit,der,dem,260.000,Mond,beteiligten,stand,große,beschuldigten,durch,aus,Dänemark,die,er,hat,Lust,Berge,kleinere,"sporadisch,",kann,wurde,wissen,Auto,auf,Größe,Fleisch,260.000,kann,beteiligter,Kleidung,Fleischs,königlichen,kleinere,Liter,Hemd,,,,,,,,,,,,,,,,,,,,,,,6,0,6,0,0,3,3,3,,,,,,,space,0.662528991699,,,,,,2017_Feb_03_1335,59.7246089133,spr_backupper,001,Mi18,
,36,immer,dank,alten,war,bei,Büschel,vierte,"reichlichem,","sämtlichem,",viel,man,den,Farbe,auf,viel,man,solchen,immer,mit,aus,nicht,man,schon,den,sind,schmutziger,mit,Neuwahlen,"nicht,",sind,alten,man,sprudelnden,schönen,Wohnung,mit,bekannten,"Japan,",Wohnung,Packung,die,ich,das,Blut,wir,mit,"minimalem,",bekannten,ausreichendem,"üblichem,",ich,dauerhaftem,Stimmung,obwohl,landen,Stadt,"regelmäßigem,",Farbe,bei,die,gelegentlich,ein,solch,Stadt,schönen,Kilowattstunden,dauerte,Fahrer,ein,Packung,die,Büschel,"wertvollem,",einen,richtige,"trug,",uns,auf,schmutzige,"Delikte,",obschon,ich,jetzt,wir,dem,warmem,36,wurden,Kilowattstunden,ich,Fahrer,landen,wurden,Bluts,"Delikte,",sprudelndes,aus,,,,,,,,,,,,,,,,,,,,,,,6,0,6,0,0,4,4,4,,,,,,,space,1.09324717522,,,,,,2017_Feb_03_1335,59.7246089133,spr_backupper,001,Mi18,
,hätten,350,täglichem,Krams,die,minimalem,frischen,Bundespräsident.,purem,künftigem,Lärm,eine,roten,geschleudert.,noch,Lärm,eine,unzureichenden,350,einem,seltenem,am,den,immer,roten,auf,Wäsche.,zusätzlichem,vor,was,auf,Kram,der,Trinkwassers.,Wetters,des,"reichem,",Skandal,die,des,salzige,Störenfriede,mehr,Auto,hat,um,einem,sauberen,Skandals,monatlichem,harten,mehr,feinem,ziemlich,sie,im,liegen,kaltem,geschleudert.,"frischem,",Tiere,einen,Glas,unzureichenden,liegen,Wetter,elektrischer,ungefähr,wurden,Glas,salziger,Störenfriede,frisches,klassischen,gelegentlichen,"Zeit,",war,die,noch,Wäsche.,deren,sie,leider,"nachgewiesen,",von,Mann,weichem,würden,serviert.,elektrische,leider,wurden,im,serviert.,hat,derer,Trinkwasser.,feinem,,,,,,,,,,,,,,,,,,,,,,,6,0,6,0,0,5,5,5,,,,,,,space,1.12440180779,,,,,,2017_Feb_03_1335,59.7246089133,spr_backupper,001,Mi18,
,seiner,ml,grünen,aus,Flut,täglichen,Grases,nan,Alkohol,Einkommen,um,große,Planeten,nan,eine,um,große,Helmen,ml,Esslöffel,dichten,Hauptbahnhof.,Soldaten,ruhig,Planet,jeden,nan,schwarzem,Dezember,Tupperware,jeden,aus,Soldaten,nan,die,Herrn,goldenen,wiedergewählt.,er,Herrn,Wurst,jeden.,als,mehr,den,die,Esslöffel,Kraftstoff,wiedergewählt.,Taschengeld,Schaumstoff,als,Kunsteis,"vermiest,",defekt,Müll.,die,Abduschen,nan,kaltem,artgerecht,Besucher.,köstlicher,Helmen,die,die,Energie.,drei,verschrottet.,köstlichen,Wurst,jeden.,Gras,Schmuck,Besucher.,um,aus,Stimmung,eine,nan,sie,defekt,nichts,dass,den,mehr,Untergrund,seiner,nan,Energie.,nichts,verschrottet.,Müll.,nan,den,sie,nan,dichten,,,,,,,,,,,,,,,,,,,,,,,6,0,6,0,0,6,6,6,,,,,,,space,1.29593992233,,,,,,2017_Feb_03_1335,59.7246089133,spr_backupper,001,Mi18,
,Frau,warmer,Tee,dem,zurückgekehrt.,Einsatz,zwängen.,nan,verdünnt.,haftbar.,jede,Menge,ganz,nan,Sammlung,jede,Menge,zur,warme,warmen,Gewebe,nan,des,diskutiert.,ganz,Fall,nan,Kaffee,stattfinden.,ist.,Fall,dem,des,nan,Wohnung.,Gantenbeins.,Besatz,nan,trug.,Gantenbein.,mit,nan,einmal,als,Boden,Probleme,warmem,fahren.,nan,selber,gefertigt.,einmal,eingesprüht.,dass,war.,nan,Slums.,gehärtet.,nan,Saft,gehalten.,nan,Wein,zur,Slums.,Wohnung.,nan,Tage.,nan,Weins,mit,nan,zwängen.,umgearbeitet.,nan,Nadelhölzer,Japan.,ziemlich,Sammlung,nan,überführt,war.,mitbringen.,das,Problemen,als,liegen.,Frau,nan,nan,mitbringen.,nan,nan,nan,Boden,überführt,nan,Stoff,,,,,,,,,,,,,,,,,,,,,,,6,0,6,0,0,7,7,7,,,,,,,space,1.03938817978,,,,,,2017_Feb_03_1335,59.7246089133,spr_backupper,001,Mi18,
,,,,,,,,,,,,,,,,,,,,,,,,,,,,,,,,,,,,,,,,,,,,,,,,,,,,,,,,,,,,,,,,,,,,,,,,,,,,,,,,,,,,,,,,,,,,,,,,,,,,,,,,,,,,,,,,,,,,,,,,,6,0,6,0,,,,,,,,,,,,,None,j,3.17058086395,,,2017_Feb_03_1335,59.7246089133,spr_backupper,001,Mi18,
,Die,In,Ich,Wir,Als,Ihr,Wir,Walter,Die,Manche,Man,Mit,Im,Es,Sie,Man,Mit,Die,In,Er,Danach,Die,Bei,Fernab,Im,100,Dort,Die,Unter,Die,100,Wir,Bei,Sie,Sie,Die,Das,Er,Die,Die,Ich,Außer,In,Wir,Nicht,In,Er,Wir,Er,Jugendliche,Alle,In,Die,Es,Die,Viele,Am,Die,Es,Sie,In,Wir,Bei,Die,Am,Sie,Die,Der,Die,Bei,Ich,Außer,Wir,Die,Wir,Jetzt,Die,Dass,Sie,Dort,Es,Die,Außer,In,In,Wir,Jungtiere,Die,Beträchtliche,Die,Außer,Die,Viele,Beträchtliche,Nicht,Es,Sie,Er,,,,,,,,,,,,,,,,,,,,,,,7,0,7,0,0,0,0,0,,,,,,None,space,0.842391014099,,,,,,2017_Feb_03_1335,59.7246089133,spr_backupper,001,Mi18,
,Schuhe,den,wurde,haben,die,Blutdruck,mussten,Scheel,Lösung,Kreditnehmer,machte,dieser,Fernrohr,wurden,hatte,machte,dieser,Kinder,den,stellt,wurde,Linie,der,des,Fernrohr,g,türmen,müden,keinen,Teilnehmerinnen,g,haben,der,verbrauchen,verlassen,Gäste,Tuch,wurde,Uhr,Gäste,nehme,dem,meinem,übergaben,ein,der,stellt,konnten,wurde,können,Betten,meinem,Eislaufbahnen,hat,Uhr,Tonnen,äußersten,Formen,wurden,haben,diesem,hatten,unserer,Kinder,äußeren,verlassen,Schule,Flug,Autos,unserer,nehme,den,mussten,Stücke,hatten,ist,"Uhr,",es,hatte,türmen,waren,Uhr,dem,einer,der,übergaben,sollten,Schuhe,Stücke,Schule,das,Autos,Tonnen,Stücke,ein,waren,verbrauchen,hat,,,,,,,,,,,,,,,,,,,,,,,7,0,7,0,0,1,1,1,,,,,,,space,0.772155046463,,,,,,2017_Feb_03_1335,59.7246089133,spr_backupper,001,Mi18,
,in,Kakao,damals,jede,Sonne,kann,uns,war,wird,sind,mal,Methode,sahen,Eimer,keine,mal,Methode,fuhren,Kakao,die,die,101,Feier,Rummels,sahen,braunen,sich,Teilnehmer,Umständen,wussten,brauner,jede,Feier,60,wegen,suchen,wurde,trotz,war,suchen,eine,Bürgermeister,Studium,dem,Tropfen,Tat,die,dann,trotz,Kleidung,wurden,Studium,wurden,uns,schlug,gebrauchte,Rand,wurden,Eimer,die,Zirkus,in,Ankunft,fuhren,Rand,wegen,verbraucht,zum,beider,Ankunft,eine,Bürgermeister,uns,wurden,in,genau,die,"regnete,",keine,sich,nur,schlug,Essen,Studie,Tat,das,immer,in,saftiges,verbraucht,Essen,beider,gebrauchter,saftigen,Tropfen,nur,60,ein,,,,,,,,,,,,,,,,,,,,,,,7,0,7,0,0,2,2,2,,,,,,,space,0.754497051239,,,,,,2017_Feb_03_1335,59.7246089133,spr_backupper,001,Mi18,
,Größe,gehören,schnell,Menge,"unterging,",schon,durch,der,mit,mit,wieder,kann,wir,roter,Lust,wieder,kann,mit,gehören,Masse,Leinwand,hält,gedachte,wurde,wir,Zuckers,Berge,wurden,können,überwiegend,Zucker,Menge,gedachte,Liter,des,die,dann,dem,aus,die,große,beschuldigten,las,Mann,königliches,wissen,Masse,mit,des,bei,mit,habe,mit,die,"sporadisch,",Kleidung,der,unter,rote,Erlebnisse,werden,Dänemark,stand,mit,der,dem,260.000,Mond,beteiligten,stand,große,beschuldigten,durch,aus,Dänemark,die,er,hat,Lust,Berge,kleinere,"sporadisch,",kann,wurde,wissen,Auto,auf,Größe,Fleisch,260.000,kann,beteiligter,Kleidung,Fleischs,königlichen,kleinere,Liter,Hemd,,,,,,,,,,,,,,,,,,,,,,,7,0,7,0,0,3,3,3,,,,,,,space,0.956466913223,,,,,,2017_Feb_03_1335,59.7246089133,spr_backupper,001,Mi18,
,36,immer,dank,alten,war,bei,Büschel,vierte,"reichlichem,","sämtlichem,",viel,man,den,Farbe,auf,viel,man,solchen,immer,mit,aus,nicht,man,schon,den,sind,schmutziger,mit,Neuwahlen,"nicht,",sind,alten,man,sprudelnden,schönen,Wohnung,mit,bekannten,"Japan,",Wohnung,Packung,die,ich,das,Blut,wir,mit,"minimalem,",bekannten,ausreichendem,"üblichem,",ich,dauerhaftem,Stimmung,obwohl,landen,Stadt,"regelmäßigem,",Farbe,bei,die,gelegentlich,ein,solch,Stadt,schönen,Kilowattstunden,dauerte,Fahrer,ein,Packung,die,Büschel,"wertvollem,",einen,richtige,"trug,",uns,auf,schmutzige,"Delikte,",obschon,ich,jetzt,wir,dem,warmem,36,wurden,Kilowattstunden,ich,Fahrer,landen,wurden,Bluts,"Delikte,",sprudelndes,aus,,,,,,,,,,,,,,,,,,,,,,,7,0,7,0,0,4,4,4,,,,,,,space,0.872946977615,,,,,,2017_Feb_03_1335,59.7246089133,spr_backupper,001,Mi18,
,hätten,350,täglichem,Krams,die,minimalem,frischen,Bundespräsident.,purem,künftigem,Lärm,eine,roten,geschleudert.,noch,Lärm,eine,unzureichenden,350,einem,seltenem,am,den,immer,roten,auf,Wäsche.,zusätzlichem,vor,was,auf,Kram,der,Trinkwassers.,Wetters,des,"reichem,",Skandal,die,des,salzige,Störenfriede,mehr,Auto,hat,um,einem,sauberen,Skandals,monatlichem,harten,mehr,feinem,ziemlich,sie,im,liegen,kaltem,geschleudert.,"frischem,",Tiere,einen,Glas,unzureichenden,liegen,Wetter,elektrischer,ungefähr,wurden,Glas,salziger,Störenfriede,frisches,klassischen,gelegentlichen,"Zeit,",war,die,noch,Wäsche.,deren,sie,leider,"nachgewiesen,",von,Mann,weichem,würden,serviert.,elektrische,leider,wurden,im,serviert.,hat,derer,Trinkwasser.,feinem,,,,,,,,,,,,,,,,,,,,,,,7,0,7,0,0,5,5,5,,,,,,,space,0.912023067474,,,,,,2017_Feb_03_1335,59.7246089133,spr_backupper,001,Mi18,
,seiner,ml,grünen,aus,Flut,täglichen,Grases,nan,Alkohol,Einkommen,um,große,Planeten,nan,eine,um,große,Helmen,ml,Esslöffel,dichten,Hauptbahnhof.,Soldaten,ruhig,Planet,jeden,nan,schwarzem,Dezember,Tupperware,jeden,aus,Soldaten,nan,die,Herrn,goldenen,wiedergewählt.,er,Herrn,Wurst,jeden.,als,mehr,den,die,Esslöffel,Kraftstoff,wiedergewählt.,Taschengeld,Schaumstoff,als,Kunsteis,"vermiest,",defekt,Müll.,die,Abduschen,nan,kaltem,artgerecht,Besucher.,köstlicher,Helmen,die,die,Energie.,drei,verschrottet.,köstlichen,Wurst,jeden.,Gras,Schmuck,Besucher.,um,aus,Stimmung,eine,nan,sie,defekt,nichts,dass,den,mehr,Untergrund,seiner,nan,Energie.,nichts,verschrottet.,Müll.,nan,den,sie,nan,dichten,,,,,,,,,,,,,,,,,,,,,,,7,0,7,0,0,6,6,6,,,,,,,space,0.81481385231,,,,,,2017_Feb_03_1335,59.7246089133,spr_backupper,001,Mi18,
,Frau,warmer,Tee,dem,zurückgekehrt.,Einsatz,zwängen.,nan,verdünnt.,haftbar.,jede,Menge,ganz,nan,Sammlung,jede,Menge,zur,warme,warmen,Gewebe,nan,des,diskutiert.,ganz,Fall,nan,Kaffee,stattfinden.,ist.,Fall,dem,des,nan,Wohnung.,Gantenbeins.,Besatz,nan,trug.,Gantenbein.,mit,nan,einmal,als,Boden,Probleme,warmem,fahren.,nan,selber,gefertigt.,einmal,eingesprüht.,dass,war.,nan,Slums.,gehärtet.,nan,Saft,gehalten.,nan,Wein,zur,Slums.,Wohnung.,nan,Tage.,nan,Weins,mit,nan,zwängen.,umgearbeitet.,nan,Nadelhölzer,Japan.,ziemlich,Sammlung,nan,überführt,war.,mitbringen.,das,Problemen,als,liegen.,Frau,nan,nan,mitbringen.,nan,nan,nan,Boden,überführt,nan,Stoff,,,,,,,,,,,,,,,,,,,,,,,7,0,7,0,0,7,7,7,,,,,,,space,0.81240606308,,,,,,2017_Feb_03_1335,59.7246089133,spr_backupper,001,Mi18,
,gepasst.,Milch.,wieder,Haus,nan,sinken.,nan,nan,nan,nan,Menge,dunkler,deutlich.,nan,dumme,Menge,dunkle,Schule.,Milch.,Honigs,wiederhergestellt.,nan,zweiten,nan,deutlich.,genug.,nan,wiederbelebt.,nan,nan,genug.,Haus,zweiten,nan,nan,nan,rekonstruiert.,nan,nan,nan,an,nan,Rilke.,gerne.,berührt.,im,Honig,nan,nan,kaufen.,nan,Rilke,nan,es,nan,nan,nan,nan,nan,besprochen.,nan,nan,schon,Schule.,nan,nan,nan,nan,nan,schon,an,nan,nan,nan,nan,umzusetzen.,nan,vermiest.,dummer,nan,wurden.,nan,nan,Medikament,im,gerne.,nan,gepasst,nan,nan,nan,nan,nan,nan,berührt.,wurden.,nan,gefertigt.,,,,,,,,,,,,,,,,,,,,,,,7,0,7,0,0,8,8,8,,,,,,,space,0.828088998795,,,,,,2017_Feb_03_1335,59.7246089133,spr_backupper,001,Mi18,
,nan,nan,fit.,geschafft.,nan,nan,nan,nan,nan,nan,heiße,Materie,nan,nan,Sprüche.,heißer,Materie,nan,nan,her.,nan,nan,Weltkriegs.,nan,nan,nan,nan,nan,nan,nan,nan,geschafft.,Weltkriegs.,nan,nan,nan,nan,nan,nan,nan,den,nan,nan,nan,nan,Landkreis.,her.,nan,nan,nan,nan,gelesen.,nan,regnete.,nan,nan,nan,nan,nan,nan,nan,nan,auf,nan,nan,nan,nan,nan,nan,auf,den,nan,nan,nan,nan,nan,nan,nan,Sprüche.,nan,nan,nan,nan,nicht,Landkreis.,nan,nan,haben.,nan,nan,nan,nan,nan,nan,nan,nan,nan,nan,,,,,,,,,,,,,,,,,,,,,,,7,0,7,0,0,9,9,9,,,,,,,space,1.87275600433,,,,,,2017_Feb_03_1335,59.7246089133,spr_backupper,001,Mi18,
,,,,,,,,,,,,,,,,,,,,,,,,,,,,,,,,,,,,,,,,,,,,,,,,,,,,,,,,,,,,,,,,,,,,,,,,,,,,,,,,,,,,,,,,,,,,,,,,,,,,,,,,,,,,,,,,,,,,,,,,,7,0,7,0,,,,,,,,,,,,,None,n,2.78797197342,,,2017_Feb_03_1335,59.7246089133,spr_backupper,001,Mi18,
,Die,In,Ich,Wir,Als,Ihr,Wir,Walter,Die,Manche,Man,Mit,Im,Es,Sie,Man,Mit,Die,In,Er,Danach,Die,Bei,Fernab,Im,100,Dort,Die,Unter,Die,100,Wir,Bei,Sie,Sie,Die,Das,Er,Die,Die,Ich,Außer,In,Wir,Nicht,In,Er,Wir,Er,Jugendliche,Alle,In,Die,Es,Die,Viele,Am,Die,Es,Sie,In,Wir,Bei,Die,Am,Sie,Die,Der,Die,Bei,Ich,Außer,Wir,Die,Wir,Jetzt,Die,Dass,Sie,Dort,Es,Die,Außer,In,In,Wir,Jungtiere,Die,Beträchtliche,Die,Außer,Die,Viele,Beträchtliche,Nicht,Es,Sie,Er,,,,,,,,,,,,,,,,,,,,,,,8,0,8,0,0,0,0,0,,,,,,None,space,0.0236239433289,,,,,,2017_Feb_03_1335,59.7246089133,spr_backupper,001,Mi18,
,Schuhe,den,wurde,haben,die,Blutdruck,mussten,Scheel,Lösung,Kreditnehmer,machte,dieser,Fernrohr,wurden,hatte,machte,dieser,Kinder,den,stellt,wurde,Linie,der,des,Fernrohr,g,türmen,müden,keinen,Teilnehmerinnen,g,haben,der,verbrauchen,verlassen,Gäste,Tuch,wurde,Uhr,Gäste,nehme,dem,meinem,übergaben,ein,der,stellt,konnten,wurde,können,Betten,meinem,Eislaufbahnen,hat,Uhr,Tonnen,äußersten,Formen,wurden,haben,diesem,hatten,unserer,Kinder,äußeren,verlassen,Schule,Flug,Autos,unserer,nehme,den,mussten,Stücke,hatten,ist,"Uhr,",es,hatte,türmen,waren,Uhr,dem,einer,der,übergaben,sollten,Schuhe,Stücke,Schule,das,Autos,Tonnen,Stücke,ein,waren,verbrauchen,hat,,,,,,,,,,,,,,,,,,,,,,,8,0,8,0,0,1,1,1,,,,,,,space,2.78477907181,,,,,,2017_Feb_03_1335,59.7246089133,spr_backupper,001,Mi18,
,in,Kakao,damals,jede,Sonne,kann,uns,war,wird,sind,mal,Methode,sahen,Eimer,keine,mal,Methode,fuhren,Kakao,die,die,101,Feier,Rummels,sahen,braunen,sich,Teilnehmer,Umständen,wussten,brauner,jede,Feier,60,wegen,suchen,wurde,trotz,war,suchen,eine,Bürgermeister,Studium,dem,Tropfen,Tat,die,dann,trotz,Kleidung,wurden,Studium,wurden,uns,schlug,gebrauchte,Rand,wurden,Eimer,die,Zirkus,in,Ankunft,fuhren,Rand,wegen,verbraucht,zum,beider,Ankunft,eine,Bürgermeister,uns,wurden,in,genau,die,"regnete,",keine,sich,nur,schlug,Essen,Studie,Tat,das,immer,in,saftiges,verbraucht,Essen,beider,gebrauchter,saftigen,Tropfen,nur,60,ein,,,,,,,,,,,,,,,,,,,,,,,8,0,8,0,0,2,2,2,,,,,,,space,1.09555912018,,,,,,2017_Feb_03_1335,59.7246089133,spr_backupper,001,Mi18,
,Größe,gehören,schnell,Menge,"unterging,",schon,durch,der,mit,mit,wieder,kann,wir,roter,Lust,wieder,kann,mit,gehören,Masse,Leinwand,hält,gedachte,wurde,wir,Zuckers,Berge,wurden,können,überwiegend,Zucker,Menge,gedachte,Liter,des,die,dann,dem,aus,die,große,beschuldigten,las,Mann,königliches,wissen,Masse,mit,des,bei,mit,habe,mit,die,"sporadisch,",Kleidung,der,unter,rote,Erlebnisse,werden,Dänemark,stand,mit,der,dem,260.000,Mond,beteiligten,stand,große,beschuldigten,durch,aus,Dänemark,die,er,hat,Lust,Berge,kleinere,"sporadisch,",kann,wurde,wissen,Auto,auf,Größe,Fleisch,260.000,kann,beteiligter,Kleidung,Fleischs,königlichen,kleinere,Liter,Hemd,,,,,,,,,,,,,,,,,,,,,,,8,0,8,0,0,3,3,3,,,,,,,space,2.88209986687,,,,,,2017_Feb_03_1335,59.7246089133,spr_backupper,001,Mi18,
,36,immer,dank,alten,war,bei,Büschel,vierte,"reichlichem,","sämtlichem,",viel,man,den,Farbe,auf,viel,man,solchen,immer,mit,aus,nicht,man,schon,den,sind,schmutziger,mit,Neuwahlen,"nicht,",sind,alten,man,sprudelnden,schönen,Wohnung,mit,bekannten,"Japan,",Wohnung,Packung,die,ich,das,Blut,wir,mit,"minimalem,",bekannten,ausreichendem,"üblichem,",ich,dauerhaftem,Stimmung,obwohl,landen,Stadt,"regelmäßigem,",Farbe,bei,die,gelegentlich,ein,solch,Stadt,schönen,Kilowattstunden,dauerte,Fahrer,ein,Packung,die,Büschel,"wertvollem,",einen,richtige,"trug,",uns,auf,schmutzige,"Delikte,",obschon,ich,jetzt,wir,dem,warmem,36,wurden,Kilowattstunden,ich,Fahrer,landen,wurden,Bluts,"Delikte,",sprudelndes,aus,,,,,,,,,,,,,,,,,,,,,,,8,0,8,0,0,4,4,4,,,,,,,space,0.928519964218,,,,,,2017_Feb_03_1335,59.7246089133,spr_backupper,001,Mi18,
,hätten,350,täglichem,Krams,die,minimalem,frischen,Bundespräsident.,purem,künftigem,Lärm,eine,roten,geschleudert.,noch,Lärm,eine,unzureichenden,350,einem,seltenem,am,den,immer,roten,auf,Wäsche.,zusätzlichem,vor,was,auf,Kram,der,Trinkwassers.,Wetters,des,"reichem,",Skandal,die,des,salzige,Störenfriede,mehr,Auto,hat,um,einem,sauberen,Skandals,monatlichem,harten,mehr,feinem,ziemlich,sie,im,liegen,kaltem,geschleudert.,"frischem,",Tiere,einen,Glas,unzureichenden,liegen,Wetter,elektrischer,ungefähr,wurden,Glas,salziger,Störenfriede,frisches,klassischen,gelegentlichen,"Zeit,",war,die,noch,Wäsche.,deren,sie,leider,"nachgewiesen,",von,Mann,weichem,würden,serviert.,elektrische,leider,wurden,im,serviert.,hat,derer,Trinkwasser.,feinem,,,,,,,,,,,,,,,,,,,,,,,8,0,8,0,0,5,5,5,,,,,,,space,0.907051086426,,,,,,2017_Feb_03_1335,59.7246089133,spr_backupper,001,Mi18,
,seiner,ml,grünen,aus,Flut,täglichen,Grases,nan,Alkohol,Einkommen,um,große,Planeten,nan,eine,um,große,Helmen,ml,Esslöffel,dichten,Hauptbahnhof.,Soldaten,ruhig,Planet,jeden,nan,schwarzem,Dezember,Tupperware,jeden,aus,Soldaten,nan,die,Herrn,goldenen,wiedergewählt.,er,Herrn,Wurst,jeden.,als,mehr,den,die,Esslöffel,Kraftstoff,wiedergewählt.,Taschengeld,Schaumstoff,als,Kunsteis,"vermiest,",defekt,Müll.,die,Abduschen,nan,kaltem,artgerecht,Besucher.,köstlicher,Helmen,die,die,Energie.,drei,verschrottet.,köstlichen,Wurst,jeden.,Gras,Schmuck,Besucher.,um,aus,Stimmung,eine,nan,sie,defekt,nichts,dass,den,mehr,Untergrund,seiner,nan,Energie.,nichts,verschrottet.,Müll.,nan,den,sie,nan,dichten,,,,,,,,,,,,,,,,,,,,,,,8,0,8,0,0,6,6,6,,,,,,,space,0.828002929688,,,,,,2017_Feb_03_1335,59.7246089133,spr_backupper,001,Mi18,
,Frau,warmer,Tee,dem,zurückgekehrt.,Einsatz,zwängen.,nan,verdünnt.,haftbar.,jede,Menge,ganz,nan,Sammlung,jede,Menge,zur,warme,warmen,Gewebe,nan,des,diskutiert.,ganz,Fall,nan,Kaffee,stattfinden.,ist.,Fall,dem,des,nan,Wohnung.,Gantenbeins.,Besatz,nan,trug.,Gantenbein.,mit,nan,einmal,als,Boden,Probleme,warmem,fahren.,nan,selber,gefertigt.,einmal,eingesprüht.,dass,war.,nan,Slums.,gehärtet.,nan,Saft,gehalten.,nan,Wein,zur,Slums.,Wohnung.,nan,Tage.,nan,Weins,mit,nan,zwängen.,umgearbeitet.,nan,Nadelhölzer,Japan.,ziemlich,Sammlung,nan,überführt,war.,mitbringen.,das,Problemen,als,liegen.,Frau,nan,nan,mitbringen.,nan,nan,nan,Boden,überführt,nan,Stoff,,,,,,,,,,,,,,,,,,,,,,,8,0,8,0,0,7,7,7,,,,,,,space,0.871767044067,,,,,,2017_Feb_03_1335,59.7246089133,spr_backupper,001,Mi18,
,gepasst.,Milch.,wieder,Haus,nan,sinken.,nan,nan,nan,nan,Menge,dunkler,deutlich.,nan,dumme,Menge,dunkle,Schule.,Milch.,Honigs,wiederhergestellt.,nan,zweiten,nan,deutlich.,genug.,nan,wiederbelebt.,nan,nan,genug.,Haus,zweiten,nan,nan,nan,rekonstruiert.,nan,nan,nan,an,nan,Rilke.,gerne.,berührt.,im,Honig,nan,nan,kaufen.,nan,Rilke,nan,es,nan,nan,nan,nan,nan,besprochen.,nan,nan,schon,Schule.,nan,nan,nan,nan,nan,schon,an,nan,nan,nan,nan,umzusetzen.,nan,vermiest.,dummer,nan,wurden.,nan,nan,Medikament,im,gerne.,nan,gepasst,nan,nan,nan,nan,nan,nan,berührt.,wurden.,nan,gefertigt.,,,,,,,,,,,,,,,,,,,,,,,8,0,8,0,0,8,8,8,,,,,,,space,2.66796994209,,,,,,2017_Feb_03_1335,59.7246089133,spr_backupper,001,Mi18,
,,,,,,,,,,,,,,,,,,,,,,,,,,,,,,,,,,,,,,,,,,,,,,,,,,,,,,,,,,,,,,,,,,,,,,,,,,,,,,,,,,,,,,,,,,,,,,,,,,,,,,,,,,,,,,,,,,,,,,,,,8,0,8,0,,,,,,,,,,,,,left,n,11.6537659168,,0.000182867050171,2017_Feb_03_1335,59.7246089133,spr_backupper,001,Mi18,
,Die,In,Ich,Wir,Als,Ihr,Wir,Walter,Die,Manche,Man,Mit,Im,Es,Sie,Man,Mit,Die,In,Er,Danach,Die,Bei,Fernab,Im,100,Dort,Die,Unter,Die,100,Wir,Bei,Sie,Sie,Die,Das,Er,Die,Die,Ich,Außer,In,Wir,Nicht,In,Er,Wir,Er,Jugendliche,Alle,In,Die,Es,Die,Viele,Am,Die,Es,Sie,In,Wir,Bei,Die,Am,Sie,Die,Der,Die,Bei,Ich,Außer,Wir,Die,Wir,Jetzt,Die,Dass,Sie,Dort,Es,Die,Außer,In,In,Wir,Jungtiere,Die,Beträchtliche,Die,Außer,Die,Viele,Beträchtliche,Nicht,Es,Sie,Er,,,,,,,,,,,,,,,,,,,,,,,9,0,9,0,0,0,0,0,,,,,,space,space,0.755789041519,,,,1.22403597832,,2017_Feb_03_1335,59.7246089133,spr_backupper,001,Mi18,
,Schuhe,den,wurde,haben,die,Blutdruck,mussten,Scheel,Lösung,Kreditnehmer,machte,dieser,Fernrohr,wurden,hatte,machte,dieser,Kinder,den,stellt,wurde,Linie,der,des,Fernrohr,g,türmen,müden,keinen,Teilnehmerinnen,g,haben,der,verbrauchen,verlassen,Gäste,Tuch,wurde,Uhr,Gäste,nehme,dem,meinem,übergaben,ein,der,stellt,konnten,wurde,können,Betten,meinem,Eislaufbahnen,hat,Uhr,Tonnen,äußersten,Formen,wurden,haben,diesem,hatten,unserer,Kinder,äußeren,verlassen,Schule,Flug,Autos,unserer,nehme,den,mussten,Stücke,hatten,ist,"Uhr,",es,hatte,türmen,waren,Uhr,dem,einer,der,übergaben,sollten,Schuhe,Stücke,Schule,das,Autos,Tonnen,Stücke,ein,waren,verbrauchen,hat,,,,,,,,,,,,,,,,,,,,,,,9,0,9,0,0,1,1,1,,,,,,,space,0.628856897354,,,,,,2017_Feb_03_1335,59.7246089133,spr_backupper,001,Mi18,
,in,Kakao,damals,jede,Sonne,kann,uns,war,wird,sind,mal,Methode,sahen,Eimer,keine,mal,Methode,fuhren,Kakao,die,die,101,Feier,Rummels,sahen,braunen,sich,Teilnehmer,Umständen,wussten,brauner,jede,Feier,60,wegen,suchen,wurde,trotz,war,suchen,eine,Bürgermeister,Studium,dem,Tropfen,Tat,die,dann,trotz,Kleidung,wurden,Studium,wurden,uns,schlug,gebrauchte,Rand,wurden,Eimer,die,Zirkus,in,Ankunft,fuhren,Rand,wegen,verbraucht,zum,beider,Ankunft,eine,Bürgermeister,uns,wurden,in,genau,die,"regnete,",keine,sich,nur,schlug,Essen,Studie,Tat,das,immer,in,saftiges,verbraucht,Essen,beider,gebrauchter,saftigen,Tropfen,nur,60,ein,,,,,,,,,,,,,,,,,,,,,,,9,0,9,0,0,2,2,2,,,,,,,space,0.885441064835,,,,,,2017_Feb_03_1335,59.7246089133,spr_backupper,001,Mi18,
,Größe,gehören,schnell,Menge,"unterging,",schon,durch,der,mit,mit,wieder,kann,wir,roter,Lust,wieder,kann,mit,gehören,Masse,Leinwand,hält,gedachte,wurde,wir,Zuckers,Berge,wurden,können,überwiegend,Zucker,Menge,gedachte,Liter,des,die,dann,dem,aus,die,große,beschuldigten,las,Mann,königliches,wissen,Masse,mit,des,bei,mit,habe,mit,die,"sporadisch,",Kleidung,der,unter,rote,Erlebnisse,werden,Dänemark,stand,mit,der,dem,260.000,Mond,beteiligten,stand,große,beschuldigten,durch,aus,Dänemark,die,er,hat,Lust,Berge,kleinere,"sporadisch,",kann,wurde,wissen,Auto,auf,Größe,Fleisch,260.000,kann,beteiligter,Kleidung,Fleischs,königlichen,kleinere,Liter,Hemd,,,,,,,,,,,,,,,,,,,,,,,9,0,9,0,0,3,3,3,,,,,,,space,0.750949859619,,,,,,2017_Feb_03_1335,59.7246089133,spr_backupper,001,Mi18,
,36,immer,dank,alten,war,bei,Büschel,vierte,"reichlichem,","sämtlichem,",viel,man,den,Farbe,auf,viel,man,solchen,immer,mit,aus,nicht,man,schon,den,sind,schmutziger,mit,Neuwahlen,"nicht,",sind,alten,man,sprudelnden,schönen,Wohnung,mit,bekannten,"Japan,",Wohnung,Packung,die,ich,das,Blut,wir,mit,"minimalem,",bekannten,ausreichendem,"üblichem,",ich,dauerhaftem,Stimmung,obwohl,landen,Stadt,"regelmäßigem,",Farbe,bei,die,gelegentlich,ein,solch,Stadt,schönen,Kilowattstunden,dauerte,Fahrer,ein,Packung,die,Büschel,"wertvollem,",einen,richtige,"trug,",uns,auf,schmutzige,"Delikte,",obschon,ich,jetzt,wir,dem,warmem,36,wurden,Kilowattstunden,ich,Fahrer,landen,wurden,Bluts,"Delikte,",sprudelndes,aus,,,,,,,,,,,,,,,,,,,,,,,9,0,9,0,0,4,4,4,,,,,,,space,0.692232847214,,,,,,2017_Feb_03_1335,59.7246089133,spr_backupper,001,Mi18,
,hätten,350,täglichem,Krams,die,minimalem,frischen,Bundespräsident.,purem,künftigem,Lärm,eine,roten,geschleudert.,noch,Lärm,eine,unzureichenden,350,einem,seltenem,am,den,immer,roten,auf,Wäsche.,zusätzlichem,vor,was,auf,Kram,der,Trinkwassers.,Wetters,des,"reichem,",Skandal,die,des,salzige,Störenfriede,mehr,Auto,hat,um,einem,sauberen,Skandals,monatlichem,harten,mehr,feinem,ziemlich,sie,im,liegen,kaltem,geschleudert.,"frischem,",Tiere,einen,Glas,unzureichenden,liegen,Wetter,elektrischer,ungefähr,wurden,Glas,salziger,Störenfriede,frisches,klassischen,gelegentlichen,"Zeit,",war,die,noch,Wäsche.,deren,sie,leider,"nachgewiesen,",von,Mann,weichem,würden,serviert.,elektrische,leider,wurden,im,serviert.,hat,derer,Trinkwasser.,feinem,,,,,,,,,,,,,,,,,,,,,,,9,0,9,0,0,5,5,5,,,,,,,space,0.671797037125,,,,,,2017_Feb_03_1335,59.7246089133,spr_backupper,001,Mi18,
,seiner,ml,grünen,aus,Flut,täglichen,Grases,nan,Alkohol,Einkommen,um,große,Planeten,nan,eine,um,große,Helmen,ml,Esslöffel,dichten,Hauptbahnhof.,Soldaten,ruhig,Planet,jeden,nan,schwarzem,Dezember,Tupperware,jeden,aus,Soldaten,nan,die,Herrn,goldenen,wiedergewählt.,er,Herrn,Wurst,jeden.,als,mehr,den,die,Esslöffel,Kraftstoff,wiedergewählt.,Taschengeld,Schaumstoff,als,Kunsteis,"vermiest,",defekt,Müll.,die,Abduschen,nan,kaltem,artgerecht,Besucher.,köstlicher,Helmen,die,die,Energie.,drei,verschrottet.,köstlichen,Wurst,jeden.,Gras,Schmuck,Besucher.,um,aus,Stimmung,eine,nan,sie,defekt,nichts,dass,den,mehr,Untergrund,seiner,nan,Energie.,nichts,verschrottet.,Müll.,nan,den,sie,nan,dichten,,,,,,,,,,,,,,,,,,,,,,,9,0,9,0,0,6,6,6,,,,,,,space,0.760442018509,,,,,,2017_Feb_03_1335,59.7246089133,spr_backupper,001,Mi18,
,Frau,warmer,Tee,dem,zurückgekehrt.,Einsatz,zwängen.,nan,verdünnt.,haftbar.,jede,Menge,ganz,nan,Sammlung,jede,Menge,zur,warme,warmen,Gewebe,nan,des,diskutiert.,ganz,Fall,nan,Kaffee,stattfinden.,ist.,Fall,dem,des,nan,Wohnung.,Gantenbeins.,Besatz,nan,trug.,Gantenbein.,mit,nan,einmal,als,Boden,Probleme,warmem,fahren.,nan,selber,gefertigt.,einmal,eingesprüht.,dass,war.,nan,Slums.,gehärtet.,nan,Saft,gehalten.,nan,Wein,zur,Slums.,Wohnung.,nan,Tage.,nan,Weins,mit,nan,zwängen.,umgearbeitet.,nan,Nadelhölzer,Japan.,ziemlich,Sammlung,nan,überführt,war.,mitbringen.,das,Problemen,als,liegen.,Frau,nan,nan,mitbringen.,nan,nan,nan,Boden,überführt,nan,Stoff,,,,,,,,,,,,,,,,,,,,,,,9,0,9,0,0,7,7,7,,,,,,,space,5.30281805992,,,,,,2017_Feb_03_1335,59.7246089133,spr_backupper,001,Mi18,
,,,,,,,,,,,,,,,,,,,,,,,,,,,,,,,,,,,,,,,,,,,,,,,,,,,,,,,,,,,,,,,,,,,,,,,,,,,,,,,,,,,,,,,,,,,,,,,,,,,,,,,,,,,,,,,,,,,,,,,,,9,0,9,0,,,,,,,,,,,,,None,j,11.4714019299,,,2017_Feb_03_1335,59.7246089133,spr_backupper,001,Mi18,
,Die,In,Ich,Wir,Als,Ihr,Wir,Walter,Die,Manche,Man,Mit,Im,Es,Sie,Man,Mit,Die,In,Er,Danach,Die,Bei,Fernab,Im,100,Dort,Die,Unter,Die,100,Wir,Bei,Sie,Sie,Die,Das,Er,Die,Die,Ich,Außer,In,Wir,Nicht,In,Er,Wir,Er,Jugendliche,Alle,In,Die,Es,Die,Viele,Am,Die,Es,Sie,In,Wir,Bei,Die,Am,Sie,Die,Der,Die,Bei,Ich,Außer,Wir,Die,Wir,Jetzt,Die,Dass,Sie,Dort,Es,Die,Außer,In,In,Wir,Jungtiere,Die,Beträchtliche,Die,Außer,Die,Viele,Beträchtliche,Nicht,Es,Sie,Er,,,,,,,,,,,,,,,,,,,,,,,10,0,10,0,0,0,0,0,,,,,,None,space,2.49946498871,,,,,,2017_Feb_03_1335,59.7246089133,spr_backupper,001,Mi18,
,Schuhe,den,wurde,haben,die,Blutdruck,mussten,Scheel,Lösung,Kreditnehmer,machte,dieser,Fernrohr,wurden,hatte,machte,dieser,Kinder,den,stellt,wurde,Linie,der,des,Fernrohr,g,türmen,müden,keinen,Teilnehmerinnen,g,haben,der,verbrauchen,verlassen,Gäste,Tuch,wurde,Uhr,Gäste,nehme,dem,meinem,übergaben,ein,der,stellt,konnten,wurde,können,Betten,meinem,Eislaufbahnen,hat,Uhr,Tonnen,äußersten,Formen,wurden,haben,diesem,hatten,unserer,Kinder,äußeren,verlassen,Schule,Flug,Autos,unserer,nehme,den,mussten,Stücke,hatten,ist,"Uhr,",es,hatte,türmen,waren,Uhr,dem,einer,der,übergaben,sollten,Schuhe,Stücke,Schule,das,Autos,Tonnen,Stücke,ein,waren,verbrauchen,hat,,,,,,,,,,,,,,,,,,,,,,,10,0,10,0,0,1,1,1,,,,,,,space,1.03090381622,,,,,,2017_Feb_03_1335,59.7246089133,spr_backupper,001,Mi18,
,in,Kakao,damals,jede,Sonne,kann,uns,war,wird,sind,mal,Methode,sahen,Eimer,keine,mal,Methode,fuhren,Kakao,die,die,101,Feier,Rummels,sahen,braunen,sich,Teilnehmer,Umständen,wussten,brauner,jede,Feier,60,wegen,suchen,wurde,trotz,war,suchen,eine,Bürgermeister,Studium,dem,Tropfen,Tat,die,dann,trotz,Kleidung,wurden,Studium,wurden,uns,schlug,gebrauchte,Rand,wurden,Eimer,die,Zirkus,in,Ankunft,fuhren,Rand,wegen,verbraucht,zum,beider,Ankunft,eine,Bürgermeister,uns,wurden,in,genau,die,"regnete,",keine,sich,nur,schlug,Essen,Studie,Tat,das,immer,in,saftiges,verbraucht,Essen,beider,gebrauchter,saftigen,Tropfen,nur,60,ein,,,,,,,,,,,,,,,,,,,,,,,10,0,10,0,0,2,2,2,,,,,,,space,1.06712698936,,,,,,2017_Feb_03_1335,59.7246089133,spr_backupper,001,Mi18,
,Größe,gehören,schnell,Menge,"unterging,",schon,durch,der,mit,mit,wieder,kann,wir,roter,Lust,wieder,kann,mit,gehören,Masse,Leinwand,hält,gedachte,wurde,wir,Zuckers,Berge,wurden,können,überwiegend,Zucker,Menge,gedachte,Liter,des,die,dann,dem,aus,die,große,beschuldigten,las,Mann,königliches,wissen,Masse,mit,des,bei,mit,habe,mit,die,"sporadisch,",Kleidung,der,unter,rote,Erlebnisse,werden,Dänemark,stand,mit,der,dem,260.000,Mond,beteiligten,stand,große,beschuldigten,durch,aus,Dänemark,die,er,hat,Lust,Berge,kleinere,"sporadisch,",kann,wurde,wissen,Auto,auf,Größe,Fleisch,260.000,kann,beteiligter,Kleidung,Fleischs,königlichen,kleinere,Liter,Hemd,,,,,,,,,,,,,,,,,,,,,,,10,0,10,0,0,3,3,3,,,,,,,space,0.720855951309,,,,,,2017_Feb_03_1335,59.7246089133,spr_backupper,001,Mi18,
,36,immer,dank,alten,war,bei,Büschel,vierte,"reichlichem,","sämtlichem,",viel,man,den,Farbe,auf,viel,man,solchen,immer,mit,aus,nicht,man,schon,den,sind,schmutziger,mit,Neuwahlen,"nicht,",sind,alten,man,sprudelnden,schönen,Wohnung,mit,bekannten,"Japan,",Wohnung,Packung,die,ich,das,Blut,wir,mit,"minimalem,",bekannten,ausreichendem,"üblichem,",ich,dauerhaftem,Stimmung,obwohl,landen,Stadt,"regelmäßigem,",Farbe,bei,die,gelegentlich,ein,solch,Stadt,schönen,Kilowattstunden,dauerte,Fahrer,ein,Packung,die,Büschel,"wertvollem,",einen,richtige,"trug,",uns,auf,schmutzige,"Delikte,",obschon,ich,jetzt,wir,dem,warmem,36,wurden,Kilowattstunden,ich,Fahrer,landen,wurden,Bluts,"Delikte,",sprudelndes,aus,,,,,,,,,,,,,,,,,,,,,,,10,0,10,0,0,4,4,4,,,,,,,space,0.704540014267,,,,,,2017_Feb_03_1335,59.7246089133,spr_backupper,001,Mi18,
,hätten,350,täglichem,Krams,die,minimalem,frischen,Bundespräsident.,purem,künftigem,Lärm,eine,roten,geschleudert.,noch,Lärm,eine,unzureichenden,350,einem,seltenem,am,den,immer,roten,auf,Wäsche.,zusätzlichem,vor,was,auf,Kram,der,Trinkwassers.,Wetters,des,"reichem,",Skandal,die,des,salzige,Störenfriede,mehr,Auto,hat,um,einem,sauberen,Skandals,monatlichem,harten,mehr,feinem,ziemlich,sie,im,liegen,kaltem,geschleudert.,"frischem,",Tiere,einen,Glas,unzureichenden,liegen,Wetter,elektrischer,ungefähr,wurden,Glas,salziger,Störenfriede,frisches,klassischen,gelegentlichen,"Zeit,",war,die,noch,Wäsche.,deren,sie,leider,"nachgewiesen,",von,Mann,weichem,würden,serviert.,elektrische,leider,wurden,im,serviert.,hat,derer,Trinkwasser.,feinem,,,,,,,,,,,,,,,,,,,,,,,10,0,10,0,0,5,5,5,,,,,,,space,0.738356113434,,,,,,2017_Feb_03_1335,59.7246089133,spr_backupper,001,Mi18,
,seiner,ml,grünen,aus,Flut,täglichen,Grases,nan,Alkohol,Einkommen,um,große,Planeten,nan,eine,um,große,Helmen,ml,Esslöffel,dichten,Hauptbahnhof.,Soldaten,ruhig,Planet,jeden,nan,schwarzem,Dezember,Tupperware,jeden,aus,Soldaten,nan,die,Herrn,goldenen,wiedergewählt.,er,Herrn,Wurst,jeden.,als,mehr,den,die,Esslöffel,Kraftstoff,wiedergewählt.,Taschengeld,Schaumstoff,als,Kunsteis,"vermiest,",defekt,Müll.,die,Abduschen,nan,kaltem,artgerecht,Besucher.,köstlicher,Helmen,die,die,Energie.,drei,verschrottet.,köstlichen,Wurst,jeden.,Gras,Schmuck,Besucher.,um,aus,Stimmung,eine,nan,sie,defekt,nichts,dass,den,mehr,Untergrund,seiner,nan,Energie.,nichts,verschrottet.,Müll.,nan,den,sie,nan,dichten,,,,,,,,,,,,,,,,,,,,,,,10,0,10,0,0,6,6,6,,,,,,,space,0.838707923889,,,,,,2017_Feb_03_1335,59.7246089133,spr_backupper,001,Mi18,
,Frau,warmer,Tee,dem,zurückgekehrt.,Einsatz,zwängen.,nan,verdünnt.,haftbar.,jede,Menge,ganz,nan,Sammlung,jede,Menge,zur,warme,warmen,Gewebe,nan,des,diskutiert.,ganz,Fall,nan,Kaffee,stattfinden.,ist.,Fall,dem,des,nan,Wohnung.,Gantenbeins.,Besatz,nan,trug.,Gantenbein.,mit,nan,einmal,als,Boden,Probleme,warmem,fahren.,nan,selber,gefertigt.,einmal,eingesprüht.,dass,war.,nan,Slums.,gehärtet.,nan,Saft,gehalten.,nan,Wein,zur,Slums.,Wohnung.,nan,Tage.,nan,Weins,mit,nan,zwängen.,umgearbeitet.,nan,Nadelhölzer,Japan.,ziemlich,Sammlung,nan,überführt,war.,mitbringen.,das,Problemen,als,liegen.,Frau,nan,nan,mitbringen.,nan,nan,nan,Boden,überführt,nan,Stoff,,,,,,,,,,,,,,,,,,,,,,,10,0,10,0,0,7,7,7,,,,,,,space,0.872050046921,,,,,,2017_Feb_03_1335,59.7246089133,spr_backupper,001,Mi18,
,gepasst.,Milch.,wieder,Haus,nan,sinken.,nan,nan,nan,nan,Menge,dunkler,deutlich.,nan,dumme,Menge,dunkle,Schule.,Milch.,Honigs,wiederhergestellt.,nan,zweiten,nan,deutlich.,genug.,nan,wiederbelebt.,nan,nan,genug.,Haus,zweiten,nan,nan,nan,rekonstruiert.,nan,nan,nan,an,nan,Rilke.,gerne.,berührt.,im,Honig,nan,nan,kaufen.,nan,Rilke,nan,es,nan,nan,nan,nan,nan,besprochen.,nan,nan,schon,Schule.,nan,nan,nan,nan,nan,schon,an,nan,nan,nan,nan,umzusetzen.,nan,vermiest.,dummer,nan,wurden.,nan,nan,Medikament,im,gerne.,nan,gepasst,nan,nan,nan,nan,nan,nan,berührt.,wurden.,nan,gefertigt.,,,,,,,,,,,,,,,,,,,,,,,10,0,10,0,0,8,8,8,,,,,,,space,0.755469083786,,,,,,2017_Feb_03_1335,59.7246089133,spr_backupper,001,Mi18,
,nan,nan,fit.,geschafft.,nan,nan,nan,nan,nan,nan,heiße,Materie,nan,nan,Sprüche.,heißer,Materie,nan,nan,her.,nan,nan,Weltkriegs.,nan,nan,nan,nan,nan,nan,nan,nan,geschafft.,Weltkriegs.,nan,nan,nan,nan,nan,nan,nan,den,nan,nan,nan,nan,Landkreis.,her.,nan,nan,nan,nan,gelesen.,nan,regnete.,nan,nan,nan,nan,nan,nan,nan,nan,auf,nan,nan,nan,nan,nan,nan,auf,den,nan,nan,nan,nan,nan,nan,nan,Sprüche.,nan,nan,nan,nan,nicht,Landkreis.,nan,nan,haben.,nan,nan,nan,nan,nan,nan,nan,nan,nan,nan,,,,,,,,,,,,,,,,,,,,,,,10,0,10,0,0,9,9,9,,,,,,,space,1.10649394989,,,,,,2017_Feb_03_1335,59.7246089133,spr_backupper,001,Mi18,
,,,,,,,,,,,,,,,,,,,,,,,,,,,,,,,,,,,,,,,,,,,,,,,,,,,,,,,,,,,,,,,,,,,,,,,,,,,,,,,,,,,,,,,,,,,,,,,,,,,,,,,,,,,,,,,,,,,,,,,,,10,0,10,0,,,,,,,,,,,,,None,j,8.93808698654,,,2017_Feb_03_1335,59.7246089133,spr_backupper,001,Mi18,
,Die,In,Ich,Wir,Als,Ihr,Wir,Walter,Die,Manche,Man,Mit,Im,Es,Sie,Man,Mit,Die,In,Er,Danach,Die,Bei,Fernab,Im,100,Dort,Die,Unter,Die,100,Wir,Bei,Sie,Sie,Die,Das,Er,Die,Die,Ich,Außer,In,Wir,Nicht,In,Er,Wir,Er,Jugendliche,Alle,In,Die,Es,Die,Viele,Am,Die,Es,Sie,In,Wir,Bei,Die,Am,Sie,Die,Der,Die,Bei,Ich,Außer,Wir,Die,Wir,Jetzt,Die,Dass,Sie,Dort,Es,Die,Außer,In,In,Wir,Jungtiere,Die,Beträchtliche,Die,Außer,Die,Viele,Beträchtliche,Nicht,Es,Sie,Er,,,,,,,,,,,,,,,,,,,,,,,11,0,11,0,0,0,0,0,,,,,,None,space,0.119971036911,,,,,,2017_Feb_03_1335,59.7246089133,spr_backupper,001,Mi18,
,Schuhe,den,wurde,haben,die,Blutdruck,mussten,Scheel,Lösung,Kreditnehmer,machte,dieser,Fernrohr,wurden,hatte,machte,dieser,Kinder,den,stellt,wurde,Linie,der,des,Fernrohr,g,türmen,müden,keinen,Teilnehmerinnen,g,haben,der,verbrauchen,verlassen,Gäste,Tuch,wurde,Uhr,Gäste,nehme,dem,meinem,übergaben,ein,der,stellt,konnten,wurde,können,Betten,meinem,Eislaufbahnen,hat,Uhr,Tonnen,äußersten,Formen,wurden,haben,diesem,hatten,unserer,Kinder,äußeren,verlassen,Schule,Flug,Autos,unserer,nehme,den,mussten,Stücke,hatten,ist,"Uhr,",es,hatte,türmen,waren,Uhr,dem,einer,der,übergaben,sollten,Schuhe,Stücke,Schule,das,Autos,Tonnen,Stücke,ein,waren,verbrauchen,hat,,,,,,,,,,,,,,,,,,,,,,,11,0,11,0,0,1,1,1,,,,,,,space,0.860623121262,,,,,,2017_Feb_03_1335,59.7246089133,spr_backupper,001,Mi18,
,in,Kakao,damals,jede,Sonne,kann,uns,war,wird,sind,mal,Methode,sahen,Eimer,keine,mal,Methode,fuhren,Kakao,die,die,101,Feier,Rummels,sahen,braunen,sich,Teilnehmer,Umständen,wussten,brauner,jede,Feier,60,wegen,suchen,wurde,trotz,war,suchen,eine,Bürgermeister,Studium,dem,Tropfen,Tat,die,dann,trotz,Kleidung,wurden,Studium,wurden,uns,schlug,gebrauchte,Rand,wurden,Eimer,die,Zirkus,in,Ankunft,fuhren,Rand,wegen,verbraucht,zum,beider,Ankunft,eine,Bürgermeister,uns,wurden,in,genau,die,"regnete,",keine,sich,nur,schlug,Essen,Studie,Tat,das,immer,in,saftiges,verbraucht,Essen,beider,gebrauchter,saftigen,Tropfen,nur,60,ein,,,,,,,,,,,,,,,,,,,,,,,11,0,11,0,0,2,2,2,,,,,,,space,0.772256135941,,,,,,2017_Feb_03_1335,59.7246089133,spr_backupper,001,Mi18,
,Größe,gehören,schnell,Menge,"unterging,",schon,durch,der,mit,mit,wieder,kann,wir,roter,Lust,wieder,kann,mit,gehören,Masse,Leinwand,hält,gedachte,wurde,wir,Zuckers,Berge,wurden,können,überwiegend,Zucker,Menge,gedachte,Liter,des,die,dann,dem,aus,die,große,beschuldigten,las,Mann,königliches,wissen,Masse,mit,des,bei,mit,habe,mit,die,"sporadisch,",Kleidung,der,unter,rote,Erlebnisse,werden,Dänemark,stand,mit,der,dem,260.000,Mond,beteiligten,stand,große,beschuldigten,durch,aus,Dänemark,die,er,hat,Lust,Berge,kleinere,"sporadisch,",kann,wurde,wissen,Auto,auf,Größe,Fleisch,260.000,kann,beteiligter,Kleidung,Fleischs,königlichen,kleinere,Liter,Hemd,,,,,,,,,,,,,,,,,,,,,,,11,0,11,0,0,3,3,3,,,,,,,space,0.62149310112,,,,,,2017_Feb_03_1335,59.7246089133,spr_backupper,001,Mi18,
,36,immer,dank,alten,war,bei,Büschel,vierte,"reichlichem,","sämtlichem,",viel,man,den,Farbe,auf,viel,man,solchen,immer,mit,aus,nicht,man,schon,den,sind,schmutziger,mit,Neuwahlen,"nicht,",sind,alten,man,sprudelnden,schönen,Wohnung,mit,bekannten,"Japan,",Wohnung,Packung,die,ich,das,Blut,wir,mit,"minimalem,",bekannten,ausreichendem,"üblichem,",ich,dauerhaftem,Stimmung,obwohl,landen,Stadt,"regelmäßigem,",Farbe,bei,die,gelegentlich,ein,solch,Stadt,schönen,Kilowattstunden,dauerte,Fahrer,ein,Packung,die,Büschel,"wertvollem,",einen,richtige,"trug,",uns,auf,schmutzige,"Delikte,",obschon,ich,jetzt,wir,dem,warmem,36,wurden,Kilowattstunden,ich,Fahrer,landen,wurden,Bluts,"Delikte,",sprudelndes,aus,,,,,,,,,,,,,,,,,,,,,,,11,0,11,0,0,4,4,4,,,,,,,space,1.0955350399,,,,,,2017_Feb_03_1335,59.7246089133,spr_backupper,001,Mi18,
,hätten,350,täglichem,Krams,die,minimalem,frischen,Bundespräsident.,purem,künftigem,Lärm,eine,roten,geschleudert.,noch,Lärm,eine,unzureichenden,350,einem,seltenem,am,den,immer,roten,auf,Wäsche.,zusätzlichem,vor,was,auf,Kram,der,Trinkwassers.,Wetters,des,"reichem,",Skandal,die,des,salzige,Störenfriede,mehr,Auto,hat,um,einem,sauberen,Skandals,monatlichem,harten,mehr,feinem,ziemlich,sie,im,liegen,kaltem,geschleudert.,"frischem,",Tiere,einen,Glas,unzureichenden,liegen,Wetter,elektrischer,ungefähr,wurden,Glas,salziger,Störenfriede,frisches,klassischen,gelegentlichen,"Zeit,",war,die,noch,Wäsche.,deren,sie,leider,"nachgewiesen,",von,Mann,weichem,würden,serviert.,elektrische,leider,wurden,im,serviert.,hat,derer,Trinkwasser.,feinem,,,,,,,,,,,,,,,,,,,,,,,11,0,11,0,0,5,5,5,,,,,,,space,0.638258934021,,,,,,2017_Feb_03_1335,59.7246089133,spr_backupper,001,Mi18,
,seiner,ml,grünen,aus,Flut,täglichen,Grases,nan,Alkohol,Einkommen,um,große,Planeten,nan,eine,um,große,Helmen,ml,Esslöffel,dichten,Hauptbahnhof.,Soldaten,ruhig,Planet,jeden,nan,schwarzem,Dezember,Tupperware,jeden,aus,Soldaten,nan,die,Herrn,goldenen,wiedergewählt.,er,Herrn,Wurst,jeden.,als,mehr,den,die,Esslöffel,Kraftstoff,wiedergewählt.,Taschengeld,Schaumstoff,als,Kunsteis,"vermiest,",defekt,Müll.,die,Abduschen,nan,kaltem,artgerecht,Besucher.,köstlicher,Helmen,die,die,Energie.,drei,verschrottet.,köstlichen,Wurst,jeden.,Gras,Schmuck,Besucher.,um,aus,Stimmung,eine,nan,sie,defekt,nichts,dass,den,mehr,Untergrund,seiner,nan,Energie.,nichts,verschrottet.,Müll.,nan,den,sie,nan,dichten,,,,,,,,,,,,,,,,,,,,,,,11,0,11,0,0,6,6,6,,,,,,,space,3.03866910934,,,,,,2017_Feb_03_1335,59.7246089133,spr_backupper,001,Mi18,
,,,,,,,,,,,,,,,,,,,,,,,,,,,,,,,,,,,,,,,,,,,,,,,,,,,,,,,,,,,,,,,,,,,,,,,,,,,,,,,,,,,,,,,,,,,,,,,,,,,,,,,,,,,,,,,,,,,,,,,,,11,0,11,0,,,,,,,,,,,,,None,n,3.1867249012,,,2017_Feb_03_1335,59.7246089133,spr_backupper,001,Mi18,
,Die,In,Ich,Wir,Als,Ihr,Wir,Walter,Die,Manche,Man,Mit,Im,Es,Sie,Man,Mit,Die,In,Er,Danach,Die,Bei,Fernab,Im,100,Dort,Die,Unter,Die,100,Wir,Bei,Sie,Sie,Die,Das,Er,Die,Die,Ich,Außer,In,Wir,Nicht,In,Er,Wir,Er,Jugendliche,Alle,In,Die,Es,Die,Viele,Am,Die,Es,Sie,In,Wir,Bei,Die,Am,Sie,Die,Der,Die,Bei,Ich,Außer,Wir,Die,Wir,Jetzt,Die,Dass,Sie,Dort,Es,Die,Außer,In,In,Wir,Jungtiere,Die,Beträchtliche,Die,Außer,Die,Viele,Beträchtliche,Nicht,Es,Sie,Er,,,,,,,,,,,,,,,,,,,,,,,12,0,12,0,0,0,0,0,,,,,,None,space,1.49991703033,,,,,,2017_Feb_03_1335,59.7246089133,spr_backupper,001,Mi18,
,Schuhe,den,wurde,haben,die,Blutdruck,mussten,Scheel,Lösung,Kreditnehmer,machte,dieser,Fernrohr,wurden,hatte,machte,dieser,Kinder,den,stellt,wurde,Linie,der,des,Fernrohr,g,türmen,müden,keinen,Teilnehmerinnen,g,haben,der,verbrauchen,verlassen,Gäste,Tuch,wurde,Uhr,Gäste,nehme,dem,meinem,übergaben,ein,der,stellt,konnten,wurde,können,Betten,meinem,Eislaufbahnen,hat,Uhr,Tonnen,äußersten,Formen,wurden,haben,diesem,hatten,unserer,Kinder,äußeren,verlassen,Schule,Flug,Autos,unserer,nehme,den,mussten,Stücke,hatten,ist,"Uhr,",es,hatte,türmen,waren,Uhr,dem,einer,der,übergaben,sollten,Schuhe,Stücke,Schule,das,Autos,Tonnen,Stücke,ein,waren,verbrauchen,hat,,,,,,,,,,,,,,,,,,,,,,,12,0,12,0,0,1,1,1,,,,,,,space,0.79287481308,,,,,,2017_Feb_03_1335,59.7246089133,spr_backupper,001,Mi18,
,in,Kakao,damals,jede,Sonne,kann,uns,war,wird,sind,mal,Methode,sahen,Eimer,keine,mal,Methode,fuhren,Kakao,die,die,101,Feier,Rummels,sahen,braunen,sich,Teilnehmer,Umständen,wussten,brauner,jede,Feier,60,wegen,suchen,wurde,trotz,war,suchen,eine,Bürgermeister,Studium,dem,Tropfen,Tat,die,dann,trotz,Kleidung,wurden,Studium,wurden,uns,schlug,gebrauchte,Rand,wurden,Eimer,die,Zirkus,in,Ankunft,fuhren,Rand,wegen,verbraucht,zum,beider,Ankunft,eine,Bürgermeister,uns,wurden,in,genau,die,"regnete,",keine,sich,nur,schlug,Essen,Studie,Tat,das,immer,in,saftiges,verbraucht,Essen,beider,gebrauchter,saftigen,Tropfen,nur,60,ein,,,,,,,,,,,,,,,,,,,,,,,12,0,12,0,0,2,2,2,,,,,,,space,1.13325715065,,,,,,2017_Feb_03_1335,59.7246089133,spr_backupper,001,Mi18,
,Größe,gehören,schnell,Menge,"unterging,",schon,durch,der,mit,mit,wieder,kann,wir,roter,Lust,wieder,kann,mit,gehören,Masse,Leinwand,hält,gedachte,wurde,wir,Zuckers,Berge,wurden,können,überwiegend,Zucker,Menge,gedachte,Liter,des,die,dann,dem,aus,die,große,beschuldigten,las,Mann,königliches,wissen,Masse,mit,des,bei,mit,habe,mit,die,"sporadisch,",Kleidung,der,unter,rote,Erlebnisse,werden,Dänemark,stand,mit,der,dem,260.000,Mond,beteiligten,stand,große,beschuldigten,durch,aus,Dänemark,die,er,hat,Lust,Berge,kleinere,"sporadisch,",kann,wurde,wissen,Auto,auf,Größe,Fleisch,260.000,kann,beteiligter,Kleidung,Fleischs,königlichen,kleinere,Liter,Hemd,,,,,,,,,,,,,,,,,,,,,,,12,0,12,0,0,3,3,3,,,,,,,space,2.34002804756,,,,,,2017_Feb_03_1335,59.7246089133,spr_backupper,001,Mi18,
,36,immer,dank,alten,war,bei,Büschel,vierte,"reichlichem,","sämtlichem,",viel,man,den,Farbe,auf,viel,man,solchen,immer,mit,aus,nicht,man,schon,den,sind,schmutziger,mit,Neuwahlen,"nicht,",sind,alten,man,sprudelnden,schönen,Wohnung,mit,bekannten,"Japan,",Wohnung,Packung,die,ich,das,Blut,wir,mit,"minimalem,",bekannten,ausreichendem,"üblichem,",ich,dauerhaftem,Stimmung,obwohl,landen,Stadt,"regelmäßigem,",Farbe,bei,die,gelegentlich,ein,solch,Stadt,schönen,Kilowattstunden,dauerte,Fahrer,ein,Packung,die,Büschel,"wertvollem,",einen,richtige,"trug,",uns,auf,schmutzige,"Delikte,",obschon,ich,jetzt,wir,dem,warmem,36,wurden,Kilowattstunden,ich,Fahrer,landen,wurden,Bluts,"Delikte,",sprudelndes,aus,,,,,,,,,,,,,,,,,,,,,,,12,0,12,0,0,4,4,4,,,,,,,space,0.512264966965,,,,,,2017_Feb_03_1335,59.7246089133,spr_backupper,001,Mi18,
,hätten,350,täglichem,Krams,die,minimalem,frischen,Bundespräsident.,purem,künftigem,Lärm,eine,roten,geschleudert.,noch,Lärm,eine,unzureichenden,350,einem,seltenem,am,den,immer,roten,auf,Wäsche.,zusätzlichem,vor,was,auf,Kram,der,Trinkwassers.,Wetters,des,"reichem,",Skandal,die,des,salzige,Störenfriede,mehr,Auto,hat,um,einem,sauberen,Skandals,monatlichem,harten,mehr,feinem,ziemlich,sie,im,liegen,kaltem,geschleudert.,"frischem,",Tiere,einen,Glas,unzureichenden,liegen,Wetter,elektrischer,ungefähr,wurden,Glas,salziger,Störenfriede,frisches,klassischen,gelegentlichen,"Zeit,",war,die,noch,Wäsche.,deren,sie,leider,"nachgewiesen,",von,Mann,weichem,würden,serviert.,elektrische,leider,wurden,im,serviert.,hat,derer,Trinkwasser.,feinem,,,,,,,,,,,,,,,,,,,,,,,12,0,12,0,0,5,5,5,,,,,,,space,0.642871856689,,,,,,2017_Feb_03_1335,59.7246089133,spr_backupper,001,Mi18,
,seiner,ml,grünen,aus,Flut,täglichen,Grases,nan,Alkohol,Einkommen,um,große,Planeten,nan,eine,um,große,Helmen,ml,Esslöffel,dichten,Hauptbahnhof.,Soldaten,ruhig,Planet,jeden,nan,schwarzem,Dezember,Tupperware,jeden,aus,Soldaten,nan,die,Herrn,goldenen,wiedergewählt.,er,Herrn,Wurst,jeden.,als,mehr,den,die,Esslöffel,Kraftstoff,wiedergewählt.,Taschengeld,Schaumstoff,als,Kunsteis,"vermiest,",defekt,Müll.,die,Abduschen,nan,kaltem,artgerecht,Besucher.,köstlicher,Helmen,die,die,Energie.,drei,verschrottet.,köstlichen,Wurst,jeden.,Gras,Schmuck,Besucher.,um,aus,Stimmung,eine,nan,sie,defekt,nichts,dass,den,mehr,Untergrund,seiner,nan,Energie.,nichts,verschrottet.,Müll.,nan,den,sie,nan,dichten,,,,,,,,,,,,,,,,,,,,,,,12,0,12,0,0,6,6,6,,,,,,,space,0.962040901184,,,,,,2017_Feb_03_1335,59.7246089133,spr_backupper,001,Mi18,
,Frau,warmer,Tee,dem,zurückgekehrt.,Einsatz,zwängen.,nan,verdünnt.,haftbar.,jede,Menge,ganz,nan,Sammlung,jede,Menge,zur,warme,warmen,Gewebe,nan,des,diskutiert.,ganz,Fall,nan,Kaffee,stattfinden.,ist.,Fall,dem,des,nan,Wohnung.,Gantenbeins.,Besatz,nan,trug.,Gantenbein.,mit,nan,einmal,als,Boden,Probleme,warmem,fahren.,nan,selber,gefertigt.,einmal,eingesprüht.,dass,war.,nan,Slums.,gehärtet.,nan,Saft,gehalten.,nan,Wein,zur,Slums.,Wohnung.,nan,Tage.,nan,Weins,mit,nan,zwängen.,umgearbeitet.,nan,Nadelhölzer,Japan.,ziemlich,Sammlung,nan,überführt,war.,mitbringen.,das,Problemen,als,liegen.,Frau,nan,nan,mitbringen.,nan,nan,nan,Boden,überführt,nan,Stoff,,,,,,,,,,,,,,,,,,,,,,,12,0,12,0,0,7,7,7,,,,,,,space,0.854969024658,,,,,,2017_Feb_03_1335,59.7246089133,spr_backupper,001,Mi18,
,gepasst.,Milch.,wieder,Haus,nan,sinken.,nan,nan,nan,nan,Menge,dunkler,deutlich.,nan,dumme,Menge,dunkle,Schule.,Milch.,Honigs,wiederhergestellt.,nan,zweiten,nan,deutlich.,genug.,nan,wiederbelebt.,nan,nan,genug.,Haus,zweiten,nan,nan,nan,rekonstruiert.,nan,nan,nan,an,nan,Rilke.,gerne.,berührt.,im,Honig,nan,nan,kaufen.,nan,Rilke,nan,es,nan,nan,nan,nan,nan,besprochen.,nan,nan,schon,Schule.,nan,nan,nan,nan,nan,schon,an,nan,nan,nan,nan,umzusetzen.,nan,vermiest.,dummer,nan,wurden.,nan,nan,Medikament,im,gerne.,nan,gepasst,nan,nan,nan,nan,nan,nan,berührt.,wurden.,nan,gefertigt.,,,,,,,,,,,,,,,,,,,,,,,12,0,12,0,0,8,8,8,,,,,,,space,3.87411499023,,,,,,2017_Feb_03_1335,59.7246089133,spr_backupper,001,Mi18,
,,,,,,,,,,,,,,,,,,,,,,,,,,,,,,,,,,,,,,,,,,,,,,,,,,,,,,,,,,,,,,,,,,,,,,,,,,,,,,,,,,,,,,,,,,,,,,,,,,,,,,,,,,,,,,,,,,,,,,,,,12,0,12,0,,,,,,,,,,,,,None,n,4.91187000275,,,2017_Feb_03_1335,59.7246089133,spr_backupper,001,Mi18,
,Die,In,Ich,Wir,Als,Ihr,Wir,Walter,Die,Manche,Man,Mit,Im,Es,Sie,Man,Mit,Die,In,Er,Danach,Die,Bei,Fernab,Im,100,Dort,Die,Unter,Die,100,Wir,Bei,Sie,Sie,Die,Das,Er,Die,Die,Ich,Außer,In,Wir,Nicht,In,Er,Wir,Er,Jugendliche,Alle,In,Die,Es,Die,Viele,Am,Die,Es,Sie,In,Wir,Bei,Die,Am,Sie,Die,Der,Die,Bei,Ich,Außer,Wir,Die,Wir,Jetzt,Die,Dass,Sie,Dort,Es,Die,Außer,In,In,Wir,Jungtiere,Die,Beträchtliche,Die,Außer,Die,Viele,Beträchtliche,Nicht,Es,Sie,Er,,,,,,,,,,,,,,,,,,,,,,,13,0,13,0,0,0,0,0,,,,,,None,space,1.16041707993,,,,,,2017_Feb_03_1335,59.7246089133,spr_backupper,001,Mi18,
,Schuhe,den,wurde,haben,die,Blutdruck,mussten,Scheel,Lösung,Kreditnehmer,machte,dieser,Fernrohr,wurden,hatte,machte,dieser,Kinder,den,stellt,wurde,Linie,der,des,Fernrohr,g,türmen,müden,keinen,Teilnehmerinnen,g,haben,der,verbrauchen,verlassen,Gäste,Tuch,wurde,Uhr,Gäste,nehme,dem,meinem,übergaben,ein,der,stellt,konnten,wurde,können,Betten,meinem,Eislaufbahnen,hat,Uhr,Tonnen,äußersten,Formen,wurden,haben,diesem,hatten,unserer,Kinder,äußeren,verlassen,Schule,Flug,Autos,unserer,nehme,den,mussten,Stücke,hatten,ist,"Uhr,",es,hatte,türmen,waren,Uhr,dem,einer,der,übergaben,sollten,Schuhe,Stücke,Schule,das,Autos,Tonnen,Stücke,ein,waren,verbrauchen,hat,,,,,,,,,,,,,,,,,,,,,,,13,0,13,0,0,1,1,1,,,,,,,space,0.893638134003,,,,,,2017_Feb_03_1335,59.7246089133,spr_backupper,001,Mi18,
,in,Kakao,damals,jede,Sonne,kann,uns,war,wird,sind,mal,Methode,sahen,Eimer,keine,mal,Methode,fuhren,Kakao,die,die,101,Feier,Rummels,sahen,braunen,sich,Teilnehmer,Umständen,wussten,brauner,jede,Feier,60,wegen,suchen,wurde,trotz,war,suchen,eine,Bürgermeister,Studium,dem,Tropfen,Tat,die,dann,trotz,Kleidung,wurden,Studium,wurden,uns,schlug,gebrauchte,Rand,wurden,Eimer,die,Zirkus,in,Ankunft,fuhren,Rand,wegen,verbraucht,zum,beider,Ankunft,eine,Bürgermeister,uns,wurden,in,genau,die,"regnete,",keine,sich,nur,schlug,Essen,Studie,Tat,das,immer,in,saftiges,verbraucht,Essen,beider,gebrauchter,saftigen,Tropfen,nur,60,ein,,,,,,,,,,,,,,,,,,,,,,,13,0,13,0,0,2,2,2,,,,,,,space,0.88983798027,,,,,,2017_Feb_03_1335,59.7246089133,spr_backupper,001,Mi18,
,Größe,gehören,schnell,Menge,"unterging,",schon,durch,der,mit,mit,wieder,kann,wir,roter,Lust,wieder,kann,mit,gehören,Masse,Leinwand,hält,gedachte,wurde,wir,Zuckers,Berge,wurden,können,überwiegend,Zucker,Menge,gedachte,Liter,des,die,dann,dem,aus,die,große,beschuldigten,las,Mann,königliches,wissen,Masse,mit,des,bei,mit,habe,mit,die,"sporadisch,",Kleidung,der,unter,rote,Erlebnisse,werden,Dänemark,stand,mit,der,dem,260.000,Mond,beteiligten,stand,große,beschuldigten,durch,aus,Dänemark,die,er,hat,Lust,Berge,kleinere,"sporadisch,",kann,wurde,wissen,Auto,auf,Größe,Fleisch,260.000,kann,beteiligter,Kleidung,Fleischs,königlichen,kleinere,Liter,Hemd,,,,,,,,,,,,,,,,,,,,,,,13,0,13,0,0,3,3,3,,,,,,,space,0.767081975937,,,,,,2017_Feb_03_1335,59.7246089133,spr_backupper,001,Mi18,
