text,sent48,sent9,sent8,sent15,sent3,sent2,sent1,sent14,sent7,sent6,sent5,sent4,sent57,sent56,sent55,sent54,sent53,sent52,sent51,sent50,sent13,sent12,sent11,sent10,sent17,sent16,sent59,sent58,sent93,sent92,sent91,sent90,sent97,sent96,sent95,sent94,sent98,sent22,sent23,sent20,sent21,sent26,sent27,sent24,sent25,sent28,sent29,sent68,sent69,sent66,sent67,sent64,sent65,sent62,sent63,sent60,sent61,sent31,sent30,sent33,sent32,sent35,sent34,sent37,sent36,sent39,sent38,sent79,sent78,sent75,sent74,sent77,sent76,sent71,sent70,sent73,sent72,sent19,sent49,sent18,sent44,sent45,sent84,sent85,sent86,sent87,sent80,sent81,sent82,sent83,sent40,sent41,sent42,sent43,sent88,sent89,sent46,sent47,intros.thisRepN,intros.thisTrialN,intros.thisN,intros.thisIndex,trials.thisRepN,trials.thisTrialN,trials.thisN,trials.thisIndex,testWords.thisRepN,testWords.thisTrialN,testWords.thisN,testWords.thisIndex,test1,test3,test2,test5,test4,test7,test6,test9,test8,test10,realTrials.thisRepN,realTrials.thisTrialN,realTrials.thisN,realTrials.thisIndex,words.thisRepN,words.thisTrialN,words.thisN,words.thisIndex,key_resp_3.keys,key_resp_3.rt,key_resp_8.keys,key_resp_10.keys,key_resp_10.rt,key_resp_6.keys,wordRead.keys,wordRead.rt,key_resp_5.keys,questAnswer.keys,questAnswer.rt,key_resp_6.rt,date,frameRate,expName,session,participant,
"Vielen Dank, dass Sie an diesem Experiment teilnehmen. Vor dem eigentlichen Experiment sehen Sie nun zuerst eine kurze Erläuterung, und Sie absolvieren ein kurze Übungsphase.

Das Experiment dauert insgesamt nicht mehr als 45 Minuten.",,,,,,,,,,,,,,,,,,,,,,,,,,,,,,,,,,,,,,,,,,,,,,,,,,,,,,,,,,,,,,,,,,,,,,,,,,,,,,,,,,,,,,,,,,,,,,,,,,,0,0,0,0,,,,,,,,,,,,,,,,,,,,,,,,,,,,,,,,,,,,,,,2017_Jan_31_1301,59.6865332237,spr_backupper,001,Mo11,
"In diesem Experiment lesen Sie deutsche Sätze, indem Sie sich von Wort zu Wort mit der Leertaste durch den Satz klicken.",,,,,,,,,,,,,,,,,,,,,,,,,,,,,,,,,,,,,,,,,,,,,,,,,,,,,,,,,,,,,,,,,,,,,,,,,,,,,,,,,,,,,,,,,,,,,,,,,,,0,1,1,1,,,,,,,,,,,,,,,,,,,,,,,,,,,,,,,,,,,,,,,2017_Jan_31_1301,59.6865332237,spr_backupper,001,Mo11,
"Sie sehen dabei immer nur das aktuelle Wort. Die Lesegeschwindigkeit bestimmen Sie vollständig selber. Vor jedem Satz sehen Sie in der Bildschirmmitte für zwei Sekunden ein + an der Stelle, an der dann die Wörter erscheinen.",,,,,,,,,,,,,,,,,,,,,,,,,,,,,,,,,,,,,,,,,,,,,,,,,,,,,,,,,,,,,,,,,,,,,,,,,,,,,,,,,,,,,,,,,,,,,,,,,,,0,2,2,2,,,,,,,,,,,,,,,,,,,,,,,,,,,,,,,,,,,,,,,2017_Jan_31_1301,59.6865332237,spr_backupper,001,Mo11,
"Nach jedem Satz wird Ihnen eine Ja/Nein-Verständnisfrage zum zuvor gelesenen Satz gestellt, die Sie mit der J-Taste für "Ja" und der N-Taste für "Nein" beantworten. Antworten Sie möglichst spontan und ohne lange Nachzudenken.",,,,,,,,,,,,,,,,,,,,,,,,,,,,,,,,,,,,,,,,,,,,,,,,,,,,,,,,,,,,,,,,,,,,,,,,,,,,,,,,,,,,,,,,,,,,,,,,,,,0,3,3,3,,,,,,,,,,,,,,,,,,,,,,,,,,,,,,,,,,,,,,,2017_Jan_31_1301,59.6865332237,spr_backupper,001,Mo11,
"Unterbrechen Sie das Experiment bitte auf keinen Fall, stellen Sie den ExperimentatorInnen nach dem Experimentbeginn keine Fragen, und lassen Sie sich nicht durch Umgebungsgeräusche ablenken.",,,,,,,,,,,,,,,,,,,,,,,,,,,,,,,,,,,,,,,,,,,,,,,,,,,,,,,,,,,,,,,,,,,,,,,,,,,,,,,,,,,,,,,,,,,,,,,,,,,0,4,4,4,,,,,,,,,,,,,,,,,,,,,,,,,,,,,,,,,,,,,,,2017_Jan_31_1301,59.6865332237,spr_backupper,001,Mo11,
"Im nächsten Schritt beantworten Sie bitte eine Frage zu Ihren Deutschkenntnissen. Danach beginnt eine Übungseinheit, mit der Sie sich an die Art der Durchführung dieses Experiments gewöhnen können.",,,,,,,,,,,,,,,,,,,,,,,,,,,,,,,,,,,,,,,,,,,,,,,,,,,,,,,,,,,,,,,,,,,,,,,,,,,,,,,,,,,,,,,,,,,,,,,,,,,0,5,5,5,,,,,,,,,,,,,,,,,,,,,,,,,,,,,,,,,,,,,,,2017_Jan_31_1301,59.6865332237,spr_backupper,001,Mo11,
,,,,,,,,,,,,,,,,,,,,,,,,,,,,,,,,,,,,,,,,,,,,,,,,,,,,,,,,,,,,,,,,,,,,,,,,,,,,,,,,,,,,,,,,,,,,,,,,,,,,,,,,,,,,,,,,,,,,,,,,,,,,,,,,,j,8.60273194313,,,,,,,,,,,2017_Jan_31_1301,59.6865332237,spr_backupper,001,Mo11,
,,,,,,,,,,,,,,,,,,,,,,,,,,,,,,,,,,,,,,,,,,,,,,,,,,,,,,,,,,,,,,,,,,,,,,,,,,,,,,,,,,,,,,,,,,,,,,,,,,,,,,,0,0,0,0,,,,,,,,,,,,,,,,,,,,,,,,,None,,,,,,,,,,2017_Jan_31_1301,59.6865332237,spr_backupper,001,Mo11,
,,,,,,,,,,,,,,,,,,,,,,,,,,,,,,,,,,,,,,,,,,,,,,,,,,,,,,,,,,,,,,,,,,,,,,,,,,,,,,,,,,,,,,,,,,,,,,,,,,,,,,,1,0,1,0,,,,,,,,,,,,,,,,,,,,,,,,,None,,,,,,,,,,2017_Jan_31_1301,59.6865332237,spr_backupper,001,Mo11,
,,,,,,,,,,,,,,,,,,,,,,,,,,,,,,,,,,,,,,,,,,,,,,,,,,,,,,,,,,,,,,,,,,,,,,,,,,,,,,,,,,,,,,,,,,,,,,,,,,,,,,,2,0,2,0,,,,,,,,,,,,,,,,,,,,,,,,,None,,,,,,,,,,2017_Jan_31_1301,59.6865332237,spr_backupper,001,Mo11,
,,,,,,,,,,,,,,,,,,,,,,,,,,,,,,,,,,,,,,,,,,,,,,,,,,,,,,,,,,,,,,,,,,,,,,,,,,,,,,,,,,,,,,,,,,,,,,,,,,,,,,,3,0,3,0,,,,,,,,,,,,,,,,,,,,,,,,,None,,,,,,,,,,2017_Jan_31_1301,59.6865332237,spr_backupper,001,Mo11,
,,,,,,,,,,,,,,,,,,,,,,,,,,,,,,,,,,,,,,,,,,,,,,,,,,,,,,,,,,,,,,,,,,,,,,,,,,,,,,,,,,,,,,,,,,,,,,,,,,,,,,,4,0,4,0,,,,,,,,,,,,,,,,,,,,,,,,,None,,,,,,,,,,2017_Jan_31_1301,59.6865332237,spr_backupper,001,Mo11,
,,,,,,,,,,,,,,,,,,,,,,,,,,,,,,,,,,,,,,,,,,,,,,,,,,,,,,,,,,,,,,,,,,,,,,,,,,,,,,,,,,,,,,,,,,,,,,,,,,,,,,,5,0,5,0,,,,,,,,,,,,,,,,,,,,,,,,,None,,,,,,,,,,2017_Jan_31_1301,59.6865332237,spr_backupper,001,Mo11,
,,,,,,,,,,,,,,,,,,,,,,,,,,,,,,,,,,,,,,,,,,,,,,,,,,,,,,,,,,,,,,,,,,,,,,,,,,,,,,,,,,,,,,,,,,,,,,,,,,,,,,,6,0,6,0,,,,,,,,,,,,,,,,,,,,,,,,,None,,,,,,,,,,2017_Jan_31_1301,59.6865332237,spr_backupper,001,Mo11,
,,,,,,,,,,,,,,,,,,,,,,,,,,,,,,,,,,,,,,,,,,,,,,,,,,,,,,,,,,,,,,,,,,,,,,,,,,,,,,,,,,,,,,,,,,,,,,,,,,,,,,,7,0,7,0,,,,,,,,,,,,,,,,,,,,,,,,,None,,,,,,,,,,2017_Jan_31_1301,59.6865332237,spr_backupper,001,Mo11,
,,,,,,,,,,,,,,,,,,,,,,,,,,,,,,,,,,,,,,,,,,,,,,,,,,,,,,,,,,,,,,,,,,,,,,,,,,,,,,,,,,,,,,,,,,,,,,,,,,,,,,,8,0,8,0,,,,,,,,,,,,,,,,,,,,,,,,,None,,,,,,,,,,2017_Jan_31_1301,59.6865332237,spr_backupper,001,Mo11,
,,,,,,,,,,,,,,,,,,,,,,,,,,,,,,,,,,,,,,,,,,,,,,,,,,,,,,,,,,,,,,,,,,,,,,,,,,,,,,,,,,,,,,,,,,,,,,,,,,,,,,,9,0,9,0,,,,,,,,,,,,,,,,,,,,,,,,,None,,,,,,,,,,2017_Jan_31_1301,59.6865332237,spr_backupper,001,Mo11,
,,,,,,,,,,,,,,,,,,,,,,,,,,,,,,,,,,,,,,,,,,,,,,,,,,,,,,,,,,,,,,,,,,,,,,,,,,,,,,,,,,,,,,,,,,,,,,,,,,,,,,,,,,,,,,,,,,,,,,,,,,,,,,,,,,,,space,2.85133719444,,,,,,,,2017_Jan_31_1301,59.6865332237,spr_backupper,001,Mo11,
,Der,Die,Die,Im,Jetzt,Viele,Wir,Dort,Es,Sie,Wir,In,Die,Sie,Dass,Viele,Man,Danach,100,Ihr,100,Ich,Bei,Die,Die,Jugendliche,Wir,Wir,Die,Sie,Er,Am,Die,Manche,Mit,Es,Die,Außer,Die,Außer,Beträchtliche,In,Wir,Wir,Sie,Bei,Mit,Sie,Bei,Die,Als,Es,Beträchtliche,In,Im,Er,In,Die,In,Das,Nicht,Jungtiere,Er,Man,Die,Die,In,Sie,Außer,Die,Bei,Die,Fernab,Nicht,Er,Die,Wir,Die,Es,Unter,Die,Er,In,Die,Die,Wir,Walter,Ich,Ich,In,Sie,Die,Alle,Am,Dort,Außer,Wir,Es,,,,,,,,,,,,,,,,,,,,,,,0,0,0,0,0,0,0,0,,,,,,None,space,1.17356610298,,,,,2017_Jan_31_1301,59.6865332237,spr_backupper,001,Mo11,
,Flug,Uhr,müden,Fernrohr,ist,Tonnen,haben,türmen,hat,verlassen,konnten,meinem,Lösung,hatte,es,Tonnen,machte,wurde,g,Blutdruck,g,nehme,der,Teilnehmerinnen,Eislaufbahnen,können,übergaben,mussten,Formen,verbrauchen,stellt,äußeren,Uhr,Kreditnehmer,dieser,waren,Schuhe,den,Gäste,dem,Stücke,den,hatten,mussten,verbrauchen,unserer,dieser,haben,unserer,Schule,die,wurden,Stücke,diesem,Fernrohr,wurde,den,Autos,der,Tuch,ein,sollten,wurde,machte,Schule,Schuhe,einer,verlassen,dem,Kinder,der,Gäste,des,ein,hat,Autos,haben,Stücke,waren,keinen,"Uhr,",stellt,der,Linie,Uhr,hatten,Scheel,wurde,nehme,meinem,hatte,Kinder,Betten,äußersten,türmen,das,übergaben,wurden,,,,,,,,,,,,,,,,,,,,,,,0,0,0,0,0,1,1,1,,,,,,,space,0.582972049713,,,,,2017_Jan_31_1301,59.6865332237,spr_backupper,001,Mo11,
,zum,schlug,Teilnehmer,sahen,genau,gebrauchte,jede,sich,uns,wegen,dann,Studium,wird,keine,"regnete,",gebrauchter,mal,die,braunen,kann,brauner,eine,Feier,wussten,wurden,Kleidung,dem,uns,wurden,60,die,Rand,war,sind,Methode,nur,in,Bürgermeister,suchen,Essen,saftiges,Kakao,in,uns,60,Ankunft,Methode,die,Ankunft,verbraucht,Sonne,Eimer,saftigen,Zirkus,sahen,trotz,Kakao,beider,Tat,wurde,Tropfen,immer,trotz,mal,verbraucht,in,Studie,wegen,Bürgermeister,fuhren,Feier,suchen,Rummels,Tropfen,ein,beider,jede,wurden,nur,Umständen,die,die,Tat,101,schlug,in,war,damals,eine,Studium,keine,fuhren,wurden,Rand,sich,Essen,das,Eimer,,,,,,,,,,,,,,,,,,,,,,,0,0,0,0,0,2,2,2,,,,,,,space,0.536860942841,,,,,2017_Jan_31_1301,59.6865332237,spr_backupper,001,Mo11,
,Mond,"sporadisch,",wurden,wir,die,Kleidung,Menge,Berge,die,des,mit,habe,mit,Lust,hat,Kleidung,wieder,Leinwand,Zuckers,schon,Zucker,große,gedachte,überwiegend,mit,bei,Mann,durch,unter,Liter,Masse,der,aus,mit,kann,kleinere,Größe,beschuldigten,die,kann,Fleisch,gehören,Dänemark,durch,Liter,stand,kann,Erlebnisse,stand,260.000,"unterging,",rote,Fleischs,werden,wir,dem,gehören,beteiligten,wissen,dann,königlichen,auf,des,wieder,260.000,Größe,wurde,dem,beschuldigten,mit,gedachte,die,wurde,königliches,Hemd,beteiligter,Menge,aus,kleinere,können,er,Masse,wissen,hält,"sporadisch,",Dänemark,der,schnell,große,las,Lust,mit,mit,der,Berge,kann,Auto,roter,,,,,,,,,,,,,,,,,,,,,,,0,0,0,0,0,3,3,3,,,,,,,space,0.535091876984,,,,,2017_Jan_31_1301,59.6865332237,spr_backupper,001,Mo11,
,dauerte,obwohl,mit,den,richtige,landen,alten,schmutziger,Stimmung,schönen,"minimalem,",ich,"reichlichem,",auf,uns,landen,viel,aus,sind,bei,sind,Packung,man,"nicht,",dauerhaftem,ausreichendem,das,Büschel,"regelmäßigem,",sprudelndes,mit,Stadt,"Japan,","sämtlichem,",man,"Delikte,",36,die,Wohnung,ich,wurden,immer,einen,Büschel,sprudelnden,ein,man,bei,ein,Kilowattstunden,war,Farbe,wurden,die,den,bekannten,immer,Fahrer,wir,mit,Bluts,warmem,bekannten,viel,Kilowattstunden,36,jetzt,schönen,die,solch,man,Wohnung,schon,Blut,aus,Fahrer,alten,"wertvollem,","Delikte,",Neuwahlen,"trug,",mit,wir,nicht,obschon,gelegentlich,vierte,dank,Packung,ich,auf,solchen,"üblichem,",Stadt,schmutzige,ich,dem,Farbe,,,,,,,,,,,,,,,,,,,,,,,0,0,0,0,0,4,4,4,,,,,,,space,0.560363769531,,,,,2017_Jan_31_1301,59.6865332237,spr_backupper,001,Mo11,
,ungefähr,sie,zusätzlichem,roten,"Zeit,",im,Kram,Wäsche.,ziemlich,Wetters,sauberen,mehr,purem,noch,die,im,Lärm,seltenem,auf,minimalem,auf,salziger,der,was,feinem,monatlichem,Auto,frischen,kaltem,Trinkwasser.,einem,liegen,die,künftigem,eine,deren,hätten,Störenfriede,des,leider,serviert.,350,gelegentlichen,frisches,Trinkwassers.,Glas,eine,"frischem,",Glas,elektrischer,die,geschleudert.,serviert.,Tiere,roten,Skandal,350,wurden,von,"reichem,",hat,weichem,Skandals,Lärm,elektrische,würden,"nachgewiesen,",Wetter,Störenfriede,unzureichenden,den,des,immer,hat,feinem,wurden,Krams,klassischen,derer,vor,war,einem,um,am,sie,einen,Bundespräsident.,täglichem,salzige,mehr,noch,unzureichenden,harten,liegen,Wäsche.,leider,Mann,geschleudert.,,,,,,,,,,,,,,,,,,,,,,,0,0,0,0,0,5,5,5,,,,,,,space,0.457334041595,,,,,2017_Jan_31_1301,59.6865332237,spr_backupper,001,Mo11,
,drei,defekt,schwarzem,Planeten,um,Müll.,aus,nan,"vermiest,",die,Kraftstoff,als,Alkohol,eine,Stimmung,Müll.,um,dichten,jeden,täglichen,jeden,Wurst,Soldaten,Tupperware,Kunsteis,Taschengeld,mehr,Grases,Abduschen,nan,Esslöffel,die,er,Einkommen,große,sie,seiner,jeden.,Herrn,nichts,nan,ml,Besucher.,Gras,nan,köstlichen,große,kaltem,köstlicher,Energie.,Flut,nan,nan,artgerecht,Planet,wiedergewählt.,ml,verschrottet.,den,goldenen,den,Untergrund,wiedergewählt.,um,Energie.,seiner,dass,die,jeden.,Helmen,Soldaten,Herrn,ruhig,den,dichten,verschrottet.,aus,Schmuck,sie,Dezember,aus,Esslöffel,die,Hauptbahnhof.,defekt,Besucher.,nan,grünen,Wurst,als,eine,Helmen,Schaumstoff,die,nan,nichts,mehr,nan,,,,,,,,,,,,,,,,,,,,,,,0,0,0,0,0,6,6,6,,,,,,,space,0.672384023666,,,,,2017_Jan_31_1301,59.6865332237,spr_backupper,001,Mo11,
,Tage.,war.,Kaffee,ganz,Nadelhölzer,nan,dem,nan,dass,Wohnung.,fahren.,einmal,verdünnt.,Sammlung,ziemlich,nan,jede,Gewebe,Fall,Einsatz,Fall,mit,des,ist.,eingesprüht.,selber,als,zwängen.,gehärtet.,nan,warmem,Slums.,trug.,haftbar.,Menge,überführt,Frau,nan,Gantenbeins.,mitbringen.,nan,warme,nan,zwängen.,nan,Weins,Menge,Saft,Wein,nan,zurückgekehrt.,nan,nan,gehalten.,ganz,nan,warmer,nan,Problemen,Besatz,Boden,liegen.,nan,jede,nan,Frau,das,Wohnung.,nan,zur,des,Gantenbein.,diskutiert.,Boden,Stoff,nan,dem,umgearbeitet.,überführt,stattfinden.,Japan.,warmen,Probleme,nan,war.,nan,nan,Tee,mit,einmal,Sammlung,zur,gefertigt.,Slums.,nan,mitbringen.,als,nan,,,,,,,,,,,,,,,,,,,,,,,0,0,0,0,0,7,7,7,,,,,,,space,0.467427015305,,,,,2017_Jan_31_1301,59.6865332237,spr_backupper,001,Mo11,
,nan,nan,wiederbelebt.,deutlich.,umzusetzen.,nan,Haus,nan,es,nan,nan,Rilke,nan,dummer,vermiest.,nan,Menge,wiederhergestellt.,genug.,sinken.,genug.,an,zweiten,nan,nan,kaufen.,gerne.,nan,nan,nan,Honig,nan,nan,nan,dunkler,wurden.,gepasst.,nan,nan,nan,nan,Milch.,nan,nan,nan,schon,dunkle,besprochen.,schon,nan,nan,nan,nan,nan,deutlich.,nan,Milch.,nan,im,rekonstruiert.,berührt.,nan,nan,Menge,nan,gepasst,Medikament,nan,nan,Schule.,zweiten,nan,nan,berührt.,gefertigt.,nan,Haus,nan,wurden.,nan,nan,Honigs,im,nan,nan,nan,nan,wieder,an,Rilke.,dumme,Schule.,nan,nan,nan,nan,gerne.,nan,,,,,,,,,,,,,,,,,,,,,,,0,0,0,0,0,8,8,8,,,,,,,space,0.41928601265,,,,,2017_Jan_31_1301,59.6865332237,spr_backupper,001,Mo11,
,nan,nan,nan,nan,nan,nan,geschafft.,nan,regnete.,nan,nan,gelesen.,nan,Sprüche.,nan,nan,heiße,nan,nan,nan,nan,den,Weltkriegs.,nan,nan,nan,nan,nan,nan,nan,her.,nan,nan,nan,Materie,nan,nan,nan,nan,nan,nan,nan,nan,nan,nan,auf,Materie,nan,auf,nan,nan,nan,nan,nan,nan,nan,nan,nan,Landkreis.,nan,nan,nan,nan,heißer,nan,haben.,nicht,nan,nan,nan,Weltkriegs.,nan,nan,nan,nan,nan,geschafft.,nan,nan,nan,nan,her.,Landkreis.,nan,nan,nan,nan,fit.,den,nan,Sprüche.,nan,nan,nan,nan,nan,nan,nan,,,,,,,,,,,,,,,,,,,,,,,0,0,0,0,0,9,9,9,,,,,,,space,0.538054943085,,,,,2017_Jan_31_1301,59.6865332237,spr_backupper,001,Mo11,
,,,,,,,,,,,,,,,,,,,,,,,,,,,,,,,,,,,,,,,,,,,,,,,,,,,,,,,,,,,,,,,,,,,,,,,,,,,,,,,,,,,,,,,,,,,,,,,,,,,,,,,,,,,,,,,,,,,,,,,,,0,0,0,0,,,,,,,,,,,,,None,j,3.43842291832,,2017_Jan_31_1301,59.6865332237,spr_backupper,001,Mo11,
,Der,Die,Die,Im,Jetzt,Viele,Wir,Dort,Es,Sie,Wir,In,Die,Sie,Dass,Viele,Man,Danach,100,Ihr,100,Ich,Bei,Die,Die,Jugendliche,Wir,Wir,Die,Sie,Er,Am,Die,Manche,Mit,Es,Die,Außer,Die,Außer,Beträchtliche,In,Wir,Wir,Sie,Bei,Mit,Sie,Bei,Die,Als,Es,Beträchtliche,In,Im,Er,In,Die,In,Das,Nicht,Jungtiere,Er,Man,Die,Die,In,Sie,Außer,Die,Bei,Die,Fernab,Nicht,Er,Die,Wir,Die,Es,Unter,Die,Er,In,Die,Die,Wir,Walter,Ich,Ich,In,Sie,Die,Alle,Am,Dort,Außer,Wir,Es,,,,,,,,,,,,,,,,,,,,,,,1,0,1,0,0,0,0,0,,,,,,None,space,0.556360006332,,,,,2017_Jan_31_1301,59.6865332237,spr_backupper,001,Mo11,
,Flug,Uhr,müden,Fernrohr,ist,Tonnen,haben,türmen,hat,verlassen,konnten,meinem,Lösung,hatte,es,Tonnen,machte,wurde,g,Blutdruck,g,nehme,der,Teilnehmerinnen,Eislaufbahnen,können,übergaben,mussten,Formen,verbrauchen,stellt,äußeren,Uhr,Kreditnehmer,dieser,waren,Schuhe,den,Gäste,dem,Stücke,den,hatten,mussten,verbrauchen,unserer,dieser,haben,unserer,Schule,die,wurden,Stücke,diesem,Fernrohr,wurde,den,Autos,der,Tuch,ein,sollten,wurde,machte,Schule,Schuhe,einer,verlassen,dem,Kinder,der,Gäste,des,ein,hat,Autos,haben,Stücke,waren,keinen,"Uhr,",stellt,der,Linie,Uhr,hatten,Scheel,wurde,nehme,meinem,hatte,Kinder,Betten,äußersten,türmen,das,übergaben,wurden,,,,,,,,,,,,,,,,,,,,,,,1,0,1,0,0,1,1,1,,,,,,,space,0.504133939743,,,,,2017_Jan_31_1301,59.6865332237,spr_backupper,001,Mo11,
,zum,schlug,Teilnehmer,sahen,genau,gebrauchte,jede,sich,uns,wegen,dann,Studium,wird,keine,"regnete,",gebrauchter,mal,die,braunen,kann,brauner,eine,Feier,wussten,wurden,Kleidung,dem,uns,wurden,60,die,Rand,war,sind,Methode,nur,in,Bürgermeister,suchen,Essen,saftiges,Kakao,in,uns,60,Ankunft,Methode,die,Ankunft,verbraucht,Sonne,Eimer,saftigen,Zirkus,sahen,trotz,Kakao,beider,Tat,wurde,Tropfen,immer,trotz,mal,verbraucht,in,Studie,wegen,Bürgermeister,fuhren,Feier,suchen,Rummels,Tropfen,ein,beider,jede,wurden,nur,Umständen,die,die,Tat,101,schlug,in,war,damals,eine,Studium,keine,fuhren,wurden,Rand,sich,Essen,das,Eimer,,,,,,,,,,,,,,,,,,,,,,,1,0,1,0,0,2,2,2,,,,,,,space,0.406541824341,,,,,2017_Jan_31_1301,59.6865332237,spr_backupper,001,Mo11,
,Mond,"sporadisch,",wurden,wir,die,Kleidung,Menge,Berge,die,des,mit,habe,mit,Lust,hat,Kleidung,wieder,Leinwand,Zuckers,schon,Zucker,große,gedachte,überwiegend,mit,bei,Mann,durch,unter,Liter,Masse,der,aus,mit,kann,kleinere,Größe,beschuldigten,die,kann,Fleisch,gehören,Dänemark,durch,Liter,stand,kann,Erlebnisse,stand,260.000,"unterging,",rote,Fleischs,werden,wir,dem,gehören,beteiligten,wissen,dann,königlichen,auf,des,wieder,260.000,Größe,wurde,dem,beschuldigten,mit,gedachte,die,wurde,königliches,Hemd,beteiligter,Menge,aus,kleinere,können,er,Masse,wissen,hält,"sporadisch,",Dänemark,der,schnell,große,las,Lust,mit,mit,der,Berge,kann,Auto,roter,,,,,,,,,,,,,,,,,,,,,,,1,0,1,0,0,3,3,3,,,,,,,space,0.531522989273,,,,,2017_Jan_31_1301,59.6865332237,spr_backupper,001,Mo11,
,dauerte,obwohl,mit,den,richtige,landen,alten,schmutziger,Stimmung,schönen,"minimalem,",ich,"reichlichem,",auf,uns,landen,viel,aus,sind,bei,sind,Packung,man,"nicht,",dauerhaftem,ausreichendem,das,Büschel,"regelmäßigem,",sprudelndes,mit,Stadt,"Japan,","sämtlichem,",man,"Delikte,",36,die,Wohnung,ich,wurden,immer,einen,Büschel,sprudelnden,ein,man,bei,ein,Kilowattstunden,war,Farbe,wurden,die,den,bekannten,immer,Fahrer,wir,mit,Bluts,warmem,bekannten,viel,Kilowattstunden,36,jetzt,schönen,die,solch,man,Wohnung,schon,Blut,aus,Fahrer,alten,"wertvollem,","Delikte,",Neuwahlen,"trug,",mit,wir,nicht,obschon,gelegentlich,vierte,dank,Packung,ich,auf,solchen,"üblichem,",Stadt,schmutzige,ich,dem,Farbe,,,,,,,,,,,,,,,,,,,,,,,1,0,1,0,0,4,4,4,,,,,,,space,0.453112125397,,,,,2017_Jan_31_1301,59.6865332237,spr_backupper,001,Mo11,
,ungefähr,sie,zusätzlichem,roten,"Zeit,",im,Kram,Wäsche.,ziemlich,Wetters,sauberen,mehr,purem,noch,die,im,Lärm,seltenem,auf,minimalem,auf,salziger,der,was,feinem,monatlichem,Auto,frischen,kaltem,Trinkwasser.,einem,liegen,die,künftigem,eine,deren,hätten,Störenfriede,des,leider,serviert.,350,gelegentlichen,frisches,Trinkwassers.,Glas,eine,"frischem,",Glas,elektrischer,die,geschleudert.,serviert.,Tiere,roten,Skandal,350,wurden,von,"reichem,",hat,weichem,Skandals,Lärm,elektrische,würden,"nachgewiesen,",Wetter,Störenfriede,unzureichenden,den,des,immer,hat,feinem,wurden,Krams,klassischen,derer,vor,war,einem,um,am,sie,einen,Bundespräsident.,täglichem,salzige,mehr,noch,unzureichenden,harten,liegen,Wäsche.,leider,Mann,geschleudert.,,,,,,,,,,,,,,,,,,,,,,,1,0,1,0,0,5,5,5,,,,,,,space,0.443758010864,,,,,2017_Jan_31_1301,59.6865332237,spr_backupper,001,Mo11,
,drei,defekt,schwarzem,Planeten,um,Müll.,aus,nan,"vermiest,",die,Kraftstoff,als,Alkohol,eine,Stimmung,Müll.,um,dichten,jeden,täglichen,jeden,Wurst,Soldaten,Tupperware,Kunsteis,Taschengeld,mehr,Grases,Abduschen,nan,Esslöffel,die,er,Einkommen,große,sie,seiner,jeden.,Herrn,nichts,nan,ml,Besucher.,Gras,nan,köstlichen,große,kaltem,köstlicher,Energie.,Flut,nan,nan,artgerecht,Planet,wiedergewählt.,ml,verschrottet.,den,goldenen,den,Untergrund,wiedergewählt.,um,Energie.,seiner,dass,die,jeden.,Helmen,Soldaten,Herrn,ruhig,den,dichten,verschrottet.,aus,Schmuck,sie,Dezember,aus,Esslöffel,die,Hauptbahnhof.,defekt,Besucher.,nan,grünen,Wurst,als,eine,Helmen,Schaumstoff,die,nan,nichts,mehr,nan,,,,,,,,,,,,,,,,,,,,,,,1,0,1,0,0,6,6,6,,,,,,,space,0.433912038803,,,,,2017_Jan_31_1301,59.6865332237,spr_backupper,001,Mo11,
,,,,,,,,,,,,,,,,,,,,,,,,,,,,,,,,,,,,,,,,,,,,,,,,,,,,,,,,,,,,,,,,,,,,,,,,,,,,,,,,,,,,,,,,,,,,,,,,,,,,,,,,,,,,,,,,,,,,,,,,,1,0,1,0,,,,,,,,,,,,,None,j,5.45701813698,,2017_Jan_31_1301,59.6865332237,spr_backupper,001,Mo11,
,Der,Die,Die,Im,Jetzt,Viele,Wir,Dort,Es,Sie,Wir,In,Die,Sie,Dass,Viele,Man,Danach,100,Ihr,100,Ich,Bei,Die,Die,Jugendliche,Wir,Wir,Die,Sie,Er,Am,Die,Manche,Mit,Es,Die,Außer,Die,Außer,Beträchtliche,In,Wir,Wir,Sie,Bei,Mit,Sie,Bei,Die,Als,Es,Beträchtliche,In,Im,Er,In,Die,In,Das,Nicht,Jungtiere,Er,Man,Die,Die,In,Sie,Außer,Die,Bei,Die,Fernab,Nicht,Er,Die,Wir,Die,Es,Unter,Die,Er,In,Die,Die,Wir,Walter,Ich,Ich,In,Sie,Die,Alle,Am,Dort,Außer,Wir,Es,,,,,,,,,,,,,,,,,,,,,,,2,0,2,0,0,0,0,0,,,,,,None,space,2.14830517769,,,,,2017_Jan_31_1301,59.6865332237,spr_backupper,001,Mo11,
,Flug,Uhr,müden,Fernrohr,ist,Tonnen,haben,türmen,hat,verlassen,konnten,meinem,Lösung,hatte,es,Tonnen,machte,wurde,g,Blutdruck,g,nehme,der,Teilnehmerinnen,Eislaufbahnen,können,übergaben,mussten,Formen,verbrauchen,stellt,äußeren,Uhr,Kreditnehmer,dieser,waren,Schuhe,den,Gäste,dem,Stücke,den,hatten,mussten,verbrauchen,unserer,dieser,haben,unserer,Schule,die,wurden,Stücke,diesem,Fernrohr,wurde,den,Autos,der,Tuch,ein,sollten,wurde,machte,Schule,Schuhe,einer,verlassen,dem,Kinder,der,Gäste,des,ein,hat,Autos,haben,Stücke,waren,keinen,"Uhr,",stellt,der,Linie,Uhr,hatten,Scheel,wurde,nehme,meinem,hatte,Kinder,Betten,äußersten,türmen,das,übergaben,wurden,,,,,,,,,,,,,,,,,,,,,,,2,0,2,0,0,1,1,1,,,,,,,space,0.528437852859,,,,,2017_Jan_31_1301,59.6865332237,spr_backupper,001,Mo11,
,zum,schlug,Teilnehmer,sahen,genau,gebrauchte,jede,sich,uns,wegen,dann,Studium,wird,keine,"regnete,",gebrauchter,mal,die,braunen,kann,brauner,eine,Feier,wussten,wurden,Kleidung,dem,uns,wurden,60,die,Rand,war,sind,Methode,nur,in,Bürgermeister,suchen,Essen,saftiges,Kakao,in,uns,60,Ankunft,Methode,die,Ankunft,verbraucht,Sonne,Eimer,saftigen,Zirkus,sahen,trotz,Kakao,beider,Tat,wurde,Tropfen,immer,trotz,mal,verbraucht,in,Studie,wegen,Bürgermeister,fuhren,Feier,suchen,Rummels,Tropfen,ein,beider,jede,wurden,nur,Umständen,die,die,Tat,101,schlug,in,war,damals,eine,Studium,keine,fuhren,wurden,Rand,sich,Essen,das,Eimer,,,,,,,,,,,,,,,,,,,,,,,2,0,2,0,0,2,2,2,,,,,,,space,0.475803136826,,,,,2017_Jan_31_1301,59.6865332237,spr_backupper,001,Mo11,
,Mond,"sporadisch,",wurden,wir,die,Kleidung,Menge,Berge,die,des,mit,habe,mit,Lust,hat,Kleidung,wieder,Leinwand,Zuckers,schon,Zucker,große,gedachte,überwiegend,mit,bei,Mann,durch,unter,Liter,Masse,der,aus,mit,kann,kleinere,Größe,beschuldigten,die,kann,Fleisch,gehören,Dänemark,durch,Liter,stand,kann,Erlebnisse,stand,260.000,"unterging,",rote,Fleischs,werden,wir,dem,gehören,beteiligten,wissen,dann,königlichen,auf,des,wieder,260.000,Größe,wurde,dem,beschuldigten,mit,gedachte,die,wurde,königliches,Hemd,beteiligter,Menge,aus,kleinere,können,er,Masse,wissen,hält,"sporadisch,",Dänemark,der,schnell,große,las,Lust,mit,mit,der,Berge,kann,Auto,roter,,,,,,,,,,,,,,,,,,,,,,,2,0,2,0,0,3,3,3,,,,,,,space,0.503176212311,,,,,2017_Jan_31_1301,59.6865332237,spr_backupper,001,Mo11,
,dauerte,obwohl,mit,den,richtige,landen,alten,schmutziger,Stimmung,schönen,"minimalem,",ich,"reichlichem,",auf,uns,landen,viel,aus,sind,bei,sind,Packung,man,"nicht,",dauerhaftem,ausreichendem,das,Büschel,"regelmäßigem,",sprudelndes,mit,Stadt,"Japan,","sämtlichem,",man,"Delikte,",36,die,Wohnung,ich,wurden,immer,einen,Büschel,sprudelnden,ein,man,bei,ein,Kilowattstunden,war,Farbe,wurden,die,den,bekannten,immer,Fahrer,wir,mit,Bluts,warmem,bekannten,viel,Kilowattstunden,36,jetzt,schönen,die,solch,man,Wohnung,schon,Blut,aus,Fahrer,alten,"wertvollem,","Delikte,",Neuwahlen,"trug,",mit,wir,nicht,obschon,gelegentlich,vierte,dank,Packung,ich,auf,solchen,"üblichem,",Stadt,schmutzige,ich,dem,Farbe,,,,,,,,,,,,,,,,,,,,,,,2,0,2,0,0,4,4,4,,,,,,,space,0.502376079559,,,,,2017_Jan_31_1301,59.6865332237,spr_backupper,001,Mo11,
,ungefähr,sie,zusätzlichem,roten,"Zeit,",im,Kram,Wäsche.,ziemlich,Wetters,sauberen,mehr,purem,noch,die,im,Lärm,seltenem,auf,minimalem,auf,salziger,der,was,feinem,monatlichem,Auto,frischen,kaltem,Trinkwasser.,einem,liegen,die,künftigem,eine,deren,hätten,Störenfriede,des,leider,serviert.,350,gelegentlichen,frisches,Trinkwassers.,Glas,eine,"frischem,",Glas,elektrischer,die,geschleudert.,serviert.,Tiere,roten,Skandal,350,wurden,von,"reichem,",hat,weichem,Skandals,Lärm,elektrische,würden,"nachgewiesen,",Wetter,Störenfriede,unzureichenden,den,des,immer,hat,feinem,wurden,Krams,klassischen,derer,vor,war,einem,um,am,sie,einen,Bundespräsident.,täglichem,salzige,mehr,noch,unzureichenden,harten,liegen,Wäsche.,leider,Mann,geschleudert.,,,,,,,,,,,,,,,,,,,,,,,2,0,2,0,0,5,5,5,,,,,,,space,0.503742933273,,,,,2017_Jan_31_1301,59.6865332237,spr_backupper,001,Mo11,
,drei,defekt,schwarzem,Planeten,um,Müll.,aus,nan,"vermiest,",die,Kraftstoff,als,Alkohol,eine,Stimmung,Müll.,um,dichten,jeden,täglichen,jeden,Wurst,Soldaten,Tupperware,Kunsteis,Taschengeld,mehr,Grases,Abduschen,nan,Esslöffel,die,er,Einkommen,große,sie,seiner,jeden.,Herrn,nichts,nan,ml,Besucher.,Gras,nan,köstlichen,große,kaltem,köstlicher,Energie.,Flut,nan,nan,artgerecht,Planet,wiedergewählt.,ml,verschrottet.,den,goldenen,den,Untergrund,wiedergewählt.,um,Energie.,seiner,dass,die,jeden.,Helmen,Soldaten,Herrn,ruhig,den,dichten,verschrottet.,aus,Schmuck,sie,Dezember,aus,Esslöffel,die,Hauptbahnhof.,defekt,Besucher.,nan,grünen,Wurst,als,eine,Helmen,Schaumstoff,die,nan,nichts,mehr,nan,,,,,,,,,,,,,,,,,,,,,,,2,0,2,0,0,6,6,6,,,,,,,space,0.603091955185,,,,,2017_Jan_31_1301,59.6865332237,spr_backupper,001,Mo11,
,Tage.,war.,Kaffee,ganz,Nadelhölzer,nan,dem,nan,dass,Wohnung.,fahren.,einmal,verdünnt.,Sammlung,ziemlich,nan,jede,Gewebe,Fall,Einsatz,Fall,mit,des,ist.,eingesprüht.,selber,als,zwängen.,gehärtet.,nan,warmem,Slums.,trug.,haftbar.,Menge,überführt,Frau,nan,Gantenbeins.,mitbringen.,nan,warme,nan,zwängen.,nan,Weins,Menge,Saft,Wein,nan,zurückgekehrt.,nan,nan,gehalten.,ganz,nan,warmer,nan,Problemen,Besatz,Boden,liegen.,nan,jede,nan,Frau,das,Wohnung.,nan,zur,des,Gantenbein.,diskutiert.,Boden,Stoff,nan,dem,umgearbeitet.,überführt,stattfinden.,Japan.,warmen,Probleme,nan,war.,nan,nan,Tee,mit,einmal,Sammlung,zur,gefertigt.,Slums.,nan,mitbringen.,als,nan,,,,,,,,,,,,,,,,,,,,,,,2,0,2,0,0,7,7,7,,,,,,,space,0.735437870026,,,,,2017_Jan_31_1301,59.6865332237,spr_backupper,001,Mo11,
,nan,nan,wiederbelebt.,deutlich.,umzusetzen.,nan,Haus,nan,es,nan,nan,Rilke,nan,dummer,vermiest.,nan,Menge,wiederhergestellt.,genug.,sinken.,genug.,an,zweiten,nan,nan,kaufen.,gerne.,nan,nan,nan,Honig,nan,nan,nan,dunkler,wurden.,gepasst.,nan,nan,nan,nan,Milch.,nan,nan,nan,schon,dunkle,besprochen.,schon,nan,nan,nan,nan,nan,deutlich.,nan,Milch.,nan,im,rekonstruiert.,berührt.,nan,nan,Menge,nan,gepasst,Medikament,nan,nan,Schule.,zweiten,nan,nan,berührt.,gefertigt.,nan,Haus,nan,wurden.,nan,nan,Honigs,im,nan,nan,nan,nan,wieder,an,Rilke.,dumme,Schule.,nan,nan,nan,nan,gerne.,nan,,,,,,,,,,,,,,,,,,,,,,,2,0,2,0,0,8,8,8,,,,,,,space,0.587704181671,,,,,2017_Jan_31_1301,59.6865332237,spr_backupper,001,Mo11,
,,,,,,,,,,,,,,,,,,,,,,,,,,,,,,,,,,,,,,,,,,,,,,,,,,,,,,,,,,,,,,,,,,,,,,,,,,,,,,,,,,,,,,,,,,,,,,,,,,,,,,,,,,,,,,,,,,,,,,,,,2,0,2,0,,,,,,,,,,,,,None,j,3.55592393875,,2017_Jan_31_1301,59.6865332237,spr_backupper,001,Mo11,
,Der,Die,Die,Im,Jetzt,Viele,Wir,Dort,Es,Sie,Wir,In,Die,Sie,Dass,Viele,Man,Danach,100,Ihr,100,Ich,Bei,Die,Die,Jugendliche,Wir,Wir,Die,Sie,Er,Am,Die,Manche,Mit,Es,Die,Außer,Die,Außer,Beträchtliche,In,Wir,Wir,Sie,Bei,Mit,Sie,Bei,Die,Als,Es,Beträchtliche,In,Im,Er,In,Die,In,Das,Nicht,Jungtiere,Er,Man,Die,Die,In,Sie,Außer,Die,Bei,Die,Fernab,Nicht,Er,Die,Wir,Die,Es,Unter,Die,Er,In,Die,Die,Wir,Walter,Ich,Ich,In,Sie,Die,Alle,Am,Dort,Außer,Wir,Es,,,,,,,,,,,,,,,,,,,,,,,3,0,3,0,0,0,0,0,,,,,,None,space,1.1755900383,,,,,2017_Jan_31_1301,59.6865332237,spr_backupper,001,Mo11,
,Flug,Uhr,müden,Fernrohr,ist,Tonnen,haben,türmen,hat,verlassen,konnten,meinem,Lösung,hatte,es,Tonnen,machte,wurde,g,Blutdruck,g,nehme,der,Teilnehmerinnen,Eislaufbahnen,können,übergaben,mussten,Formen,verbrauchen,stellt,äußeren,Uhr,Kreditnehmer,dieser,waren,Schuhe,den,Gäste,dem,Stücke,den,hatten,mussten,verbrauchen,unserer,dieser,haben,unserer,Schule,die,wurden,Stücke,diesem,Fernrohr,wurde,den,Autos,der,Tuch,ein,sollten,wurde,machte,Schule,Schuhe,einer,verlassen,dem,Kinder,der,Gäste,des,ein,hat,Autos,haben,Stücke,waren,keinen,"Uhr,",stellt,der,Linie,Uhr,hatten,Scheel,wurde,nehme,meinem,hatte,Kinder,Betten,äußersten,türmen,das,übergaben,wurden,,,,,,,,,,,,,,,,,,,,,,,3,0,3,0,0,1,1,1,,,,,,,space,0.750660181046,,,,,2017_Jan_31_1301,59.6865332237,spr_backupper,001,Mo11,
,zum,schlug,Teilnehmer,sahen,genau,gebrauchte,jede,sich,uns,wegen,dann,Studium,wird,keine,"regnete,",gebrauchter,mal,die,braunen,kann,brauner,eine,Feier,wussten,wurden,Kleidung,dem,uns,wurden,60,die,Rand,war,sind,Methode,nur,in,Bürgermeister,suchen,Essen,saftiges,Kakao,in,uns,60,Ankunft,Methode,die,Ankunft,verbraucht,Sonne,Eimer,saftigen,Zirkus,sahen,trotz,Kakao,beider,Tat,wurde,Tropfen,immer,trotz,mal,verbraucht,in,Studie,wegen,Bürgermeister,fuhren,Feier,suchen,Rummels,Tropfen,ein,beider,jede,wurden,nur,Umständen,die,die,Tat,101,schlug,in,war,damals,eine,Studium,keine,fuhren,wurden,Rand,sich,Essen,das,Eimer,,,,,,,,,,,,,,,,,,,,,,,3,0,3,0,0,2,2,2,,,,,,,space,0.688215017319,,,,,2017_Jan_31_1301,59.6865332237,spr_backupper,001,Mo11,
,Mond,"sporadisch,",wurden,wir,die,Kleidung,Menge,Berge,die,des,mit,habe,mit,Lust,hat,Kleidung,wieder,Leinwand,Zuckers,schon,Zucker,große,gedachte,überwiegend,mit,bei,Mann,durch,unter,Liter,Masse,der,aus,mit,kann,kleinere,Größe,beschuldigten,die,kann,Fleisch,gehören,Dänemark,durch,Liter,stand,kann,Erlebnisse,stand,260.000,"unterging,",rote,Fleischs,werden,wir,dem,gehören,beteiligten,wissen,dann,königlichen,auf,des,wieder,260.000,Größe,wurde,dem,beschuldigten,mit,gedachte,die,wurde,königliches,Hemd,beteiligter,Menge,aus,kleinere,können,er,Masse,wissen,hält,"sporadisch,",Dänemark,der,schnell,große,las,Lust,mit,mit,der,Berge,kann,Auto,roter,,,,,,,,,,,,,,,,,,,,,,,3,0,3,0,0,3,3,3,,,,,,,space,0.44930100441,,,,,2017_Jan_31_1301,59.6865332237,spr_backupper,001,Mo11,
,dauerte,obwohl,mit,den,richtige,landen,alten,schmutziger,Stimmung,schönen,"minimalem,",ich,"reichlichem,",auf,uns,landen,viel,aus,sind,bei,sind,Packung,man,"nicht,",dauerhaftem,ausreichendem,das,Büschel,"regelmäßigem,",sprudelndes,mit,Stadt,"Japan,","sämtlichem,",man,"Delikte,",36,die,Wohnung,ich,wurden,immer,einen,Büschel,sprudelnden,ein,man,bei,ein,Kilowattstunden,war,Farbe,wurden,die,den,bekannten,immer,Fahrer,wir,mit,Bluts,warmem,bekannten,viel,Kilowattstunden,36,jetzt,schönen,die,solch,man,Wohnung,schon,Blut,aus,Fahrer,alten,"wertvollem,","Delikte,",Neuwahlen,"trug,",mit,wir,nicht,obschon,gelegentlich,vierte,dank,Packung,ich,auf,solchen,"üblichem,",Stadt,schmutzige,ich,dem,Farbe,,,,,,,,,,,,,,,,,,,,,,,3,0,3,0,0,4,4,4,,,,,,,space,0.838295936584,,,,,2017_Jan_31_1301,59.6865332237,spr_backupper,001,Mo11,
,ungefähr,sie,zusätzlichem,roten,"Zeit,",im,Kram,Wäsche.,ziemlich,Wetters,sauberen,mehr,purem,noch,die,im,Lärm,seltenem,auf,minimalem,auf,salziger,der,was,feinem,monatlichem,Auto,frischen,kaltem,Trinkwasser.,einem,liegen,die,künftigem,eine,deren,hätten,Störenfriede,des,leider,serviert.,350,gelegentlichen,frisches,Trinkwassers.,Glas,eine,"frischem,",Glas,elektrischer,die,geschleudert.,serviert.,Tiere,roten,Skandal,350,wurden,von,"reichem,",hat,weichem,Skandals,Lärm,elektrische,würden,"nachgewiesen,",Wetter,Störenfriede,unzureichenden,den,des,immer,hat,feinem,wurden,Krams,klassischen,derer,vor,war,einem,um,am,sie,einen,Bundespräsident.,täglichem,salzige,mehr,noch,unzureichenden,harten,liegen,Wäsche.,leider,Mann,geschleudert.,,,,,,,,,,,,,,,,,,,,,,,3,0,3,0,0,5,5,5,,,,,,,space,0.420154094696,,,,,2017_Jan_31_1301,59.6865332237,spr_backupper,001,Mo11,
,drei,defekt,schwarzem,Planeten,um,Müll.,aus,nan,"vermiest,",die,Kraftstoff,als,Alkohol,eine,Stimmung,Müll.,um,dichten,jeden,täglichen,jeden,Wurst,Soldaten,Tupperware,Kunsteis,Taschengeld,mehr,Grases,Abduschen,nan,Esslöffel,die,er,Einkommen,große,sie,seiner,jeden.,Herrn,nichts,nan,ml,Besucher.,Gras,nan,köstlichen,große,kaltem,köstlicher,Energie.,Flut,nan,nan,artgerecht,Planet,wiedergewählt.,ml,verschrottet.,den,goldenen,den,Untergrund,wiedergewählt.,um,Energie.,seiner,dass,die,jeden.,Helmen,Soldaten,Herrn,ruhig,den,dichten,verschrottet.,aus,Schmuck,sie,Dezember,aus,Esslöffel,die,Hauptbahnhof.,defekt,Besucher.,nan,grünen,Wurst,als,eine,Helmen,Schaumstoff,die,nan,nichts,mehr,nan,,,,,,,,,,,,,,,,,,,,,,,3,0,3,0,0,6,6,6,,,,,,,space,0.53676199913,,,,,2017_Jan_31_1301,59.6865332237,spr_backupper,001,Mo11,
,Tage.,war.,Kaffee,ganz,Nadelhölzer,nan,dem,nan,dass,Wohnung.,fahren.,einmal,verdünnt.,Sammlung,ziemlich,nan,jede,Gewebe,Fall,Einsatz,Fall,mit,des,ist.,eingesprüht.,selber,als,zwängen.,gehärtet.,nan,warmem,Slums.,trug.,haftbar.,Menge,überführt,Frau,nan,Gantenbeins.,mitbringen.,nan,warme,nan,zwängen.,nan,Weins,Menge,Saft,Wein,nan,zurückgekehrt.,nan,nan,gehalten.,ganz,nan,warmer,nan,Problemen,Besatz,Boden,liegen.,nan,jede,nan,Frau,das,Wohnung.,nan,zur,des,Gantenbein.,diskutiert.,Boden,Stoff,nan,dem,umgearbeitet.,überführt,stattfinden.,Japan.,warmen,Probleme,nan,war.,nan,nan,Tee,mit,einmal,Sammlung,zur,gefertigt.,Slums.,nan,mitbringen.,als,nan,,,,,,,,,,,,,,,,,,,,,,,3,0,3,0,0,7,7,7,,,,,,,space,0.506497144699,,,,,2017_Jan_31_1301,59.6865332237,spr_backupper,001,Mo11,
,nan,nan,wiederbelebt.,deutlich.,umzusetzen.,nan,Haus,nan,es,nan,nan,Rilke,nan,dummer,vermiest.,nan,Menge,wiederhergestellt.,genug.,sinken.,genug.,an,zweiten,nan,nan,kaufen.,gerne.,nan,nan,nan,Honig,nan,nan,nan,dunkler,wurden.,gepasst.,nan,nan,nan,nan,Milch.,nan,nan,nan,schon,dunkle,besprochen.,schon,nan,nan,nan,nan,nan,deutlich.,nan,Milch.,nan,im,rekonstruiert.,berührt.,nan,nan,Menge,nan,gepasst,Medikament,nan,nan,Schule.,zweiten,nan,nan,berührt.,gefertigt.,nan,Haus,nan,wurden.,nan,nan,Honigs,im,nan,nan,nan,nan,wieder,an,Rilke.,dumme,Schule.,nan,nan,nan,nan,gerne.,nan,,,,,,,,,,,,,,,,,,,,,,,3,0,3,0,0,8,8,8,,,,,,,space,0.738243103027,,,,,2017_Jan_31_1301,59.6865332237,spr_backupper,001,Mo11,
,nan,nan,nan,nan,nan,nan,geschafft.,nan,regnete.,nan,nan,gelesen.,nan,Sprüche.,nan,nan,heiße,nan,nan,nan,nan,den,Weltkriegs.,nan,nan,nan,nan,nan,nan,nan,her.,nan,nan,nan,Materie,nan,nan,nan,nan,nan,nan,nan,nan,nan,nan,auf,Materie,nan,auf,nan,nan,nan,nan,nan,nan,nan,nan,nan,Landkreis.,nan,nan,nan,nan,heißer,nan,haben.,nicht,nan,nan,nan,Weltkriegs.,nan,nan,nan,nan,nan,geschafft.,nan,nan,nan,nan,her.,Landkreis.,nan,nan,nan,nan,fit.,den,nan,Sprüche.,nan,nan,nan,nan,nan,nan,nan,,,,,,,,,,,,,,,,,,,,,,,3,0,3,0,0,9,9,9,,,,,,,space,0.419319152832,,,,,2017_Jan_31_1301,59.6865332237,spr_backupper,001,Mo11,
,,,,,,,,,,,,,,,,,,,,,,,,,,,,,,,,,,,,,,,,,,,,,,,,,,,,,,,,,,,,,,,,,,,,,,,,,,,,,,,,,,,,,,,,,,,,,,,,,,,,,,,,,,,,,,,,,,,,,,,,,3,0,3,0,,,,,,,,,,,,,None,j,3.55474996567,,2017_Jan_31_1301,59.6865332237,spr_backupper,001,Mo11,
,Der,Die,Die,Im,Jetzt,Viele,Wir,Dort,Es,Sie,Wir,In,Die,Sie,Dass,Viele,Man,Danach,100,Ihr,100,Ich,Bei,Die,Die,Jugendliche,Wir,Wir,Die,Sie,Er,Am,Die,Manche,Mit,Es,Die,Außer,Die,Außer,Beträchtliche,In,Wir,Wir,Sie,Bei,Mit,Sie,Bei,Die,Als,Es,Beträchtliche,In,Im,Er,In,Die,In,Das,Nicht,Jungtiere,Er,Man,Die,Die,In,Sie,Außer,Die,Bei,Die,Fernab,Nicht,Er,Die,Wir,Die,Es,Unter,Die,Er,In,Die,Die,Wir,Walter,Ich,Ich,In,Sie,Die,Alle,Am,Dort,Außer,Wir,Es,,,,,,,,,,,,,,,,,,,,,,,4,0,4,0,0,0,0,0,,,,,,None,space,0.732574939728,,,,,2017_Jan_31_1301,59.6865332237,spr_backupper,001,Mo11,
,Flug,Uhr,müden,Fernrohr,ist,Tonnen,haben,türmen,hat,verlassen,konnten,meinem,Lösung,hatte,es,Tonnen,machte,wurde,g,Blutdruck,g,nehme,der,Teilnehmerinnen,Eislaufbahnen,können,übergaben,mussten,Formen,verbrauchen,stellt,äußeren,Uhr,Kreditnehmer,dieser,waren,Schuhe,den,Gäste,dem,Stücke,den,hatten,mussten,verbrauchen,unserer,dieser,haben,unserer,Schule,die,wurden,Stücke,diesem,Fernrohr,wurde,den,Autos,der,Tuch,ein,sollten,wurde,machte,Schule,Schuhe,einer,verlassen,dem,Kinder,der,Gäste,des,ein,hat,Autos,haben,Stücke,waren,keinen,"Uhr,",stellt,der,Linie,Uhr,hatten,Scheel,wurde,nehme,meinem,hatte,Kinder,Betten,äußersten,türmen,das,übergaben,wurden,,,,,,,,,,,,,,,,,,,,,,,4,0,4,0,0,1,1,1,,,,,,,space,0.490118026733,,,,,2017_Jan_31_1301,59.6865332237,spr_backupper,001,Mo11,
,zum,schlug,Teilnehmer,sahen,genau,gebrauchte,jede,sich,uns,wegen,dann,Studium,wird,keine,"regnete,",gebrauchter,mal,die,braunen,kann,brauner,eine,Feier,wussten,wurden,Kleidung,dem,uns,wurden,60,die,Rand,war,sind,Methode,nur,in,Bürgermeister,suchen,Essen,saftiges,Kakao,in,uns,60,Ankunft,Methode,die,Ankunft,verbraucht,Sonne,Eimer,saftigen,Zirkus,sahen,trotz,Kakao,beider,Tat,wurde,Tropfen,immer,trotz,mal,verbraucht,in,Studie,wegen,Bürgermeister,fuhren,Feier,suchen,Rummels,Tropfen,ein,beider,jede,wurden,nur,Umständen,die,die,Tat,101,schlug,in,war,damals,eine,Studium,keine,fuhren,wurden,Rand,sich,Essen,das,Eimer,,,,,,,,,,,,,,,,,,,,,,,4,0,4,0,0,2,2,2,,,,,,,space,0.588721036911,,,,,2017_Jan_31_1301,59.6865332237,spr_backupper,001,Mo11,
,Mond,"sporadisch,",wurden,wir,die,Kleidung,Menge,Berge,die,des,mit,habe,mit,Lust,hat,Kleidung,wieder,Leinwand,Zuckers,schon,Zucker,große,gedachte,überwiegend,mit,bei,Mann,durch,unter,Liter,Masse,der,aus,mit,kann,kleinere,Größe,beschuldigten,die,kann,Fleisch,gehören,Dänemark,durch,Liter,stand,kann,Erlebnisse,stand,260.000,"unterging,",rote,Fleischs,werden,wir,dem,gehören,beteiligten,wissen,dann,königlichen,auf,des,wieder,260.000,Größe,wurde,dem,beschuldigten,mit,gedachte,die,wurde,königliches,Hemd,beteiligter,Menge,aus,kleinere,können,er,Masse,wissen,hält,"sporadisch,",Dänemark,der,schnell,große,las,Lust,mit,mit,der,Berge,kann,Auto,roter,,,,,,,,,,,,,,,,,,,,,,,4,0,4,0,0,3,3,3,,,,,,,space,0.59557390213,,,,,2017_Jan_31_1301,59.6865332237,spr_backupper,001,Mo11,
,dauerte,obwohl,mit,den,richtige,landen,alten,schmutziger,Stimmung,schönen,"minimalem,",ich,"reichlichem,",auf,uns,landen,viel,aus,sind,bei,sind,Packung,man,"nicht,",dauerhaftem,ausreichendem,das,Büschel,"regelmäßigem,",sprudelndes,mit,Stadt,"Japan,","sämtlichem,",man,"Delikte,",36,die,Wohnung,ich,wurden,immer,einen,Büschel,sprudelnden,ein,man,bei,ein,Kilowattstunden,war,Farbe,wurden,die,den,bekannten,immer,Fahrer,wir,mit,Bluts,warmem,bekannten,viel,Kilowattstunden,36,jetzt,schönen,die,solch,man,Wohnung,schon,Blut,aus,Fahrer,alten,"wertvollem,","Delikte,",Neuwahlen,"trug,",mit,wir,nicht,obschon,gelegentlich,vierte,dank,Packung,ich,auf,solchen,"üblichem,",Stadt,schmutzige,ich,dem,Farbe,,,,,,,,,,,,,,,,,,,,,,,4,0,4,0,0,4,4,4,,,,,,,space,1.02704501152,,,,,2017_Jan_31_1301,59.6865332237,spr_backupper,001,Mo11,
,ungefähr,sie,zusätzlichem,roten,"Zeit,",im,Kram,Wäsche.,ziemlich,Wetters,sauberen,mehr,purem,noch,die,im,Lärm,seltenem,auf,minimalem,auf,salziger,der,was,feinem,monatlichem,Auto,frischen,kaltem,Trinkwasser.,einem,liegen,die,künftigem,eine,deren,hätten,Störenfriede,des,leider,serviert.,350,gelegentlichen,frisches,Trinkwassers.,Glas,eine,"frischem,",Glas,elektrischer,die,geschleudert.,serviert.,Tiere,roten,Skandal,350,wurden,von,"reichem,",hat,weichem,Skandals,Lärm,elektrische,würden,"nachgewiesen,",Wetter,Störenfriede,unzureichenden,den,des,immer,hat,feinem,wurden,Krams,klassischen,derer,vor,war,einem,um,am,sie,einen,Bundespräsident.,täglichem,salzige,mehr,noch,unzureichenden,harten,liegen,Wäsche.,leider,Mann,geschleudert.,,,,,,,,,,,,,,,,,,,,,,,4,0,4,0,0,5,5,5,,,,,,,space,0.693765878677,,,,,2017_Jan_31_1301,59.6865332237,spr_backupper,001,Mo11,
,drei,defekt,schwarzem,Planeten,um,Müll.,aus,nan,"vermiest,",die,Kraftstoff,als,Alkohol,eine,Stimmung,Müll.,um,dichten,jeden,täglichen,jeden,Wurst,Soldaten,Tupperware,Kunsteis,Taschengeld,mehr,Grases,Abduschen,nan,Esslöffel,die,er,Einkommen,große,sie,seiner,jeden.,Herrn,nichts,nan,ml,Besucher.,Gras,nan,köstlichen,große,kaltem,köstlicher,Energie.,Flut,nan,nan,artgerecht,Planet,wiedergewählt.,ml,verschrottet.,den,goldenen,den,Untergrund,wiedergewählt.,um,Energie.,seiner,dass,die,jeden.,Helmen,Soldaten,Herrn,ruhig,den,dichten,verschrottet.,aus,Schmuck,sie,Dezember,aus,Esslöffel,die,Hauptbahnhof.,defekt,Besucher.,nan,grünen,Wurst,als,eine,Helmen,Schaumstoff,die,nan,nichts,mehr,nan,,,,,,,,,,,,,,,,,,,,,,,4,0,4,0,0,6,6,6,,,,,,,space,0.736461877823,,,,,2017_Jan_31_1301,59.6865332237,spr_backupper,001,Mo11,
,Tage.,war.,Kaffee,ganz,Nadelhölzer,nan,dem,nan,dass,Wohnung.,fahren.,einmal,verdünnt.,Sammlung,ziemlich,nan,jede,Gewebe,Fall,Einsatz,Fall,mit,des,ist.,eingesprüht.,selber,als,zwängen.,gehärtet.,nan,warmem,Slums.,trug.,haftbar.,Menge,überführt,Frau,nan,Gantenbeins.,mitbringen.,nan,warme,nan,zwängen.,nan,Weins,Menge,Saft,Wein,nan,zurückgekehrt.,nan,nan,gehalten.,ganz,nan,warmer,nan,Problemen,Besatz,Boden,liegen.,nan,jede,nan,Frau,das,Wohnung.,nan,zur,des,Gantenbein.,diskutiert.,Boden,Stoff,nan,dem,umgearbeitet.,überführt,stattfinden.,Japan.,warmen,Probleme,nan,war.,nan,nan,Tee,mit,einmal,Sammlung,zur,gefertigt.,Slums.,nan,mitbringen.,als,nan,,,,,,,,,,,,,,,,,,,,,,,4,0,4,0,0,7,7,7,,,,,,,space,0.593304157257,,,,,2017_Jan_31_1301,59.6865332237,spr_backupper,001,Mo11,
,,,,,,,,,,,,,,,,,,,,,,,,,,,,,,,,,,,,,,,,,,,,,,,,,,,,,,,,,,,,,,,,,,,,,,,,,,,,,,,,,,,,,,,,,,,,,,,,,,,,,,,,,,,,,,,,,,,,,,,,,4,0,4,0,,,,,,,,,,,,,None,n,2.95102190971,,2017_Jan_31_1301,59.6865332237,spr_backupper,001,Mo11,
,Der,Die,Die,Im,Jetzt,Viele,Wir,Dort,Es,Sie,Wir,In,Die,Sie,Dass,Viele,Man,Danach,100,Ihr,100,Ich,Bei,Die,Die,Jugendliche,Wir,Wir,Die,Sie,Er,Am,Die,Manche,Mit,Es,Die,Außer,Die,Außer,Beträchtliche,In,Wir,Wir,Sie,Bei,Mit,Sie,Bei,Die,Als,Es,Beträchtliche,In,Im,Er,In,Die,In,Das,Nicht,Jungtiere,Er,Man,Die,Die,In,Sie,Außer,Die,Bei,Die,Fernab,Nicht,Er,Die,Wir,Die,Es,Unter,Die,Er,In,Die,Die,Wir,Walter,Ich,Ich,In,Sie,Die,Alle,Am,Dort,Außer,Wir,Es,,,,,,,,,,,,,,,,,,,,,,,5,0,5,0,0,0,0,0,,,,,,None,space,1.01214194298,,,,,2017_Jan_31_1301,59.6865332237,spr_backupper,001,Mo11,
,Flug,Uhr,müden,Fernrohr,ist,Tonnen,haben,türmen,hat,verlassen,konnten,meinem,Lösung,hatte,es,Tonnen,machte,wurde,g,Blutdruck,g,nehme,der,Teilnehmerinnen,Eislaufbahnen,können,übergaben,mussten,Formen,verbrauchen,stellt,äußeren,Uhr,Kreditnehmer,dieser,waren,Schuhe,den,Gäste,dem,Stücke,den,hatten,mussten,verbrauchen,unserer,dieser,haben,unserer,Schule,die,wurden,Stücke,diesem,Fernrohr,wurde,den,Autos,der,Tuch,ein,sollten,wurde,machte,Schule,Schuhe,einer,verlassen,dem,Kinder,der,Gäste,des,ein,hat,Autos,haben,Stücke,waren,keinen,"Uhr,",stellt,der,Linie,Uhr,hatten,Scheel,wurde,nehme,meinem,hatte,Kinder,Betten,äußersten,türmen,das,übergaben,wurden,,,,,,,,,,,,,,,,,,,,,,,5,0,5,0,0,1,1,1,,,,,,,space,0.523810148239,,,,,2017_Jan_31_1301,59.6865332237,spr_backupper,001,Mo11,
,zum,schlug,Teilnehmer,sahen,genau,gebrauchte,jede,sich,uns,wegen,dann,Studium,wird,keine,"regnete,",gebrauchter,mal,die,braunen,kann,brauner,eine,Feier,wussten,wurden,Kleidung,dem,uns,wurden,60,die,Rand,war,sind,Methode,nur,in,Bürgermeister,suchen,Essen,saftiges,Kakao,in,uns,60,Ankunft,Methode,die,Ankunft,verbraucht,Sonne,Eimer,saftigen,Zirkus,sahen,trotz,Kakao,beider,Tat,wurde,Tropfen,immer,trotz,mal,verbraucht,in,Studie,wegen,Bürgermeister,fuhren,Feier,suchen,Rummels,Tropfen,ein,beider,jede,wurden,nur,Umständen,die,die,Tat,101,schlug,in,war,damals,eine,Studium,keine,fuhren,wurden,Rand,sich,Essen,das,Eimer,,,,,,,,,,,,,,,,,,,,,,,5,0,5,0,0,2,2,2,,,,,,,space,0.550343990326,,,,,2017_Jan_31_1301,59.6865332237,spr_backupper,001,Mo11,
,Mond,"sporadisch,",wurden,wir,die,Kleidung,Menge,Berge,die,des,mit,habe,mit,Lust,hat,Kleidung,wieder,Leinwand,Zuckers,schon,Zucker,große,gedachte,überwiegend,mit,bei,Mann,durch,unter,Liter,Masse,der,aus,mit,kann,kleinere,Größe,beschuldigten,die,kann,Fleisch,gehören,Dänemark,durch,Liter,stand,kann,Erlebnisse,stand,260.000,"unterging,",rote,Fleischs,werden,wir,dem,gehören,beteiligten,wissen,dann,königlichen,auf,des,wieder,260.000,Größe,wurde,dem,beschuldigten,mit,gedachte,die,wurde,königliches,Hemd,beteiligter,Menge,aus,kleinere,können,er,Masse,wissen,hält,"sporadisch,",Dänemark,der,schnell,große,las,Lust,mit,mit,der,Berge,kann,Auto,roter,,,,,,,,,,,,,,,,,,,,,,,5,0,5,0,0,3,3,3,,,,,,,space,0.563700199127,,,,,2017_Jan_31_1301,59.6865332237,spr_backupper,001,Mo11,
,dauerte,obwohl,mit,den,richtige,landen,alten,schmutziger,Stimmung,schönen,"minimalem,",ich,"reichlichem,",auf,uns,landen,viel,aus,sind,bei,sind,Packung,man,"nicht,",dauerhaftem,ausreichendem,das,Büschel,"regelmäßigem,",sprudelndes,mit,Stadt,"Japan,","sämtlichem,",man,"Delikte,",36,die,Wohnung,ich,wurden,immer,einen,Büschel,sprudelnden,ein,man,bei,ein,Kilowattstunden,war,Farbe,wurden,die,den,bekannten,immer,Fahrer,wir,mit,Bluts,warmem,bekannten,viel,Kilowattstunden,36,jetzt,schönen,die,solch,man,Wohnung,schon,Blut,aus,Fahrer,alten,"wertvollem,","Delikte,",Neuwahlen,"trug,",mit,wir,nicht,obschon,gelegentlich,vierte,dank,Packung,ich,auf,solchen,"üblichem,",Stadt,schmutzige,ich,dem,Farbe,,,,,,,,,,,,,,,,,,,,,,,5,0,5,0,0,4,4,4,,,,,,,space,0.551645994186,,,,,2017_Jan_31_1301,59.6865332237,spr_backupper,001,Mo11,
,ungefähr,sie,zusätzlichem,roten,"Zeit,",im,Kram,Wäsche.,ziemlich,Wetters,sauberen,mehr,purem,noch,die,im,Lärm,seltenem,auf,minimalem,auf,salziger,der,was,feinem,monatlichem,Auto,frischen,kaltem,Trinkwasser.,einem,liegen,die,künftigem,eine,deren,hätten,Störenfriede,des,leider,serviert.,350,gelegentlichen,frisches,Trinkwassers.,Glas,eine,"frischem,",Glas,elektrischer,die,geschleudert.,serviert.,Tiere,roten,Skandal,350,wurden,von,"reichem,",hat,weichem,Skandals,Lärm,elektrische,würden,"nachgewiesen,",Wetter,Störenfriede,unzureichenden,den,des,immer,hat,feinem,wurden,Krams,klassischen,derer,vor,war,einem,um,am,sie,einen,Bundespräsident.,täglichem,salzige,mehr,noch,unzureichenden,harten,liegen,Wäsche.,leider,Mann,geschleudert.,,,,,,,,,,,,,,,,,,,,,,,5,0,5,0,0,5,5,5,,,,,,,space,0.587188005447,,,,,2017_Jan_31_1301,59.6865332237,spr_backupper,001,Mo11,
,drei,defekt,schwarzem,Planeten,um,Müll.,aus,nan,"vermiest,",die,Kraftstoff,als,Alkohol,eine,Stimmung,Müll.,um,dichten,jeden,täglichen,jeden,Wurst,Soldaten,Tupperware,Kunsteis,Taschengeld,mehr,Grases,Abduschen,nan,Esslöffel,die,er,Einkommen,große,sie,seiner,jeden.,Herrn,nichts,nan,ml,Besucher.,Gras,nan,köstlichen,große,kaltem,köstlicher,Energie.,Flut,nan,nan,artgerecht,Planet,wiedergewählt.,ml,verschrottet.,den,goldenen,den,Untergrund,wiedergewählt.,um,Energie.,seiner,dass,die,jeden.,Helmen,Soldaten,Herrn,ruhig,den,dichten,verschrottet.,aus,Schmuck,sie,Dezember,aus,Esslöffel,die,Hauptbahnhof.,defekt,Besucher.,nan,grünen,Wurst,als,eine,Helmen,Schaumstoff,die,nan,nichts,mehr,nan,,,,,,,,,,,,,,,,,,,,,,,5,0,5,0,0,6,6,6,,,,,,,space,0.6378262043,,,,,2017_Jan_31_1301,59.6865332237,spr_backupper,001,Mo11,
,Tage.,war.,Kaffee,ganz,Nadelhölzer,nan,dem,nan,dass,Wohnung.,fahren.,einmal,verdünnt.,Sammlung,ziemlich,nan,jede,Gewebe,Fall,Einsatz,Fall,mit,des,ist.,eingesprüht.,selber,als,zwängen.,gehärtet.,nan,warmem,Slums.,trug.,haftbar.,Menge,überführt,Frau,nan,Gantenbeins.,mitbringen.,nan,warme,nan,zwängen.,nan,Weins,Menge,Saft,Wein,nan,zurückgekehrt.,nan,nan,gehalten.,ganz,nan,warmer,nan,Problemen,Besatz,Boden,liegen.,nan,jede,nan,Frau,das,Wohnung.,nan,zur,des,Gantenbein.,diskutiert.,Boden,Stoff,nan,dem,umgearbeitet.,überführt,stattfinden.,Japan.,warmen,Probleme,nan,war.,nan,nan,Tee,mit,einmal,Sammlung,zur,gefertigt.,Slums.,nan,mitbringen.,als,nan,,,,,,,,,,,,,,,,,,,,,,,5,0,5,0,0,7,7,7,,,,,,,space,0.803057909012,,,,,2017_Jan_31_1301,59.6865332237,spr_backupper,001,Mo11,
,,,,,,,,,,,,,,,,,,,,,,,,,,,,,,,,,,,,,,,,,,,,,,,,,,,,,,,,,,,,,,,,,,,,,,,,,,,,,,,,,,,,,,,,,,,,,,,,,,,,,,,,,,,,,,,,,,,,,,,,,5,0,5,0,,,,,,,,,,,,,None,j,3.00205302238,,2017_Jan_31_1301,59.6865332237,spr_backupper,001,Mo11,
,Der,Die,Die,Im,Jetzt,Viele,Wir,Dort,Es,Sie,Wir,In,Die,Sie,Dass,Viele,Man,Danach,100,Ihr,100,Ich,Bei,Die,Die,Jugendliche,Wir,Wir,Die,Sie,Er,Am,Die,Manche,Mit,Es,Die,Außer,Die,Außer,Beträchtliche,In,Wir,Wir,Sie,Bei,Mit,Sie,Bei,Die,Als,Es,Beträchtliche,In,Im,Er,In,Die,In,Das,Nicht,Jungtiere,Er,Man,Die,Die,In,Sie,Außer,Die,Bei,Die,Fernab,Nicht,Er,Die,Wir,Die,Es,Unter,Die,Er,In,Die,Die,Wir,Walter,Ich,Ich,In,Sie,Die,Alle,Am,Dort,Außer,Wir,Es,,,,,,,,,,,,,,,,,,,,,,,6,0,6,0,0,0,0,0,,,,,,None,space,0.556667804718,,,,,2017_Jan_31_1301,59.6865332237,spr_backupper,001,Mo11,
,Flug,Uhr,müden,Fernrohr,ist,Tonnen,haben,türmen,hat,verlassen,konnten,meinem,Lösung,hatte,es,Tonnen,machte,wurde,g,Blutdruck,g,nehme,der,Teilnehmerinnen,Eislaufbahnen,können,übergaben,mussten,Formen,verbrauchen,stellt,äußeren,Uhr,Kreditnehmer,dieser,waren,Schuhe,den,Gäste,dem,Stücke,den,hatten,mussten,verbrauchen,unserer,dieser,haben,unserer,Schule,die,wurden,Stücke,diesem,Fernrohr,wurde,den,Autos,der,Tuch,ein,sollten,wurde,machte,Schule,Schuhe,einer,verlassen,dem,Kinder,der,Gäste,des,ein,hat,Autos,haben,Stücke,waren,keinen,"Uhr,",stellt,der,Linie,Uhr,hatten,Scheel,wurde,nehme,meinem,hatte,Kinder,Betten,äußersten,türmen,das,übergaben,wurden,,,,,,,,,,,,,,,,,,,,,,,6,0,6,0,0,1,1,1,,,,,,,space,0.458525180817,,,,,2017_Jan_31_1301,59.6865332237,spr_backupper,001,Mo11,
,zum,schlug,Teilnehmer,sahen,genau,gebrauchte,jede,sich,uns,wegen,dann,Studium,wird,keine,"regnete,",gebrauchter,mal,die,braunen,kann,brauner,eine,Feier,wussten,wurden,Kleidung,dem,uns,wurden,60,die,Rand,war,sind,Methode,nur,in,Bürgermeister,suchen,Essen,saftiges,Kakao,in,uns,60,Ankunft,Methode,die,Ankunft,verbraucht,Sonne,Eimer,saftigen,Zirkus,sahen,trotz,Kakao,beider,Tat,wurde,Tropfen,immer,trotz,mal,verbraucht,in,Studie,wegen,Bürgermeister,fuhren,Feier,suchen,Rummels,Tropfen,ein,beider,jede,wurden,nur,Umständen,die,die,Tat,101,schlug,in,war,damals,eine,Studium,keine,fuhren,wurden,Rand,sich,Essen,das,Eimer,,,,,,,,,,,,,,,,,,,,,,,6,0,6,0,0,2,2,2,,,,,,,space,0.470546007156,,,,,2017_Jan_31_1301,59.6865332237,spr_backupper,001,Mo11,
,Mond,"sporadisch,",wurden,wir,die,Kleidung,Menge,Berge,die,des,mit,habe,mit,Lust,hat,Kleidung,wieder,Leinwand,Zuckers,schon,Zucker,große,gedachte,überwiegend,mit,bei,Mann,durch,unter,Liter,Masse,der,aus,mit,kann,kleinere,Größe,beschuldigten,die,kann,Fleisch,gehören,Dänemark,durch,Liter,stand,kann,Erlebnisse,stand,260.000,"unterging,",rote,Fleischs,werden,wir,dem,gehören,beteiligten,wissen,dann,königlichen,auf,des,wieder,260.000,Größe,wurde,dem,beschuldigten,mit,gedachte,die,wurde,königliches,Hemd,beteiligter,Menge,aus,kleinere,können,er,Masse,wissen,hält,"sporadisch,",Dänemark,der,schnell,große,las,Lust,mit,mit,der,Berge,kann,Auto,roter,,,,,,,,,,,,,,,,,,,,,,,6,0,6,0,0,3,3,3,,,,,,,space,0.465234994888,,,,,2017_Jan_31_1301,59.6865332237,spr_backupper,001,Mo11,
,dauerte,obwohl,mit,den,richtige,landen,alten,schmutziger,Stimmung,schönen,"minimalem,",ich,"reichlichem,",auf,uns,landen,viel,aus,sind,bei,sind,Packung,man,"nicht,",dauerhaftem,ausreichendem,das,Büschel,"regelmäßigem,",sprudelndes,mit,Stadt,"Japan,","sämtlichem,",man,"Delikte,",36,die,Wohnung,ich,wurden,immer,einen,Büschel,sprudelnden,ein,man,bei,ein,Kilowattstunden,war,Farbe,wurden,die,den,bekannten,immer,Fahrer,wir,mit,Bluts,warmem,bekannten,viel,Kilowattstunden,36,jetzt,schönen,die,solch,man,Wohnung,schon,Blut,aus,Fahrer,alten,"wertvollem,","Delikte,",Neuwahlen,"trug,",mit,wir,nicht,obschon,gelegentlich,vierte,dank,Packung,ich,auf,solchen,"üblichem,",Stadt,schmutzige,ich,dem,Farbe,,,,,,,,,,,,,,,,,,,,,,,6,0,6,0,0,4,4,4,,,,,,,space,0.654589891434,,,,,2017_Jan_31_1301,59.6865332237,spr_backupper,001,Mo11,
,ungefähr,sie,zusätzlichem,roten,"Zeit,",im,Kram,Wäsche.,ziemlich,Wetters,sauberen,mehr,purem,noch,die,im,Lärm,seltenem,auf,minimalem,auf,salziger,der,was,feinem,monatlichem,Auto,frischen,kaltem,Trinkwasser.,einem,liegen,die,künftigem,eine,deren,hätten,Störenfriede,des,leider,serviert.,350,gelegentlichen,frisches,Trinkwassers.,Glas,eine,"frischem,",Glas,elektrischer,die,geschleudert.,serviert.,Tiere,roten,Skandal,350,wurden,von,"reichem,",hat,weichem,Skandals,Lärm,elektrische,würden,"nachgewiesen,",Wetter,Störenfriede,unzureichenden,den,des,immer,hat,feinem,wurden,Krams,klassischen,derer,vor,war,einem,um,am,sie,einen,Bundespräsident.,täglichem,salzige,mehr,noch,unzureichenden,harten,liegen,Wäsche.,leider,Mann,geschleudert.,,,,,,,,,,,,,,,,,,,,,,,6,0,6,0,0,5,5,5,,,,,,,space,0.592787981033,,,,,2017_Jan_31_1301,59.6865332237,spr_backupper,001,Mo11,
,drei,defekt,schwarzem,Planeten,um,Müll.,aus,nan,"vermiest,",die,Kraftstoff,als,Alkohol,eine,Stimmung,Müll.,um,dichten,jeden,täglichen,jeden,Wurst,Soldaten,Tupperware,Kunsteis,Taschengeld,mehr,Grases,Abduschen,nan,Esslöffel,die,er,Einkommen,große,sie,seiner,jeden.,Herrn,nichts,nan,ml,Besucher.,Gras,nan,köstlichen,große,kaltem,köstlicher,Energie.,Flut,nan,nan,artgerecht,Planet,wiedergewählt.,ml,verschrottet.,den,goldenen,den,Untergrund,wiedergewählt.,um,Energie.,seiner,dass,die,jeden.,Helmen,Soldaten,Herrn,ruhig,den,dichten,verschrottet.,aus,Schmuck,sie,Dezember,aus,Esslöffel,die,Hauptbahnhof.,defekt,Besucher.,nan,grünen,Wurst,als,eine,Helmen,Schaumstoff,die,nan,nichts,mehr,nan,,,,,,,,,,,,,,,,,,,,,,,6,0,6,0,0,6,6,6,,,,,,,space,0.454229831696,,,,,2017_Jan_31_1301,59.6865332237,spr_backupper,001,Mo11,
,Tage.,war.,Kaffee,ganz,Nadelhölzer,nan,dem,nan,dass,Wohnung.,fahren.,einmal,verdünnt.,Sammlung,ziemlich,nan,jede,Gewebe,Fall,Einsatz,Fall,mit,des,ist.,eingesprüht.,selber,als,zwängen.,gehärtet.,nan,warmem,Slums.,trug.,haftbar.,Menge,überführt,Frau,nan,Gantenbeins.,mitbringen.,nan,warme,nan,zwängen.,nan,Weins,Menge,Saft,Wein,nan,zurückgekehrt.,nan,nan,gehalten.,ganz,nan,warmer,nan,Problemen,Besatz,Boden,liegen.,nan,jede,nan,Frau,das,Wohnung.,nan,zur,des,Gantenbein.,diskutiert.,Boden,Stoff,nan,dem,umgearbeitet.,überführt,stattfinden.,Japan.,warmen,Probleme,nan,war.,nan,nan,Tee,mit,einmal,Sammlung,zur,gefertigt.,Slums.,nan,mitbringen.,als,nan,,,,,,,,,,,,,,,,,,,,,,,6,0,6,0,0,7,7,7,,,,,,,space,0.779847860336,,,,,2017_Jan_31_1301,59.6865332237,spr_backupper,001,Mo11,
,nan,nan,wiederbelebt.,deutlich.,umzusetzen.,nan,Haus,nan,es,nan,nan,Rilke,nan,dummer,vermiest.,nan,Menge,wiederhergestellt.,genug.,sinken.,genug.,an,zweiten,nan,nan,kaufen.,gerne.,nan,nan,nan,Honig,nan,nan,nan,dunkler,wurden.,gepasst.,nan,nan,nan,nan,Milch.,nan,nan,nan,schon,dunkle,besprochen.,schon,nan,nan,nan,nan,nan,deutlich.,nan,Milch.,nan,im,rekonstruiert.,berührt.,nan,nan,Menge,nan,gepasst,Medikament,nan,nan,Schule.,zweiten,nan,nan,berührt.,gefertigt.,nan,Haus,nan,wurden.,nan,nan,Honigs,im,nan,nan,nan,nan,wieder,an,Rilke.,dumme,Schule.,nan,nan,nan,nan,gerne.,nan,,,,,,,,,,,,,,,,,,,,,,,6,0,6,0,0,8,8,8,,,,,,,space,0.431697845459,,,,,2017_Jan_31_1301,59.6865332237,spr_backupper,001,Mo11,
,nan,nan,nan,nan,nan,nan,geschafft.,nan,regnete.,nan,nan,gelesen.,nan,Sprüche.,nan,nan,heiße,nan,nan,nan,nan,den,Weltkriegs.,nan,nan,nan,nan,nan,nan,nan,her.,nan,nan,nan,Materie,nan,nan,nan,nan,nan,nan,nan,nan,nan,nan,auf,Materie,nan,auf,nan,nan,nan,nan,nan,nan,nan,nan,nan,Landkreis.,nan,nan,nan,nan,heißer,nan,haben.,nicht,nan,nan,nan,Weltkriegs.,nan,nan,nan,nan,nan,geschafft.,nan,nan,nan,nan,her.,Landkreis.,nan,nan,nan,nan,fit.,den,nan,Sprüche.,nan,nan,nan,nan,nan,nan,nan,,,,,,,,,,,,,,,,,,,,,,,6,0,6,0,0,9,9,9,,,,,,,space,0.487385988235,,,,,2017_Jan_31_1301,59.6865332237,spr_backupper,001,Mo11,
,,,,,,,,,,,,,,,,,,,,,,,,,,,,,,,,,,,,,,,,,,,,,,,,,,,,,,,,,,,,,,,,,,,,,,,,,,,,,,,,,,,,,,,,,,,,,,,,,,,,,,,,,,,,,,,,,,,,,,,,,6,0,6,0,,,,,,,,,,,,,None,j,1.28560805321,,2017_Jan_31_1301,59.6865332237,spr_backupper,001,Mo11,
,Der,Die,Die,Im,Jetzt,Viele,Wir,Dort,Es,Sie,Wir,In,Die,Sie,Dass,Viele,Man,Danach,100,Ihr,100,Ich,Bei,Die,Die,Jugendliche,Wir,Wir,Die,Sie,Er,Am,Die,Manche,Mit,Es,Die,Außer,Die,Außer,Beträchtliche,In,Wir,Wir,Sie,Bei,Mit,Sie,Bei,Die,Als,Es,Beträchtliche,In,Im,Er,In,Die,In,Das,Nicht,Jungtiere,Er,Man,Die,Die,In,Sie,Außer,Die,Bei,Die,Fernab,Nicht,Er,Die,Wir,Die,Es,Unter,Die,Er,In,Die,Die,Wir,Walter,Ich,Ich,In,Sie,Die,Alle,Am,Dort,Außer,Wir,Es,,,,,,,,,,,,,,,,,,,,,,,7,0,7,0,0,0,0,0,,,,,,None,space,0.475288152695,,,,,2017_Jan_31_1301,59.6865332237,spr_backupper,001,Mo11,
,Flug,Uhr,müden,Fernrohr,ist,Tonnen,haben,türmen,hat,verlassen,konnten,meinem,Lösung,hatte,es,Tonnen,machte,wurde,g,Blutdruck,g,nehme,der,Teilnehmerinnen,Eislaufbahnen,können,übergaben,mussten,Formen,verbrauchen,stellt,äußeren,Uhr,Kreditnehmer,dieser,waren,Schuhe,den,Gäste,dem,Stücke,den,hatten,mussten,verbrauchen,unserer,dieser,haben,unserer,Schule,die,wurden,Stücke,diesem,Fernrohr,wurde,den,Autos,der,Tuch,ein,sollten,wurde,machte,Schule,Schuhe,einer,verlassen,dem,Kinder,der,Gäste,des,ein,hat,Autos,haben,Stücke,waren,keinen,"Uhr,",stellt,der,Linie,Uhr,hatten,Scheel,wurde,nehme,meinem,hatte,Kinder,Betten,äußersten,türmen,das,übergaben,wurden,,,,,,,,,,,,,,,,,,,,,,,7,0,7,0,0,1,1,1,,,,,,,space,0.448094129562,,,,,2017_Jan_31_1301,59.6865332237,spr_backupper,001,Mo11,
,zum,schlug,Teilnehmer,sahen,genau,gebrauchte,jede,sich,uns,wegen,dann,Studium,wird,keine,"regnete,",gebrauchter,mal,die,braunen,kann,brauner,eine,Feier,wussten,wurden,Kleidung,dem,uns,wurden,60,die,Rand,war,sind,Methode,nur,in,Bürgermeister,suchen,Essen,saftiges,Kakao,in,uns,60,Ankunft,Methode,die,Ankunft,verbraucht,Sonne,Eimer,saftigen,Zirkus,sahen,trotz,Kakao,beider,Tat,wurde,Tropfen,immer,trotz,mal,verbraucht,in,Studie,wegen,Bürgermeister,fuhren,Feier,suchen,Rummels,Tropfen,ein,beider,jede,wurden,nur,Umständen,die,die,Tat,101,schlug,in,war,damals,eine,Studium,keine,fuhren,wurden,Rand,sich,Essen,das,Eimer,,,,,,,,,,,,,,,,,,,,,,,7,0,7,0,0,2,2,2,,,,,,,space,0.419266939163,,,,,2017_Jan_31_1301,59.6865332237,spr_backupper,001,Mo11,
,Mond,"sporadisch,",wurden,wir,die,Kleidung,Menge,Berge,die,des,mit,habe,mit,Lust,hat,Kleidung,wieder,Leinwand,Zuckers,schon,Zucker,große,gedachte,überwiegend,mit,bei,Mann,durch,unter,Liter,Masse,der,aus,mit,kann,kleinere,Größe,beschuldigten,die,kann,Fleisch,gehören,Dänemark,durch,Liter,stand,kann,Erlebnisse,stand,260.000,"unterging,",rote,Fleischs,werden,wir,dem,gehören,beteiligten,wissen,dann,königlichen,auf,des,wieder,260.000,Größe,wurde,dem,beschuldigten,mit,gedachte,die,wurde,königliches,Hemd,beteiligter,Menge,aus,kleinere,können,er,Masse,wissen,hält,"sporadisch,",Dänemark,der,schnell,große,las,Lust,mit,mit,der,Berge,kann,Auto,roter,,,,,,,,,,,,,,,,,,,,,,,7,0,7,0,0,3,3,3,,,,,,,space,0.587584972382,,,,,2017_Jan_31_1301,59.6865332237,spr_backupper,001,Mo11,
,dauerte,obwohl,mit,den,richtige,landen,alten,schmutziger,Stimmung,schönen,"minimalem,",ich,"reichlichem,",auf,uns,landen,viel,aus,sind,bei,sind,Packung,man,"nicht,",dauerhaftem,ausreichendem,das,Büschel,"regelmäßigem,",sprudelndes,mit,Stadt,"Japan,","sämtlichem,",man,"Delikte,",36,die,Wohnung,ich,wurden,immer,einen,Büschel,sprudelnden,ein,man,bei,ein,Kilowattstunden,war,Farbe,wurden,die,den,bekannten,immer,Fahrer,wir,mit,Bluts,warmem,bekannten,viel,Kilowattstunden,36,jetzt,schönen,die,solch,man,Wohnung,schon,Blut,aus,Fahrer,alten,"wertvollem,","Delikte,",Neuwahlen,"trug,",mit,wir,nicht,obschon,gelegentlich,vierte,dank,Packung,ich,auf,solchen,"üblichem,",Stadt,schmutzige,ich,dem,Farbe,,,,,,,,,,,,,,,,,,,,,,,7,0,7,0,0,4,4,4,,,,,,,space,0.416887044907,,,,,2017_Jan_31_1301,59.6865332237,spr_backupper,001,Mo11,
,ungefähr,sie,zusätzlichem,roten,"Zeit,",im,Kram,Wäsche.,ziemlich,Wetters,sauberen,mehr,purem,noch,die,im,Lärm,seltenem,auf,minimalem,auf,salziger,der,was,feinem,monatlichem,Auto,frischen,kaltem,Trinkwasser.,einem,liegen,die,künftigem,eine,deren,hätten,Störenfriede,des,leider,serviert.,350,gelegentlichen,frisches,Trinkwassers.,Glas,eine,"frischem,",Glas,elektrischer,die,geschleudert.,serviert.,Tiere,roten,Skandal,350,wurden,von,"reichem,",hat,weichem,Skandals,Lärm,elektrische,würden,"nachgewiesen,",Wetter,Störenfriede,unzureichenden,den,des,immer,hat,feinem,wurden,Krams,klassischen,derer,vor,war,einem,um,am,sie,einen,Bundespräsident.,täglichem,salzige,mehr,noch,unzureichenden,harten,liegen,Wäsche.,leider,Mann,geschleudert.,,,,,,,,,,,,,,,,,,,,,,,7,0,7,0,0,5,5,5,,,,,,,space,0.385394096375,,,,,2017_Jan_31_1301,59.6865332237,spr_backupper,001,Mo11,
,drei,defekt,schwarzem,Planeten,um,Müll.,aus,nan,"vermiest,",die,Kraftstoff,als,Alkohol,eine,Stimmung,Müll.,um,dichten,jeden,täglichen,jeden,Wurst,Soldaten,Tupperware,Kunsteis,Taschengeld,mehr,Grases,Abduschen,nan,Esslöffel,die,er,Einkommen,große,sie,seiner,jeden.,Herrn,nichts,nan,ml,Besucher.,Gras,nan,köstlichen,große,kaltem,köstlicher,Energie.,Flut,nan,nan,artgerecht,Planet,wiedergewählt.,ml,verschrottet.,den,goldenen,den,Untergrund,wiedergewählt.,um,Energie.,seiner,dass,die,jeden.,Helmen,Soldaten,Herrn,ruhig,den,dichten,verschrottet.,aus,Schmuck,sie,Dezember,aus,Esslöffel,die,Hauptbahnhof.,defekt,Besucher.,nan,grünen,Wurst,als,eine,Helmen,Schaumstoff,die,nan,nichts,mehr,nan,,,,,,,,,,,,,,,,,,,,,,,7,0,7,0,0,6,6,6,,,,,,,space,0.540701150894,,,,,2017_Jan_31_1301,59.6865332237,spr_backupper,001,Mo11,
,Tage.,war.,Kaffee,ganz,Nadelhölzer,nan,dem,nan,dass,Wohnung.,fahren.,einmal,verdünnt.,Sammlung,ziemlich,nan,jede,Gewebe,Fall,Einsatz,Fall,mit,des,ist.,eingesprüht.,selber,als,zwängen.,gehärtet.,nan,warmem,Slums.,trug.,haftbar.,Menge,überführt,Frau,nan,Gantenbeins.,mitbringen.,nan,warme,nan,zwängen.,nan,Weins,Menge,Saft,Wein,nan,zurückgekehrt.,nan,nan,gehalten.,ganz,nan,warmer,nan,Problemen,Besatz,Boden,liegen.,nan,jede,nan,Frau,das,Wohnung.,nan,zur,des,Gantenbein.,diskutiert.,Boden,Stoff,nan,dem,umgearbeitet.,überführt,stattfinden.,Japan.,warmen,Probleme,nan,war.,nan,nan,Tee,mit,einmal,Sammlung,zur,gefertigt.,Slums.,nan,mitbringen.,als,nan,,,,,,,,,,,,,,,,,,,,,,,7,0,7,0,0,7,7,7,,,,,,,space,0.469757795334,,,,,2017_Jan_31_1301,59.6865332237,spr_backupper,001,Mo11,
,nan,nan,wiederbelebt.,deutlich.,umzusetzen.,nan,Haus,nan,es,nan,nan,Rilke,nan,dummer,vermiest.,nan,Menge,wiederhergestellt.,genug.,sinken.,genug.,an,zweiten,nan,nan,kaufen.,gerne.,nan,nan,nan,Honig,nan,nan,nan,dunkler,wurden.,gepasst.,nan,nan,nan,nan,Milch.,nan,nan,nan,schon,dunkle,besprochen.,schon,nan,nan,nan,nan,nan,deutlich.,nan,Milch.,nan,im,rekonstruiert.,berührt.,nan,nan,Menge,nan,gepasst,Medikament,nan,nan,Schule.,zweiten,nan,nan,berührt.,gefertigt.,nan,Haus,nan,wurden.,nan,nan,Honigs,im,nan,nan,nan,nan,wieder,an,Rilke.,dumme,Schule.,nan,nan,nan,nan,gerne.,nan,,,,,,,,,,,,,,,,,,,,,,,7,0,7,0,0,8,8,8,,,,,,,space,0.804879903793,,,,,2017_Jan_31_1301,59.6865332237,spr_backupper,001,Mo11,
,,,,,,,,,,,,,,,,,,,,,,,,,,,,,,,,,,,,,,,,,,,,,,,,,,,,,,,,,,,,,,,,,,,,,,,,,,,,,,,,,,,,,,,,,,,,,,,,,,,,,,,,,,,,,,,,,,,,,,,,,7,0,7,0,,,,,,,,,,,,,None,n,2.38195490837,,2017_Jan_31_1301,59.6865332237,spr_backupper,001,Mo11,
,Der,Die,Die,Im,Jetzt,Viele,Wir,Dort,Es,Sie,Wir,In,Die,Sie,Dass,Viele,Man,Danach,100,Ihr,100,Ich,Bei,Die,Die,Jugendliche,Wir,Wir,Die,Sie,Er,Am,Die,Manche,Mit,Es,Die,Außer,Die,Außer,Beträchtliche,In,Wir,Wir,Sie,Bei,Mit,Sie,Bei,Die,Als,Es,Beträchtliche,In,Im,Er,In,Die,In,Das,Nicht,Jungtiere,Er,Man,Die,Die,In,Sie,Außer,Die,Bei,Die,Fernab,Nicht,Er,Die,Wir,Die,Es,Unter,Die,Er,In,Die,Die,Wir,Walter,Ich,Ich,In,Sie,Die,Alle,Am,Dort,Außer,Wir,Es,,,,,,,,,,,,,,,,,,,,,,,8,0,8,0,0,0,0,0,,,,,,None,space,0.497137069702,,,,,2017_Jan_31_1301,59.6865332237,spr_backupper,001,Mo11,
,Flug,Uhr,müden,Fernrohr,ist,Tonnen,haben,türmen,hat,verlassen,konnten,meinem,Lösung,hatte,es,Tonnen,machte,wurde,g,Blutdruck,g,nehme,der,Teilnehmerinnen,Eislaufbahnen,können,übergaben,mussten,Formen,verbrauchen,stellt,äußeren,Uhr,Kreditnehmer,dieser,waren,Schuhe,den,Gäste,dem,Stücke,den,hatten,mussten,verbrauchen,unserer,dieser,haben,unserer,Schule,die,wurden,Stücke,diesem,Fernrohr,wurde,den,Autos,der,Tuch,ein,sollten,wurde,machte,Schule,Schuhe,einer,verlassen,dem,Kinder,der,Gäste,des,ein,hat,Autos,haben,Stücke,waren,keinen,"Uhr,",stellt,der,Linie,Uhr,hatten,Scheel,wurde,nehme,meinem,hatte,Kinder,Betten,äußersten,türmen,das,übergaben,wurden,,,,,,,,,,,,,,,,,,,,,,,8,0,8,0,0,1,1,1,,,,,,,space,0.436718940735,,,,,2017_Jan_31_1301,59.6865332237,spr_backupper,001,Mo11,
,zum,schlug,Teilnehmer,sahen,genau,gebrauchte,jede,sich,uns,wegen,dann,Studium,wird,keine,"regnete,",gebrauchter,mal,die,braunen,kann,brauner,eine,Feier,wussten,wurden,Kleidung,dem,uns,wurden,60,die,Rand,war,sind,Methode,nur,in,Bürgermeister,suchen,Essen,saftiges,Kakao,in,uns,60,Ankunft,Methode,die,Ankunft,verbraucht,Sonne,Eimer,saftigen,Zirkus,sahen,trotz,Kakao,beider,Tat,wurde,Tropfen,immer,trotz,mal,verbraucht,in,Studie,wegen,Bürgermeister,fuhren,Feier,suchen,Rummels,Tropfen,ein,beider,jede,wurden,nur,Umständen,die,die,Tat,101,schlug,in,war,damals,eine,Studium,keine,fuhren,wurden,Rand,sich,Essen,das,Eimer,,,,,,,,,,,,,,,,,,,,,,,8,0,8,0,0,2,2,2,,,,,,,space,0.41268992424,,,,,2017_Jan_31_1301,59.6865332237,spr_backupper,001,Mo11,
,Mond,"sporadisch,",wurden,wir,die,Kleidung,Menge,Berge,die,des,mit,habe,mit,Lust,hat,Kleidung,wieder,Leinwand,Zuckers,schon,Zucker,große,gedachte,überwiegend,mit,bei,Mann,durch,unter,Liter,Masse,der,aus,mit,kann,kleinere,Größe,beschuldigten,die,kann,Fleisch,gehören,Dänemark,durch,Liter,stand,kann,Erlebnisse,stand,260.000,"unterging,",rote,Fleischs,werden,wir,dem,gehören,beteiligten,wissen,dann,königlichen,auf,des,wieder,260.000,Größe,wurde,dem,beschuldigten,mit,gedachte,die,wurde,königliches,Hemd,beteiligter,Menge,aus,kleinere,können,er,Masse,wissen,hält,"sporadisch,",Dänemark,der,schnell,große,las,Lust,mit,mit,der,Berge,kann,Auto,roter,,,,,,,,,,,,,,,,,,,,,,,8,0,8,0,0,3,3,3,,,,,,,space,0.960777997971,,,,,2017_Jan_31_1301,59.6865332237,spr_backupper,001,Mo11,
,dauerte,obwohl,mit,den,richtige,landen,alten,schmutziger,Stimmung,schönen,"minimalem,",ich,"reichlichem,",auf,uns,landen,viel,aus,sind,bei,sind,Packung,man,"nicht,",dauerhaftem,ausreichendem,das,Büschel,"regelmäßigem,",sprudelndes,mit,Stadt,"Japan,","sämtlichem,",man,"Delikte,",36,die,Wohnung,ich,wurden,immer,einen,Büschel,sprudelnden,ein,man,bei,ein,Kilowattstunden,war,Farbe,wurden,die,den,bekannten,immer,Fahrer,wir,mit,Bluts,warmem,bekannten,viel,Kilowattstunden,36,jetzt,schönen,die,solch,man,Wohnung,schon,Blut,aus,Fahrer,alten,"wertvollem,","Delikte,",Neuwahlen,"trug,",mit,wir,nicht,obschon,gelegentlich,vierte,dank,Packung,ich,auf,solchen,"üblichem,",Stadt,schmutzige,ich,dem,Farbe,,,,,,,,,,,,,,,,,,,,,,,8,0,8,0,0,4,4,4,,,,,,,space,0.504076957703,,,,,2017_Jan_31_1301,59.6865332237,spr_backupper,001,Mo11,
,ungefähr,sie,zusätzlichem,roten,"Zeit,",im,Kram,Wäsche.,ziemlich,Wetters,sauberen,mehr,purem,noch,die,im,Lärm,seltenem,auf,minimalem,auf,salziger,der,was,feinem,monatlichem,Auto,frischen,kaltem,Trinkwasser.,einem,liegen,die,künftigem,eine,deren,hätten,Störenfriede,des,leider,serviert.,350,gelegentlichen,frisches,Trinkwassers.,Glas,eine,"frischem,",Glas,elektrischer,die,geschleudert.,serviert.,Tiere,roten,Skandal,350,wurden,von,"reichem,",hat,weichem,Skandals,Lärm,elektrische,würden,"nachgewiesen,",Wetter,Störenfriede,unzureichenden,den,des,immer,hat,feinem,wurden,Krams,klassischen,derer,vor,war,einem,um,am,sie,einen,Bundespräsident.,täglichem,salzige,mehr,noch,unzureichenden,harten,liegen,Wäsche.,leider,Mann,geschleudert.,,,,,,,,,,,,,,,,,,,,,,,8,0,8,0,0,5,5,5,,,,,,,space,0.398153066635,,,,,2017_Jan_31_1301,59.6865332237,spr_backupper,001,Mo11,
,drei,defekt,schwarzem,Planeten,um,Müll.,aus,nan,"vermiest,",die,Kraftstoff,als,Alkohol,eine,Stimmung,Müll.,um,dichten,jeden,täglichen,jeden,Wurst,Soldaten,Tupperware,Kunsteis,Taschengeld,mehr,Grases,Abduschen,nan,Esslöffel,die,er,Einkommen,große,sie,seiner,jeden.,Herrn,nichts,nan,ml,Besucher.,Gras,nan,köstlichen,große,kaltem,köstlicher,Energie.,Flut,nan,nan,artgerecht,Planet,wiedergewählt.,ml,verschrottet.,den,goldenen,den,Untergrund,wiedergewählt.,um,Energie.,seiner,dass,die,jeden.,Helmen,Soldaten,Herrn,ruhig,den,dichten,verschrottet.,aus,Schmuck,sie,Dezember,aus,Esslöffel,die,Hauptbahnhof.,defekt,Besucher.,nan,grünen,Wurst,als,eine,Helmen,Schaumstoff,die,nan,nichts,mehr,nan,,,,,,,,,,,,,,,,,,,,,,,8,0,8,0,0,6,6,6,,,,,,,space,0.570988893509,,,,,2017_Jan_31_1301,59.6865332237,spr_backupper,001,Mo11,
,Tage.,war.,Kaffee,ganz,Nadelhölzer,nan,dem,nan,dass,Wohnung.,fahren.,einmal,verdünnt.,Sammlung,ziemlich,nan,jede,Gewebe,Fall,Einsatz,Fall,mit,des,ist.,eingesprüht.,selber,als,zwängen.,gehärtet.,nan,warmem,Slums.,trug.,haftbar.,Menge,überführt,Frau,nan,Gantenbeins.,mitbringen.,nan,warme,nan,zwängen.,nan,Weins,Menge,Saft,Wein,nan,zurückgekehrt.,nan,nan,gehalten.,ganz,nan,warmer,nan,Problemen,Besatz,Boden,liegen.,nan,jede,nan,Frau,das,Wohnung.,nan,zur,des,Gantenbein.,diskutiert.,Boden,Stoff,nan,dem,umgearbeitet.,überführt,stattfinden.,Japan.,warmen,Probleme,nan,war.,nan,nan,Tee,mit,einmal,Sammlung,zur,gefertigt.,Slums.,nan,mitbringen.,als,nan,,,,,,,,,,,,,,,,,,,,,,,8,0,8,0,0,7,7,7,,,,,,,space,0.576992034912,,,,,2017_Jan_31_1301,59.6865332237,spr_backupper,001,Mo11,
,,,,,,,,,,,,,,,,,,,,,,,,,,,,,,,,,,,,,,,,,,,,,,,,,,,,,,,,,,,,,,,,,,,,,,,,,,,,,,,,,,,,,,,,,,,,,,,,,,,,,,,,,,,,,,,,,,,,,,,,,8,0,8,0,,,,,,,,,,,,,None,n,1.89571499825,,2017_Jan_31_1301,59.6865332237,spr_backupper,001,Mo11,
,Der,Die,Die,Im,Jetzt,Viele,Wir,Dort,Es,Sie,Wir,In,Die,Sie,Dass,Viele,Man,Danach,100,Ihr,100,Ich,Bei,Die,Die,Jugendliche,Wir,Wir,Die,Sie,Er,Am,Die,Manche,Mit,Es,Die,Außer,Die,Außer,Beträchtliche,In,Wir,Wir,Sie,Bei,Mit,Sie,Bei,Die,Als,Es,Beträchtliche,In,Im,Er,In,Die,In,Das,Nicht,Jungtiere,Er,Man,Die,Die,In,Sie,Außer,Die,Bei,Die,Fernab,Nicht,Er,Die,Wir,Die,Es,Unter,Die,Er,In,Die,Die,Wir,Walter,Ich,Ich,In,Sie,Die,Alle,Am,Dort,Außer,Wir,Es,,,,,,,,,,,,,,,,,,,,,,,9,0,9,0,0,0,0,0,,,,,,None,space,0.722602128983,,,,,2017_Jan_31_1301,59.6865332237,spr_backupper,001,Mo11,
,Flug,Uhr,müden,Fernrohr,ist,Tonnen,haben,türmen,hat,verlassen,konnten,meinem,Lösung,hatte,es,Tonnen,machte,wurde,g,Blutdruck,g,nehme,der,Teilnehmerinnen,Eislaufbahnen,können,übergaben,mussten,Formen,verbrauchen,stellt,äußeren,Uhr,Kreditnehmer,dieser,waren,Schuhe,den,Gäste,dem,Stücke,den,hatten,mussten,verbrauchen,unserer,dieser,haben,unserer,Schule,die,wurden,Stücke,diesem,Fernrohr,wurde,den,Autos,der,Tuch,ein,sollten,wurde,machte,Schule,Schuhe,einer,verlassen,dem,Kinder,der,Gäste,des,ein,hat,Autos,haben,Stücke,waren,keinen,"Uhr,",stellt,der,Linie,Uhr,hatten,Scheel,wurde,nehme,meinem,hatte,Kinder,Betten,äußersten,türmen,das,übergaben,wurden,,,,,,,,,,,,,,,,,,,,,,,9,0,9,0,0,1,1,1,,,,,,,space,0.539707183838,,,,,2017_Jan_31_1301,59.6865332237,spr_backupper,001,Mo11,
,zum,schlug,Teilnehmer,sahen,genau,gebrauchte,jede,sich,uns,wegen,dann,Studium,wird,keine,"regnete,",gebrauchter,mal,die,braunen,kann,brauner,eine,Feier,wussten,wurden,Kleidung,dem,uns,wurden,60,die,Rand,war,sind,Methode,nur,in,Bürgermeister,suchen,Essen,saftiges,Kakao,in,uns,60,Ankunft,Methode,die,Ankunft,verbraucht,Sonne,Eimer,saftigen,Zirkus,sahen,trotz,Kakao,beider,Tat,wurde,Tropfen,immer,trotz,mal,verbraucht,in,Studie,wegen,Bürgermeister,fuhren,Feier,suchen,Rummels,Tropfen,ein,beider,jede,wurden,nur,Umständen,die,die,Tat,101,schlug,in,war,damals,eine,Studium,keine,fuhren,wurden,Rand,sich,Essen,das,Eimer,,,,,,,,,,,,,,,,,,,,,,,9,0,9,0,0,2,2,2,,,,,,,space,0.500615119934,,,,,2017_Jan_31_1301,59.6865332237,spr_backupper,001,Mo11,
,Mond,"sporadisch,",wurden,wir,die,Kleidung,Menge,Berge,die,des,mit,habe,mit,Lust,hat,Kleidung,wieder,Leinwand,Zuckers,schon,Zucker,große,gedachte,überwiegend,mit,bei,Mann,durch,unter,Liter,Masse,der,aus,mit,kann,kleinere,Größe,beschuldigten,die,kann,Fleisch,gehören,Dänemark,durch,Liter,stand,kann,Erlebnisse,stand,260.000,"unterging,",rote,Fleischs,werden,wir,dem,gehören,beteiligten,wissen,dann,königlichen,auf,des,wieder,260.000,Größe,wurde,dem,beschuldigten,mit,gedachte,die,wurde,königliches,Hemd,beteiligter,Menge,aus,kleinere,können,er,Masse,wissen,hält,"sporadisch,",Dänemark,der,schnell,große,las,Lust,mit,mit,der,Berge,kann,Auto,roter,,,,,,,,,,,,,,,,,,,,,,,9,0,9,0,0,3,3,3,,,,,,,space,0.465862989426,,,,,2017_Jan_31_1301,59.6865332237,spr_backupper,001,Mo11,
,dauerte,obwohl,mit,den,richtige,landen,alten,schmutziger,Stimmung,schönen,"minimalem,",ich,"reichlichem,",auf,uns,landen,viel,aus,sind,bei,sind,Packung,man,"nicht,",dauerhaftem,ausreichendem,das,Büschel,"regelmäßigem,",sprudelndes,mit,Stadt,"Japan,","sämtlichem,",man,"Delikte,",36,die,Wohnung,ich,wurden,immer,einen,Büschel,sprudelnden,ein,man,bei,ein,Kilowattstunden,war,Farbe,wurden,die,den,bekannten,immer,Fahrer,wir,mit,Bluts,warmem,bekannten,viel,Kilowattstunden,36,jetzt,schönen,die,solch,man,Wohnung,schon,Blut,aus,Fahrer,alten,"wertvollem,","Delikte,",Neuwahlen,"trug,",mit,wir,nicht,obschon,gelegentlich,vierte,dank,Packung,ich,auf,solchen,"üblichem,",Stadt,schmutzige,ich,dem,Farbe,,,,,,,,,,,,,,,,,,,,,,,9,0,9,0,0,4,4,4,,,,,,,space,0.49281001091,,,,,2017_Jan_31_1301,59.6865332237,spr_backupper,001,Mo11,
,ungefähr,sie,zusätzlichem,roten,"Zeit,",im,Kram,Wäsche.,ziemlich,Wetters,sauberen,mehr,purem,noch,die,im,Lärm,seltenem,auf,minimalem,auf,salziger,der,was,feinem,monatlichem,Auto,frischen,kaltem,Trinkwasser.,einem,liegen,die,künftigem,eine,deren,hätten,Störenfriede,des,leider,serviert.,350,gelegentlichen,frisches,Trinkwassers.,Glas,eine,"frischem,",Glas,elektrischer,die,geschleudert.,serviert.,Tiere,roten,Skandal,350,wurden,von,"reichem,",hat,weichem,Skandals,Lärm,elektrische,würden,"nachgewiesen,",Wetter,Störenfriede,unzureichenden,den,des,immer,hat,feinem,wurden,Krams,klassischen,derer,vor,war,einem,um,am,sie,einen,Bundespräsident.,täglichem,salzige,mehr,noch,unzureichenden,harten,liegen,Wäsche.,leider,Mann,geschleudert.,,,,,,,,,,,,,,,,,,,,,,,9,0,9,0,0,5,5,5,,,,,,,space,0.428025960922,,,,,2017_Jan_31_1301,59.6865332237,spr_backupper,001,Mo11,
,drei,defekt,schwarzem,Planeten,um,Müll.,aus,nan,"vermiest,",die,Kraftstoff,als,Alkohol,eine,Stimmung,Müll.,um,dichten,jeden,täglichen,jeden,Wurst,Soldaten,Tupperware,Kunsteis,Taschengeld,mehr,Grases,Abduschen,nan,Esslöffel,die,er,Einkommen,große,sie,seiner,jeden.,Herrn,nichts,nan,ml,Besucher.,Gras,nan,köstlichen,große,kaltem,köstlicher,Energie.,Flut,nan,nan,artgerecht,Planet,wiedergewählt.,ml,verschrottet.,den,goldenen,den,Untergrund,wiedergewählt.,um,Energie.,seiner,dass,die,jeden.,Helmen,Soldaten,Herrn,ruhig,den,dichten,verschrottet.,aus,Schmuck,sie,Dezember,aus,Esslöffel,die,Hauptbahnhof.,defekt,Besucher.,nan,grünen,Wurst,als,eine,Helmen,Schaumstoff,die,nan,nichts,mehr,nan,,,,,,,,,,,,,,,,,,,,,,,9,0,9,0,0,6,6,6,,,,,,,space,0.68550491333,,,,,2017_Jan_31_1301,59.6865332237,spr_backupper,001,Mo11,
,Tage.,war.,Kaffee,ganz,Nadelhölzer,nan,dem,nan,dass,Wohnung.,fahren.,einmal,verdünnt.,Sammlung,ziemlich,nan,jede,Gewebe,Fall,Einsatz,Fall,mit,des,ist.,eingesprüht.,selber,als,zwängen.,gehärtet.,nan,warmem,Slums.,trug.,haftbar.,Menge,überführt,Frau,nan,Gantenbeins.,mitbringen.,nan,warme,nan,zwängen.,nan,Weins,Menge,Saft,Wein,nan,zurückgekehrt.,nan,nan,gehalten.,ganz,nan,warmer,nan,Problemen,Besatz,Boden,liegen.,nan,jede,nan,Frau,das,Wohnung.,nan,zur,des,Gantenbein.,diskutiert.,Boden,Stoff,nan,dem,umgearbeitet.,überführt,stattfinden.,Japan.,warmen,Probleme,nan,war.,nan,nan,Tee,mit,einmal,Sammlung,zur,gefertigt.,Slums.,nan,mitbringen.,als,nan,,,,,,,,,,,,,,,,,,,,,,,9,0,9,0,0,7,7,7,,,,,,,space,0.670321941376,,,,,2017_Jan_31_1301,59.6865332237,spr_backupper,001,Mo11,
,,,,,,,,,,,,,,,,,,,,,,,,,,,,,,,,,,,,,,,,,,,,,,,,,,,,,,,,,,,,,,,,,,,,,,,,,,,,,,,,,,,,,,,,,,,,,,,,,,,,,,,,,,,,,,,,,,,,,,,,,9,0,9,0,,,,,,,,,,,,,None,n,2.99982881546,,2017_Jan_31_1301,59.6865332237,spr_backupper,001,Mo11,
,Der,Die,Die,Im,Jetzt,Viele,Wir,Dort,Es,Sie,Wir,In,Die,Sie,Dass,Viele,Man,Danach,100,Ihr,100,Ich,Bei,Die,Die,Jugendliche,Wir,Wir,Die,Sie,Er,Am,Die,Manche,Mit,Es,Die,Außer,Die,Außer,Beträchtliche,In,Wir,Wir,Sie,Bei,Mit,Sie,Bei,Die,Als,Es,Beträchtliche,In,Im,Er,In,Die,In,Das,Nicht,Jungtiere,Er,Man,Die,Die,In,Sie,Außer,Die,Bei,Die,Fernab,Nicht,Er,Die,Wir,Die,Es,Unter,Die,Er,In,Die,Die,Wir,Walter,Ich,Ich,In,Sie,Die,Alle,Am,Dort,Außer,Wir,Es,,,,,,,,,,,,,,,,,,,,,,,10,0,10,0,0,0,0,0,,,,,,None,space,0.924348115921,,,,,2017_Jan_31_1301,59.6865332237,spr_backupper,001,Mo11,
,Flug,Uhr,müden,Fernrohr,ist,Tonnen,haben,türmen,hat,verlassen,konnten,meinem,Lösung,hatte,es,Tonnen,machte,wurde,g,Blutdruck,g,nehme,der,Teilnehmerinnen,Eislaufbahnen,können,übergaben,mussten,Formen,verbrauchen,stellt,äußeren,Uhr,Kreditnehmer,dieser,waren,Schuhe,den,Gäste,dem,Stücke,den,hatten,mussten,verbrauchen,unserer,dieser,haben,unserer,Schule,die,wurden,Stücke,diesem,Fernrohr,wurde,den,Autos,der,Tuch,ein,sollten,wurde,machte,Schule,Schuhe,einer,verlassen,dem,Kinder,der,Gäste,des,ein,hat,Autos,haben,Stücke,waren,keinen,"Uhr,",stellt,der,Linie,Uhr,hatten,Scheel,wurde,nehme,meinem,hatte,Kinder,Betten,äußersten,türmen,das,übergaben,wurden,,,,,,,,,,,,,,,,,,,,,,,10,0,10,0,0,1,1,1,,,,,,,space,0.419186115265,,,,,2017_Jan_31_1301,59.6865332237,spr_backupper,001,Mo11,
,zum,schlug,Teilnehmer,sahen,genau,gebrauchte,jede,sich,uns,wegen,dann,Studium,wird,keine,"regnete,",gebrauchter,mal,die,braunen,kann,brauner,eine,Feier,wussten,wurden,Kleidung,dem,uns,wurden,60,die,Rand,war,sind,Methode,nur,in,Bürgermeister,suchen,Essen,saftiges,Kakao,in,uns,60,Ankunft,Methode,die,Ankunft,verbraucht,Sonne,Eimer,saftigen,Zirkus,sahen,trotz,Kakao,beider,Tat,wurde,Tropfen,immer,trotz,mal,verbraucht,in,Studie,wegen,Bürgermeister,fuhren,Feier,suchen,Rummels,Tropfen,ein,beider,jede,wurden,nur,Umständen,die,die,Tat,101,schlug,in,war,damals,eine,Studium,keine,fuhren,wurden,Rand,sich,Essen,das,Eimer,,,,,,,,,,,,,,,,,,,,,,,10,0,10,0,0,2,2,2,,,,,,,space,0.452775001526,,,,,2017_Jan_31_1301,59.6865332237,spr_backupper,001,Mo11,
,Mond,"sporadisch,",wurden,wir,die,Kleidung,Menge,Berge,die,des,mit,habe,mit,Lust,hat,Kleidung,wieder,Leinwand,Zuckers,schon,Zucker,große,gedachte,überwiegend,mit,bei,Mann,durch,unter,Liter,Masse,der,aus,mit,kann,kleinere,Größe,beschuldigten,die,kann,Fleisch,gehören,Dänemark,durch,Liter,stand,kann,Erlebnisse,stand,260.000,"unterging,",rote,Fleischs,werden,wir,dem,gehören,beteiligten,wissen,dann,königlichen,auf,des,wieder,260.000,Größe,wurde,dem,beschuldigten,mit,gedachte,die,wurde,königliches,Hemd,beteiligter,Menge,aus,kleinere,können,er,Masse,wissen,hält,"sporadisch,",Dänemark,der,schnell,große,las,Lust,mit,mit,der,Berge,kann,Auto,roter,,,,,,,,,,,,,,,,,,,,,,,10,0,10,0,0,3,3,3,,,,,,,space,0.604856014252,,,,,2017_Jan_31_1301,59.6865332237,spr_backupper,001,Mo11,
,dauerte,obwohl,mit,den,richtige,landen,alten,schmutziger,Stimmung,schönen,"minimalem,",ich,"reichlichem,",auf,uns,landen,viel,aus,sind,bei,sind,Packung,man,"nicht,",dauerhaftem,ausreichendem,das,Büschel,"regelmäßigem,",sprudelndes,mit,Stadt,"Japan,","sämtlichem,",man,"Delikte,",36,die,Wohnung,ich,wurden,immer,einen,Büschel,sprudelnden,ein,man,bei,ein,Kilowattstunden,war,Farbe,wurden,die,den,bekannten,immer,Fahrer,wir,mit,Bluts,warmem,bekannten,viel,Kilowattstunden,36,jetzt,schönen,die,solch,man,Wohnung,schon,Blut,aus,Fahrer,alten,"wertvollem,","Delikte,",Neuwahlen,"trug,",mit,wir,nicht,obschon,gelegentlich,vierte,dank,Packung,ich,auf,solchen,"üblichem,",Stadt,schmutzige,ich,dem,Farbe,,,,,,,,,,,,,,,,,,,,,,,10,0,10,0,0,4,4,4,,,,,,,space,0.460388898849,,,,,2017_Jan_31_1301,59.6865332237,spr_backupper,001,Mo11,
,ungefähr,sie,zusätzlichem,roten,"Zeit,",im,Kram,Wäsche.,ziemlich,Wetters,sauberen,mehr,purem,noch,die,im,Lärm,seltenem,auf,minimalem,auf,salziger,der,was,feinem,monatlichem,Auto,frischen,kaltem,Trinkwasser.,einem,liegen,die,künftigem,eine,deren,hätten,Störenfriede,des,leider,serviert.,350,gelegentlichen,frisches,Trinkwassers.,Glas,eine,"frischem,",Glas,elektrischer,die,geschleudert.,serviert.,Tiere,roten,Skandal,350,wurden,von,"reichem,",hat,weichem,Skandals,Lärm,elektrische,würden,"nachgewiesen,",Wetter,Störenfriede,unzureichenden,den,des,immer,hat,feinem,wurden,Krams,klassischen,derer,vor,war,einem,um,am,sie,einen,Bundespräsident.,täglichem,salzige,mehr,noch,unzureichenden,harten,liegen,Wäsche.,leider,Mann,geschleudert.,,,,,,,,,,,,,,,,,,,,,,,10,0,10,0,0,5,5,5,,,,,,,space,0.570564985275,,,,,2017_Jan_31_1301,59.6865332237,spr_backupper,001,Mo11,
,drei,defekt,schwarzem,Planeten,um,Müll.,aus,nan,"vermiest,",die,Kraftstoff,als,Alkohol,eine,Stimmung,Müll.,um,dichten,jeden,täglichen,jeden,Wurst,Soldaten,Tupperware,Kunsteis,Taschengeld,mehr,Grases,Abduschen,nan,Esslöffel,die,er,Einkommen,große,sie,seiner,jeden.,Herrn,nichts,nan,ml,Besucher.,Gras,nan,köstlichen,große,kaltem,köstlicher,Energie.,Flut,nan,nan,artgerecht,Planet,wiedergewählt.,ml,verschrottet.,den,goldenen,den,Untergrund,wiedergewählt.,um,Energie.,seiner,dass,die,jeden.,Helmen,Soldaten,Herrn,ruhig,den,dichten,verschrottet.,aus,Schmuck,sie,Dezember,aus,Esslöffel,die,Hauptbahnhof.,defekt,Besucher.,nan,grünen,Wurst,als,eine,Helmen,Schaumstoff,die,nan,nichts,mehr,nan,,,,,,,,,,,,,,,,,,,,,,,10,0,10,0,0,6,6,6,,,,,,,space,0.732261896133,,,,,2017_Jan_31_1301,59.6865332237,spr_backupper,001,Mo11,
,Tage.,war.,Kaffee,ganz,Nadelhölzer,nan,dem,nan,dass,Wohnung.,fahren.,einmal,verdünnt.,Sammlung,ziemlich,nan,jede,Gewebe,Fall,Einsatz,Fall,mit,des,ist.,eingesprüht.,selber,als,zwängen.,gehärtet.,nan,warmem,Slums.,trug.,haftbar.,Menge,überführt,Frau,nan,Gantenbeins.,mitbringen.,nan,warme,nan,zwängen.,nan,Weins,Menge,Saft,Wein,nan,zurückgekehrt.,nan,nan,gehalten.,ganz,nan,warmer,nan,Problemen,Besatz,Boden,liegen.,nan,jede,nan,Frau,das,Wohnung.,nan,zur,des,Gantenbein.,diskutiert.,Boden,Stoff,nan,dem,umgearbeitet.,überführt,stattfinden.,Japan.,warmen,Probleme,nan,war.,nan,nan,Tee,mit,einmal,Sammlung,zur,gefertigt.,Slums.,nan,mitbringen.,als,nan,,,,,,,,,,,,,,,,,,,,,,,10,0,10,0,0,7,7,7,,,,,,,space,0.528292179108,,,,,2017_Jan_31_1301,59.6865332237,spr_backupper,001,Mo11,
,nan,nan,wiederbelebt.,deutlich.,umzusetzen.,nan,Haus,nan,es,nan,nan,Rilke,nan,dummer,vermiest.,nan,Menge,wiederhergestellt.,genug.,sinken.,genug.,an,zweiten,nan,nan,kaufen.,gerne.,nan,nan,nan,Honig,nan,nan,nan,dunkler,wurden.,gepasst.,nan,nan,nan,nan,Milch.,nan,nan,nan,schon,dunkle,besprochen.,schon,nan,nan,nan,nan,nan,deutlich.,nan,Milch.,nan,im,rekonstruiert.,berührt.,nan,nan,Menge,nan,gepasst,Medikament,nan,nan,Schule.,zweiten,nan,nan,berührt.,gefertigt.,nan,Haus,nan,wurden.,nan,nan,Honigs,im,nan,nan,nan,nan,wieder,an,Rilke.,dumme,Schule.,nan,nan,nan,nan,gerne.,nan,,,,,,,,,,,,,,,,,,,,,,,10,0,10,0,0,8,8,8,,,,,,,space,0.753242969513,,,,,2017_Jan_31_1301,59.6865332237,spr_backupper,001,Mo11,
,nan,nan,nan,nan,nan,nan,geschafft.,nan,regnete.,nan,nan,gelesen.,nan,Sprüche.,nan,nan,heiße,nan,nan,nan,nan,den,Weltkriegs.,nan,nan,nan,nan,nan,nan,nan,her.,nan,nan,nan,Materie,nan,nan,nan,nan,nan,nan,nan,nan,nan,nan,auf,Materie,nan,auf,nan,nan,nan,nan,nan,nan,nan,nan,nan,Landkreis.,nan,nan,nan,nan,heißer,nan,haben.,nicht,nan,nan,nan,Weltkriegs.,nan,nan,nan,nan,nan,geschafft.,nan,nan,nan,nan,her.,Landkreis.,nan,nan,nan,nan,fit.,den,nan,Sprüche.,nan,nan,nan,nan,nan,nan,nan,,,,,,,,,,,,,,,,,,,,,,,10,0,10,0,0,9,9,9,,,,,,,space,0.358463048935,,,,,2017_Jan_31_1301,59.6865332237,spr_backupper,001,Mo11,
,,,,,,,,,,,,,,,,,,,,,,,,,,,,,,,,,,,,,,,,,,,,,,,,,,,,,,,,,,,,,,,,,,,,,,,,,,,,,,,,,,,,,,,,,,,,,,,,,,,,,,,,,,,,,,,,,,,,,,,,,10,0,10,0,,,,,,,,,,,,,None,n,3.28128004074,,2017_Jan_31_1301,59.6865332237,spr_backupper,001,Mo11,
,Der,Die,Die,Im,Jetzt,Viele,Wir,Dort,Es,Sie,Wir,In,Die,Sie,Dass,Viele,Man,Danach,100,Ihr,100,Ich,Bei,Die,Die,Jugendliche,Wir,Wir,Die,Sie,Er,Am,Die,Manche,Mit,Es,Die,Außer,Die,Außer,Beträchtliche,In,Wir,Wir,Sie,Bei,Mit,Sie,Bei,Die,Als,Es,Beträchtliche,In,Im,Er,In,Die,In,Das,Nicht,Jungtiere,Er,Man,Die,Die,In,Sie,Außer,Die,Bei,Die,Fernab,Nicht,Er,Die,Wir,Die,Es,Unter,Die,Er,In,Die,Die,Wir,Walter,Ich,Ich,In,Sie,Die,Alle,Am,Dort,Außer,Wir,Es,,,,,,,,,,,,,,,,,,,,,,,11,0,11,0,0,0,0,0,,,,,,None,space,1.71285700798,,,,,2017_Jan_31_1301,59.6865332237,spr_backupper,001,Mo11,
,Flug,Uhr,müden,Fernrohr,ist,Tonnen,haben,türmen,hat,verlassen,konnten,meinem,Lösung,hatte,es,Tonnen,machte,wurde,g,Blutdruck,g,nehme,der,Teilnehmerinnen,Eislaufbahnen,können,übergaben,mussten,Formen,verbrauchen,stellt,äußeren,Uhr,Kreditnehmer,dieser,waren,Schuhe,den,Gäste,dem,Stücke,den,hatten,mussten,verbrauchen,unserer,dieser,haben,unserer,Schule,die,wurden,Stücke,diesem,Fernrohr,wurde,den,Autos,der,Tuch,ein,sollten,wurde,machte,Schule,Schuhe,einer,verlassen,dem,Kinder,der,Gäste,des,ein,hat,Autos,haben,Stücke,waren,keinen,"Uhr,",stellt,der,Linie,Uhr,hatten,Scheel,wurde,nehme,meinem,hatte,Kinder,Betten,äußersten,türmen,das,übergaben,wurden,,,,,,,,,,,,,,,,,,,,,,,11,0,11,0,0,1,1,1,,,,,,,space,0.486538887024,,,,,2017_Jan_31_1301,59.6865332237,spr_backupper,001,Mo11,
,zum,schlug,Teilnehmer,sahen,genau,gebrauchte,jede,sich,uns,wegen,dann,Studium,wird,keine,"regnete,",gebrauchter,mal,die,braunen,kann,brauner,eine,Feier,wussten,wurden,Kleidung,dem,uns,wurden,60,die,Rand,war,sind,Methode,nur,in,Bürgermeister,suchen,Essen,saftiges,Kakao,in,uns,60,Ankunft,Methode,die,Ankunft,verbraucht,Sonne,Eimer,saftigen,Zirkus,sahen,trotz,Kakao,beider,Tat,wurde,Tropfen,immer,trotz,mal,verbraucht,in,Studie,wegen,Bürgermeister,fuhren,Feier,suchen,Rummels,Tropfen,ein,beider,jede,wurden,nur,Umständen,die,die,Tat,101,schlug,in,war,damals,eine,Studium,keine,fuhren,wurden,Rand,sich,Essen,das,Eimer,,,,,,,,,,,,,,,,,,,,,,,11,0,11,0,0,2,2,2,,,,,,,space,0.520582199097,,,,,2017_Jan_31_1301,59.6865332237,spr_backupper,001,Mo11,
,Mond,"sporadisch,",wurden,wir,die,Kleidung,Menge,Berge,die,des,mit,habe,mit,Lust,hat,Kleidung,wieder,Leinwand,Zuckers,schon,Zucker,große,gedachte,überwiegend,mit,bei,Mann,durch,unter,Liter,Masse,der,aus,mit,kann,kleinere,Größe,beschuldigten,die,kann,Fleisch,gehören,Dänemark,durch,Liter,stand,kann,Erlebnisse,stand,260.000,"unterging,",rote,Fleischs,werden,wir,dem,gehören,beteiligten,wissen,dann,königlichen,auf,des,wieder,260.000,Größe,wurde,dem,beschuldigten,mit,gedachte,die,wurde,königliches,Hemd,beteiligter,Menge,aus,kleinere,können,er,Masse,wissen,hält,"sporadisch,",Dänemark,der,schnell,große,las,Lust,mit,mit,der,Berge,kann,Auto,roter,,,,,,,,,,,,,,,,,,,,,,,11,0,11,0,0,3,3,3,,,,,,,space,0.484666109085,,,,,2017_Jan_31_1301,59.6865332237,spr_backupper,001,Mo11,
,dauerte,obwohl,mit,den,richtige,landen,alten,schmutziger,Stimmung,schönen,"minimalem,",ich,"reichlichem,",auf,uns,landen,viel,aus,sind,bei,sind,Packung,man,"nicht,",dauerhaftem,ausreichendem,das,Büschel,"regelmäßigem,",sprudelndes,mit,Stadt,"Japan,","sämtlichem,",man,"Delikte,",36,die,Wohnung,ich,wurden,immer,einen,Büschel,sprudelnden,ein,man,bei,ein,Kilowattstunden,war,Farbe,wurden,die,den,bekannten,immer,Fahrer,wir,mit,Bluts,warmem,bekannten,viel,Kilowattstunden,36,jetzt,schönen,die,solch,man,Wohnung,schon,Blut,aus,Fahrer,alten,"wertvollem,","Delikte,",Neuwahlen,"trug,",mit,wir,nicht,obschon,gelegentlich,vierte,dank,Packung,ich,auf,solchen,"üblichem,",Stadt,schmutzige,ich,dem,Farbe,,,,,,,,,,,,,,,,,,,,,,,11,0,11,0,0,4,4,4,,,,,,,space,0.77242398262,,,,,2017_Jan_31_1301,59.6865332237,spr_backupper,001,Mo11,
,ungefähr,sie,zusätzlichem,roten,"Zeit,",im,Kram,Wäsche.,ziemlich,Wetters,sauberen,mehr,purem,noch,die,im,Lärm,seltenem,auf,minimalem,auf,salziger,der,was,feinem,monatlichem,Auto,frischen,kaltem,Trinkwasser.,einem,liegen,die,künftigem,eine,deren,hätten,Störenfriede,des,leider,serviert.,350,gelegentlichen,frisches,Trinkwassers.,Glas,eine,"frischem,",Glas,elektrischer,die,geschleudert.,serviert.,Tiere,roten,Skandal,350,wurden,von,"reichem,",hat,weichem,Skandals,Lärm,elektrische,würden,"nachgewiesen,",Wetter,Störenfriede,unzureichenden,den,des,immer,hat,feinem,wurden,Krams,klassischen,derer,vor,war,einem,um,am,sie,einen,Bundespräsident.,täglichem,salzige,mehr,noch,unzureichenden,harten,liegen,Wäsche.,leider,Mann,geschleudert.,,,,,,,,,,,,,,,,,,,,,,,11,0,11,0,0,5,5,5,,,,,,,space,0.587229013443,,,,,2017_Jan_31_1301,59.6865332237,spr_backupper,001,Mo11,
,drei,defekt,schwarzem,Planeten,um,Müll.,aus,nan,"vermiest,",die,Kraftstoff,als,Alkohol,eine,Stimmung,Müll.,um,dichten,jeden,täglichen,jeden,Wurst,Soldaten,Tupperware,Kunsteis,Taschengeld,mehr,Grases,Abduschen,nan,Esslöffel,die,er,Einkommen,große,sie,seiner,jeden.,Herrn,nichts,nan,ml,Besucher.,Gras,nan,köstlichen,große,kaltem,köstlicher,Energie.,Flut,nan,nan,artgerecht,Planet,wiedergewählt.,ml,verschrottet.,den,goldenen,den,Untergrund,wiedergewählt.,um,Energie.,seiner,dass,die,jeden.,Helmen,Soldaten,Herrn,ruhig,den,dichten,verschrottet.,aus,Schmuck,sie,Dezember,aus,Esslöffel,die,Hauptbahnhof.,defekt,Besucher.,nan,grünen,Wurst,als,eine,Helmen,Schaumstoff,die,nan,nichts,mehr,nan,,,,,,,,,,,,,,,,,,,,,,,11,0,11,0,0,6,6,6,,,,,,,space,0.597069978714,,,,,2017_Jan_31_1301,59.6865332237,spr_backupper,001,Mo11,
,Tage.,war.,Kaffee,ganz,Nadelhölzer,nan,dem,nan,dass,Wohnung.,fahren.,einmal,verdünnt.,Sammlung,ziemlich,nan,jede,Gewebe,Fall,Einsatz,Fall,mit,des,ist.,eingesprüht.,selber,als,zwängen.,gehärtet.,nan,warmem,Slums.,trug.,haftbar.,Menge,überführt,Frau,nan,Gantenbeins.,mitbringen.,nan,warme,nan,zwängen.,nan,Weins,Menge,Saft,Wein,nan,zurückgekehrt.,nan,nan,gehalten.,ganz,nan,warmer,nan,Problemen,Besatz,Boden,liegen.,nan,jede,nan,Frau,das,Wohnung.,nan,zur,des,Gantenbein.,diskutiert.,Boden,Stoff,nan,dem,umgearbeitet.,überführt,stattfinden.,Japan.,warmen,Probleme,nan,war.,nan,nan,Tee,mit,einmal,Sammlung,zur,gefertigt.,Slums.,nan,mitbringen.,als,nan,,,,,,,,,,,,,,,,,,,,,,,11,0,11,0,0,7,7,7,,,,,,,space,0.934701919556,,,,,2017_Jan_31_1301,59.6865332237,spr_backupper,001,Mo11,
,nan,nan,wiederbelebt.,deutlich.,umzusetzen.,nan,Haus,nan,es,nan,nan,Rilke,nan,dummer,vermiest.,nan,Menge,wiederhergestellt.,genug.,sinken.,genug.,an,zweiten,nan,nan,kaufen.,gerne.,nan,nan,nan,Honig,nan,nan,nan,dunkler,wurden.,gepasst.,nan,nan,nan,nan,Milch.,nan,nan,nan,schon,dunkle,besprochen.,schon,nan,nan,nan,nan,nan,deutlich.,nan,Milch.,nan,im,rekonstruiert.,berührt.,nan,nan,Menge,nan,gepasst,Medikament,nan,nan,Schule.,zweiten,nan,nan,berührt.,gefertigt.,nan,Haus,nan,wurden.,nan,nan,Honigs,im,nan,nan,nan,nan,wieder,an,Rilke.,dumme,Schule.,nan,nan,nan,nan,gerne.,nan,,,,,,,,,,,,,,,,,,,,,,,11,0,11,0,0,8,8,8,,,,,,,space,0.705548048019,,,,,2017_Jan_31_1301,59.6865332237,spr_backupper,001,Mo11,
,nan,nan,nan,nan,nan,nan,geschafft.,nan,regnete.,nan,nan,gelesen.,nan,Sprüche.,nan,nan,heiße,nan,nan,nan,nan,den,Weltkriegs.,nan,nan,nan,nan,nan,nan,nan,her.,nan,nan,nan,Materie,nan,nan,nan,nan,nan,nan,nan,nan,nan,nan,auf,Materie,nan,auf,nan,nan,nan,nan,nan,nan,nan,nan,nan,Landkreis.,nan,nan,nan,nan,heißer,nan,haben.,nicht,nan,nan,nan,Weltkriegs.,nan,nan,nan,nan,nan,geschafft.,nan,nan,nan,nan,her.,Landkreis.,nan,nan,nan,nan,fit.,den,nan,Sprüche.,nan,nan,nan,nan,nan,nan,nan,,,,,,,,,,,,,,,,,,,,,,,11,0,11,0,0,9,9,9,,,,,,,space,0.459860086441,,,,,2017_Jan_31_1301,59.6865332237,spr_backupper,001,Mo11,
,nan,nan,nan,nan,nan,nan,nan,nan,nan,nan,nan,nan,nan,nan,nan,nan,Luft.,nan,nan,nan,nan,See.,nan,nan,nan,nan,nan,nan,nan,nan,nan,nan,nan,nan,erzeugen.,nan,nan,nan,nan,nan,nan,nan,nan,nan,nan,dem,erzeugen.,nan,dem,nan,nan,nan,nan,nan,nan,nan,nan,nan,nan,nan,nan,nan,nan,Luft.,nan,nan,wirkt.,nan,nan,nan,nan,nan,nan,nan,nan,nan,nan,nan,nan,nan,nan,nan,nan,nan,nan,nan,nan,nan,See.,nan,nan,nan,nan,nan,nan,nan,nan,nan,,,,,,,,,,,,,,,,,,,,,,,11,0,11,0,0,10,10,10,,,,,,,space,0.436716079712,,,,,2017_Jan_31_1301,59.6865332237,spr_backupper,001,Mo11,
,,,,,,,,,,,,,,,,,,,,,,,,,,,,,,,,,,,,,,,,,,,,,,,,,,,,,,,,,,,,,,,,,,,,,,,,,,,,,,,,,,,,,,,,,,,,,,,,,,,,,,,,,,,,,,,,,,,,,,,,,11,0,11,0,,,,,,,,,,,,,None,j,6.10364603996,,2017_Jan_31_1301,59.6865332237,spr_backupper,001,Mo11,
,Der,Die,Die,Im,Jetzt,Viele,Wir,Dort,Es,Sie,Wir,In,Die,Sie,Dass,Viele,Man,Danach,100,Ihr,100,Ich,Bei,Die,Die,Jugendliche,Wir,Wir,Die,Sie,Er,Am,Die,Manche,Mit,Es,Die,Außer,Die,Außer,Beträchtliche,In,Wir,Wir,Sie,Bei,Mit,Sie,Bei,Die,Als,Es,Beträchtliche,In,Im,Er,In,Die,In,Das,Nicht,Jungtiere,Er,Man,Die,Die,In,Sie,Außer,Die,Bei,Die,Fernab,Nicht,Er,Die,Wir,Die,Es,Unter,Die,Er,In,Die,Die,Wir,Walter,Ich,Ich,In,Sie,Die,Alle,Am,Dort,Außer,Wir,Es,,,,,,,,,,,,,,,,,,,,,,,12,0,12,0,0,0,0,0,,,,,,None,space,1.67723894119,,,,,2017_Jan_31_1301,59.6865332237,spr_backupper,001,Mo11,
,Flug,Uhr,müden,Fernrohr,ist,Tonnen,haben,türmen,hat,verlassen,konnten,meinem,Lösung,hatte,es,Tonnen,machte,wurde,g,Blutdruck,g,nehme,der,Teilnehmerinnen,Eislaufbahnen,können,übergaben,mussten,Formen,verbrauchen,stellt,äußeren,Uhr,Kreditnehmer,dieser,waren,Schuhe,den,Gäste,dem,Stücke,den,hatten,mussten,verbrauchen,unserer,dieser,haben,unserer,Schule,die,wurden,Stücke,diesem,Fernrohr,wurde,den,Autos,der,Tuch,ein,sollten,wurde,machte,Schule,Schuhe,einer,verlassen,dem,Kinder,der,Gäste,des,ein,hat,Autos,haben,Stücke,waren,keinen,"Uhr,",stellt,der,Linie,Uhr,hatten,Scheel,wurde,nehme,meinem,hatte,Kinder,Betten,äußersten,türmen,das,übergaben,wurden,,,,,,,,,,,,,,,,,,,,,,,12,0,12,0,0,1,1,1,,,,,,,space,0.923780918121,,,,,2017_Jan_31_1301,59.6865332237,spr_backupper,001,Mo11,
,zum,schlug,Teilnehmer,sahen,genau,gebrauchte,jede,sich,uns,wegen,dann,Studium,wird,keine,"regnete,",gebrauchter,mal,die,braunen,kann,brauner,eine,Feier,wussten,wurden,Kleidung,dem,uns,wurden,60,die,Rand,war,sind,Methode,nur,in,Bürgermeister,suchen,Essen,saftiges,Kakao,in,uns,60,Ankunft,Methode,die,Ankunft,verbraucht,Sonne,Eimer,saftigen,Zirkus,sahen,trotz,Kakao,beider,Tat,wurde,Tropfen,immer,trotz,mal,verbraucht,in,Studie,wegen,Bürgermeister,fuhren,Feier,suchen,Rummels,Tropfen,ein,beider,jede,wurden,nur,Umständen,die,die,Tat,101,schlug,in,war,damals,eine,Studium,keine,fuhren,wurden,Rand,sich,Essen,das,Eimer,,,,,,,,,,,,,,,,,,,,,,,12,0,12,0,0,2,2,2,,,,,,,space,1.06398200989,,,,,2017_Jan_31_1301,59.6865332237,spr_backupper,001,Mo11,
,Mond,"sporadisch,",wurden,wir,die,Kleidung,Menge,Berge,die,des,mit,habe,mit,Lust,hat,Kleidung,wieder,Leinwand,Zuckers,schon,Zucker,große,gedachte,überwiegend,mit,bei,Mann,durch,unter,Liter,Masse,der,aus,mit,kann,kleinere,Größe,beschuldigten,die,kann,Fleisch,gehören,Dänemark,durch,Liter,stand,kann,Erlebnisse,stand,260.000,"unterging,",rote,Fleischs,werden,wir,dem,gehören,beteiligten,wissen,dann,königlichen,auf,des,wieder,260.000,Größe,wurde,dem,beschuldigten,mit,gedachte,die,wurde,königliches,Hemd,beteiligter,Menge,aus,kleinere,können,er,Masse,wissen,hält,"sporadisch,",Dänemark,der,schnell,große,las,Lust,mit,mit,der,Berge,kann,Auto,roter,,,,,,,,,,,,,,,,,,,,,,,12,0,12,0,0,3,3,3,,,,,,,space,0.603288888931,,,,,2017_Jan_31_1301,59.6865332237,spr_backupper,001,Mo11,
,dauerte,obwohl,mit,den,richtige,landen,alten,schmutziger,Stimmung,schönen,"minimalem,",ich,"reichlichem,",auf,uns,landen,viel,aus,sind,bei,sind,Packung,man,"nicht,",dauerhaftem,ausreichendem,das,Büschel,"regelmäßigem,",sprudelndes,mit,Stadt,"Japan,","sämtlichem,",man,"Delikte,",36,die,Wohnung,ich,wurden,immer,einen,Büschel,sprudelnden,ein,man,bei,ein,Kilowattstunden,war,Farbe,wurden,die,den,bekannten,immer,Fahrer,wir,mit,Bluts,warmem,bekannten,viel,Kilowattstunden,36,jetzt,schönen,die,solch,man,Wohnung,schon,Blut,aus,Fahrer,alten,"wertvollem,","Delikte,",Neuwahlen,"trug,",mit,wir,nicht,obschon,gelegentlich,vierte,dank,Packung,ich,auf,solchen,"üblichem,",Stadt,schmutzige,ich,dem,Farbe,,,,,,,,,,,,,,,,,,,,,,,12,0,12,0,0,4,4,4,,,,,,,space,1.81174302101,,,,,2017_Jan_31_1301,59.6865332237,spr_backupper,001,Mo11,
,ungefähr,sie,zusätzlichem,roten,"Zeit,",im,Kram,Wäsche.,ziemlich,Wetters,sauberen,mehr,purem,noch,die,im,Lärm,seltenem,auf,minimalem,auf,salziger,der,was,feinem,monatlichem,Auto,frischen,kaltem,Trinkwasser.,einem,liegen,die,künftigem,eine,deren,hätten,Störenfriede,des,leider,serviert.,350,gelegentlichen,frisches,Trinkwassers.,Glas,eine,"frischem,",Glas,elektrischer,die,geschleudert.,serviert.,Tiere,roten,Skandal,350,wurden,von,"reichem,",hat,weichem,Skandals,Lärm,elektrische,würden,"nachgewiesen,",Wetter,Störenfriede,unzureichenden,den,des,immer,hat,feinem,wurden,Krams,klassischen,derer,vor,war,einem,um,am,sie,einen,Bundespräsident.,täglichem,salzige,mehr,noch,unzureichenden,harten,liegen,Wäsche.,leider,Mann,geschleudert.,,,,,,,,,,,,,,,,,,,,,,,12,0,12,0,0,5,5,5,,,,,,,space,0.4451379776,,,,,2017_Jan_31_1301,59.6865332237,spr_backupper,001,Mo11,
,drei,defekt,schwarzem,Planeten,um,Müll.,aus,nan,"vermiest,",die,Kraftstoff,als,Alkohol,eine,Stimmung,Müll.,um,dichten,jeden,täglichen,jeden,Wurst,Soldaten,Tupperware,Kunsteis,Taschengeld,mehr,Grases,Abduschen,nan,Esslöffel,die,er,Einkommen,große,sie,seiner,jeden.,Herrn,nichts,nan,ml,Besucher.,Gras,nan,köstlichen,große,kaltem,köstlicher,Energie.,Flut,nan,nan,artgerecht,Planet,wiedergewählt.,ml,verschrottet.,den,goldenen,den,Untergrund,wiedergewählt.,um,Energie.,seiner,dass,die,jeden.,Helmen,Soldaten,Herrn,ruhig,den,dichten,verschrottet.,aus,Schmuck,sie,Dezember,aus,Esslöffel,die,Hauptbahnhof.,defekt,Besucher.,nan,grünen,Wurst,als,eine,Helmen,Schaumstoff,die,nan,nichts,mehr,nan,,,,,,,,,,,,,,,,,,,,,,,12,0,12,0,0,6,6,6,,,,,,,space,0.536180019379,,,,,2017_Jan_31_1301,59.6865332237,spr_backupper,001,Mo11,
,Tage.,war.,Kaffee,ganz,Nadelhölzer,nan,dem,nan,dass,Wohnung.,fahren.,einmal,verdünnt.,Sammlung,ziemlich,nan,jede,Gewebe,Fall,Einsatz,Fall,mit,des,ist.,eingesprüht.,selber,als,zwängen.,gehärtet.,nan,warmem,Slums.,trug.,haftbar.,Menge,überführt,Frau,nan,Gantenbeins.,mitbringen.,nan,warme,nan,zwängen.,nan,Weins,Menge,Saft,Wein,nan,zurückgekehrt.,nan,nan,gehalten.,ganz,nan,warmer,nan,Problemen,Besatz,Boden,liegen.,nan,jede,nan,Frau,das,Wohnung.,nan,zur,des,Gantenbein.,diskutiert.,Boden,Stoff,nan,dem,umgearbeitet.,überführt,stattfinden.,Japan.,warmen,Probleme,nan,war.,nan,nan,Tee,mit,einmal,Sammlung,zur,gefertigt.,Slums.,nan,mitbringen.,als,nan,,,,,,,,,,,,,,,,,,,,,,,12,0,12,0,0,7,7,7,,,,,,,space,0.443041086197,,,,,2017_Jan_31_1301,59.6865332237,spr_backupper,001,Mo11,
,nan,nan,wiederbelebt.,deutlich.,umzusetzen.,nan,Haus,nan,es,nan,nan,Rilke,nan,dummer,vermiest.,nan,Menge,wiederhergestellt.,genug.,sinken.,genug.,an,zweiten,nan,nan,kaufen.,gerne.,nan,nan,nan,Honig,nan,nan,nan,dunkler,wurden.,gepasst.,nan,nan,nan,nan,Milch.,nan,nan,nan,schon,dunkle,besprochen.,schon,nan,nan,nan,nan,nan,deutlich.,nan,Milch.,nan,im,rekonstruiert.,berührt.,nan,nan,Menge,nan,gepasst,Medikament,nan,nan,Schule.,zweiten,nan,nan,berührt.,gefertigt.,nan,Haus,nan,wurden.,nan,nan,Honigs,im,nan,nan,nan,nan,wieder,an,Rilke.,dumme,Schule.,nan,nan,nan,nan,gerne.,nan,,,,,,,,,,,,,,,,,,,,,,,12,0,12,0,0,8,8,8,,,,,,,space,0.583688020706,,,,,2017_Jan_31_1301,59.6865332237,spr_backupper,001,Mo11,
,,,,,,,,,,,,,,,,,,,,,,,,,,,,,,,,,,,,,,,,,,,,,,,,,,,,,,,,,,,,,,,,,,,,,,,,,,,,,,,,,,,,,,,,,,,,,,,,,,,,,,,,,,,,,,,,,,,,,,,,,12,0,12,0,,,,,,,,,,,,,None,j,8.95556402206,,2017_Jan_31_1301,59.6865332237,spr_backupper,001,Mo11,
,Der,Die,Die,Im,Jetzt,Viele,Wir,Dort,Es,Sie,Wir,In,Die,Sie,Dass,Viele,Man,Danach,100,Ihr,100,Ich,Bei,Die,Die,Jugendliche,Wir,Wir,Die,Sie,Er,Am,Die,Manche,Mit,Es,Die,Außer,Die,Außer,Beträchtliche,In,Wir,Wir,Sie,Bei,Mit,Sie,Bei,Die,Als,Es,Beträchtliche,In,Im,Er,In,Die,In,Das,Nicht,Jungtiere,Er,Man,Die,Die,In,Sie,Außer,Die,Bei,Die,Fernab,Nicht,Er,Die,Wir,Die,Es,Unter,Die,Er,In,Die,Die,Wir,Walter,Ich,Ich,In,Sie,Die,Alle,Am,Dort,Außer,Wir,Es,,,,,,,,,,,,,,,,,,,,,,,13,0,13,0,0,0,0,0,,,,,,None,space,0.571589946747,,,,,2017_Jan_31_1301,59.6865332237,spr_backupper,001,Mo11,
,Flug,Uhr,müden,Fernrohr,ist,Tonnen,haben,türmen,hat,verlassen,konnten,meinem,Lösung,hatte,es,Tonnen,machte,wurde,g,Blutdruck,g,nehme,der,Teilnehmerinnen,Eislaufbahnen,können,übergaben,mussten,Formen,verbrauchen,stellt,äußeren,Uhr,Kreditnehmer,dieser,waren,Schuhe,den,Gäste,dem,Stücke,den,hatten,mussten,verbrauchen,unserer,dieser,haben,unserer,Schule,die,wurden,Stücke,diesem,Fernrohr,wurde,den,Autos,der,Tuch,ein,sollten,wurde,machte,Schule,Schuhe,einer,verlassen,dem,Kinder,der,Gäste,des,ein,hat,Autos,haben,Stücke,waren,keinen,"Uhr,",stellt,der,Linie,Uhr,hatten,Scheel,wurde,nehme,meinem,hatte,Kinder,Betten,äußersten,türmen,das,übergaben,wurden,,,,,,,,,,,,,,,,,,,,,,,13,0,13,0,0,1,1,1,,,,,,,space,0.424036026001,,,,,2017_Jan_31_1301,59.6865332237,spr_backupper,001,Mo11,
,zum,schlug,Teilnehmer,sahen,genau,gebrauchte,jede,sich,uns,wegen,dann,Studium,wird,keine,"regnete,",gebrauchter,mal,die,braunen,kann,brauner,eine,Feier,wussten,wurden,Kleidung,dem,uns,wurden,60,die,Rand,war,sind,Methode,nur,in,Bürgermeister,suchen,Essen,saftiges,Kakao,in,uns,60,Ankunft,Methode,die,Ankunft,verbraucht,Sonne,Eimer,saftigen,Zirkus,sahen,trotz,Kakao,beider,Tat,wurde,Tropfen,immer,trotz,mal,verbraucht,in,Studie,wegen,Bürgermeister,fuhren,Feier,suchen,Rummels,Tropfen,ein,beider,jede,wurden,nur,Umständen,die,die,Tat,101,schlug,in,war,damals,eine,Studium,keine,fuhren,wurden,Rand,sich,Essen,das,Eimer,,,,,,,,,,,,,,,,,,,,,,,13,0,13,0,0,2,2,2,,,,,,,space,0.454254150391,,,,,2017_Jan_31_1301,59.6865332237,spr_backupper,001,Mo11,
,Mond,"sporadisch,",wurden,wir,die,Kleidung,Menge,Berge,die,des,mit,habe,mit,Lust,hat,Kleidung,wieder,Leinwand,Zuckers,schon,Zucker,große,gedachte,überwiegend,mit,bei,Mann,durch,unter,Liter,Masse,der,aus,mit,kann,kleinere,Größe,beschuldigten,die,kann,Fleisch,gehören,Dänemark,durch,Liter,stand,kann,Erlebnisse,stand,260.000,"unterging,",rote,Fleischs,werden,wir,dem,gehören,beteiligten,wissen,dann,königlichen,auf,des,wieder,260.000,Größe,wurde,dem,beschuldigten,mit,gedachte,die,wurde,königliches,Hemd,beteiligter,Menge,aus,kleinere,können,er,Masse,wissen,hält,"sporadisch,",Dänemark,der,schnell,große,las,Lust,mit,mit,der,Berge,kann,Auto,roter,,,,,,,,,,,,,,,,,,,,,,,13,0,13,0,0,3,3,3,,,,,,,space,0.459713935852,,,,,2017_Jan_31_1301,59.6865332237,spr_backupper,001,Mo11,
