text,sent48,sent9,sent8,sent15,sent3,sent2,sent1,sent14,sent7,sent6,sent5,sent4,sent57,sent56,sent55,sent54,sent53,sent52,sent51,sent50,sent13,sent12,sent11,sent10,sent17,sent16,sent59,sent58,sent93,sent92,sent91,sent90,sent97,sent96,sent95,sent94,sent98,sent22,sent23,sent20,sent21,sent26,sent27,sent24,sent25,sent28,sent29,sent68,sent69,sent66,sent67,sent64,sent65,sent62,sent63,sent60,sent61,sent31,sent30,sent33,sent32,sent35,sent34,sent37,sent36,sent39,sent38,sent79,sent78,sent75,sent74,sent77,sent76,sent71,sent70,sent73,sent72,sent19,sent49,sent18,sent44,sent45,sent84,sent85,sent86,sent87,sent80,sent81,sent82,sent83,sent40,sent41,sent42,sent43,sent88,sent89,sent46,sent47,intros.thisRepN,intros.thisTrialN,intros.thisN,intros.thisIndex,trials.thisRepN,trials.thisTrialN,trials.thisN,trials.thisIndex,testWords.thisRepN,testWords.thisTrialN,testWords.thisN,testWords.thisIndex,test1,test3,test2,test5,test4,test7,test6,test9,test8,test10,realTrials.thisRepN,realTrials.thisTrialN,realTrials.thisN,realTrials.thisIndex,words.thisRepN,words.thisTrialN,words.thisN,words.thisIndex,key_resp_3.keys,key_resp_3.rt,key_resp_8.keys,key_resp_10.keys,key_resp_10.rt,key_resp_6.keys,wordRead.keys,wordRead.rt,key_resp_5.keys,questAnswer.keys,questAnswer.rt,key_resp_6.rt,key_resp_5.rt,date,frameRate,expName,session,participant,
"Vielen Dank, dass Sie an diesem Experiment teilnehmen. Vor dem eigentlichen Experiment sehen Sie nun zuerst eine kurze Erläuterung, und Sie absolvieren ein kurze Übungsphase.

Das Experiment dauert insgesamt nicht mehr als 45 Minuten.",,,,,,,,,,,,,,,,,,,,,,,,,,,,,,,,,,,,,,,,,,,,,,,,,,,,,,,,,,,,,,,,,,,,,,,,,,,,,,,,,,,,,,,,,,,,,,,,,,,0,0,0,0,,,,,,,,,,,,,,,,,,,,,,,,,,,,,,,,,,,,,,,,2017_Jan_23_1155,59.8222293219,spr_backupper,001,Mo12,
"In diesem Experiment lesen Sie deutsche Sätze, indem Sie sich von Wort zu Wort mit der Leertaste durch den Satz klicken.",,,,,,,,,,,,,,,,,,,,,,,,,,,,,,,,,,,,,,,,,,,,,,,,,,,,,,,,,,,,,,,,,,,,,,,,,,,,,,,,,,,,,,,,,,,,,,,,,,,0,1,1,1,,,,,,,,,,,,,,,,,,,,,,,,,,,,,,,,,,,,,,,,2017_Jan_23_1155,59.8222293219,spr_backupper,001,Mo12,
"Sie sehen dabei immer nur das aktuelle Wort. Die Lesegeschwindigkeit bestimmen Sie vollständig selber. Vor jedem Satz sehen Sie in der Bildschirmmitte für zwei Sekunden ein + an der Stelle, an der dann die Wörter erscheinen.",,,,,,,,,,,,,,,,,,,,,,,,,,,,,,,,,,,,,,,,,,,,,,,,,,,,,,,,,,,,,,,,,,,,,,,,,,,,,,,,,,,,,,,,,,,,,,,,,,,0,2,2,2,,,,,,,,,,,,,,,,,,,,,,,,,,,,,,,,,,,,,,,,2017_Jan_23_1155,59.8222293219,spr_backupper,001,Mo12,
"Nach jedem Satz wird Ihnen eine Ja/Nein-Verständnisfrage zum zuvor gelesenen Satz gestellt, die Sie mit der J-Taste für "Ja" und der N-Taste für "Nein" beantworten. Antworten Sie möglichst spontan und ohne lange Nachzudenken.",,,,,,,,,,,,,,,,,,,,,,,,,,,,,,,,,,,,,,,,,,,,,,,,,,,,,,,,,,,,,,,,,,,,,,,,,,,,,,,,,,,,,,,,,,,,,,,,,,,0,3,3,3,,,,,,,,,,,,,,,,,,,,,,,,,,,,,,,,,,,,,,,,2017_Jan_23_1155,59.8222293219,spr_backupper,001,Mo12,
"Unterbrechen Sie das Experiment bitte auf keinen Fall, stellen Sie den ExperimentatorInnen nach dem Experimentbeginn keine Fragen, und lassen Sie sich nicht durch Umgebungsgeräusche ablenken.",,,,,,,,,,,,,,,,,,,,,,,,,,,,,,,,,,,,,,,,,,,,,,,,,,,,,,,,,,,,,,,,,,,,,,,,,,,,,,,,,,,,,,,,,,,,,,,,,,,0,4,4,4,,,,,,,,,,,,,,,,,,,,,,,,,,,,,,,,,,,,,,,,2017_Jan_23_1155,59.8222293219,spr_backupper,001,Mo12,
"Im nächsten Schritt beantworten Sie bitte eine Frage zu Ihren Deutschkenntnissen. Danach beginnt eine Übungseinheit, mit der Sie sich an die Art der Durchführung dieses Experiments gewöhnen können.",,,,,,,,,,,,,,,,,,,,,,,,,,,,,,,,,,,,,,,,,,,,,,,,,,,,,,,,,,,,,,,,,,,,,,,,,,,,,,,,,,,,,,,,,,,,,,,,,,,0,5,5,5,,,,,,,,,,,,,,,,,,,,,,,,,,,,,,,,,,,,,,,,2017_Jan_23_1155,59.8222293219,spr_backupper,001,Mo12,
,,,,,,,,,,,,,,,,,,,,,,,,,,,,,,,,,,,,,,,,,,,,,,,,,,,,,,,,,,,,,,,,,,,,,,,,,,,,,,,,,,,,,,,,,,,,,,,,,,,,,,,,,,,,,,,,,,,,,,,,,,,,,,,,,j,10.2121360302,,,,,,,,,,,,2017_Jan_23_1155,59.8222293219,spr_backupper,001,Mo12,
,,,,,,,,,,,,,,,,,,,,,,,,,,,,,,,,,,,,,,,,,,,,,,,,,,,,,,,,,,,,,,,,,,,,,,,,,,,,,,,,,,,,,,,,,,,,,,,,,,,,,,,0,0,0,0,,,,,,,,,,,,,,,,,,,,,,,,,None,,,,,,,,,,,2017_Jan_23_1155,59.8222293219,spr_backupper,001,Mo12,
,,,,,,,,,,,,,,,,,,,,,,,,,,,,,,,,,,,,,,,,,,,,,,,,,,,,,,,,,,,,,,,,,,,,,,,,,,,,,,,,,,,,,,,,,,,,,,,,,,,,,,,1,0,1,0,,,,,,,,,,,,,,,,,,,,,,,,,None,,,,,,,,,,,2017_Jan_23_1155,59.8222293219,spr_backupper,001,Mo12,
,,,,,,,,,,,,,,,,,,,,,,,,,,,,,,,,,,,,,,,,,,,,,,,,,,,,,,,,,,,,,,,,,,,,,,,,,,,,,,,,,,,,,,,,,,,,,,,,,,,,,,,2,0,2,0,,,,,,,,,,,,,,,,,,,,,,,,,None,,,,,,,,,,,2017_Jan_23_1155,59.8222293219,spr_backupper,001,Mo12,
,,,,,,,,,,,,,,,,,,,,,,,,,,,,,,,,,,,,,,,,,,,,,,,,,,,,,,,,,,,,,,,,,,,,,,,,,,,,,,,,,,,,,,,,,,,,,,,,,,,,,,,3,0,3,0,,,,,,,,,,,,,,,,,,,,,,,,,None,,,,,,,,,,,2017_Jan_23_1155,59.8222293219,spr_backupper,001,Mo12,
,,,,,,,,,,,,,,,,,,,,,,,,,,,,,,,,,,,,,,,,,,,,,,,,,,,,,,,,,,,,,,,,,,,,,,,,,,,,,,,,,,,,,,,,,,,,,,,,,,,,,,,4,0,4,0,,,,,,,,,,,,,,,,,,,,,,,,,None,,,,,,,,,,,2017_Jan_23_1155,59.8222293219,spr_backupper,001,Mo12,
,,,,,,,,,,,,,,,,,,,,,,,,,,,,,,,,,,,,,,,,,,,,,,,,,,,,,,,,,,,,,,,,,,,,,,,,,,,,,,,,,,,,,,,,,,,,,,,,,,,,,,,5,0,5,0,,,,,,,,,,,,,,,,,,,,,,,,,None,,,,,,,,,,,2017_Jan_23_1155,59.8222293219,spr_backupper,001,Mo12,
,,,,,,,,,,,,,,,,,,,,,,,,,,,,,,,,,,,,,,,,,,,,,,,,,,,,,,,,,,,,,,,,,,,,,,,,,,,,,,,,,,,,,,,,,,,,,,,,,,,,,,,6,0,6,0,,,,,,,,,,,,,,,,,,,,,,,,,None,,,,,,,,,,,2017_Jan_23_1155,59.8222293219,spr_backupper,001,Mo12,
,,,,,,,,,,,,,,,,,,,,,,,,,,,,,,,,,,,,,,,,,,,,,,,,,,,,,,,,,,,,,,,,,,,,,,,,,,,,,,,,,,,,,,,,,,,,,,,,,,,,,,,7,0,7,0,,,,,,,,,,,,,,,,,,,,,,,,,None,,,,,,,,,,,2017_Jan_23_1155,59.8222293219,spr_backupper,001,Mo12,
,,,,,,,,,,,,,,,,,,,,,,,,,,,,,,,,,,,,,,,,,,,,,,,,,,,,,,,,,,,,,,,,,,,,,,,,,,,,,,,,,,,,,,,,,,,,,,,,,,,,,,,8,0,8,0,,,,,,,,,,,,,,,,,,,,,,,,,None,,,,,,,,,,,2017_Jan_23_1155,59.8222293219,spr_backupper,001,Mo12,
,,,,,,,,,,,,,,,,,,,,,,,,,,,,,,,,,,,,,,,,,,,,,,,,,,,,,,,,,,,,,,,,,,,,,,,,,,,,,,,,,,,,,,,,,,,,,,,,,,,,,,,9,0,9,0,,,,,,,,,,,,,,,,,,,,,,,,,None,,,,,,,,,,,2017_Jan_23_1155,59.8222293219,spr_backupper,001,Mo12,
,,,,,,,,,,,,,,,,,,,,,,,,,,,,,,,,,,,,,,,,,,,,,,,,,,,,,,,,,,,,,,,,,,,,,,,,,,,,,,,,,,,,,,,,,,,,,,,,,,,,,,,,,,,,,,,,,,,,,,,,,,,,,,,,,,,,space,6.12191081047,,,,,,,,,2017_Jan_23_1155,59.8222293219,spr_backupper,001,Mo12,
,100,Als,Sie,In,Es,Wir,Ihr,Bei,Die,Ich,Er,Wir,Nicht,Die,Die,Außer,Er,100,Dort,Die,Die,Wir,Er,Sie,Manche,Beträchtliche,Wir,Sie,Das,Die,Bei,Am,Es,Es,Jungtiere,Die,Beträchtliche,Wir,Dort,Die,Dass,Mit,Ich,Danach,Die,Bei,Es,Der,Mit,Es,Die,Die,Die,Wir,Alle,In,Wir,Im,Außer,Die,Sie,Die,Viele,Die,Sie,In,Fernab,In,Im,In,Er,Wir,Unter,Man,Die,Viele,Außer,Am,Man,Außer,In,Die,Sie,Ich,In,Jetzt,Die,Sie,Wir,Die,Die,Er,Walter,In,Bei,Jugendliche,Die,Nicht,,,,,,,,,,,,,,,,,,,,,,,0,0,0,0,0,0,0,0,,,,,,None,space,0.904959917068,,,,,,2017_Jan_23_1155,59.8222293219,spr_backupper,001,Mo12,
,g,die,verbrauchen,der,wurden,übergaben,Blutdruck,der,Schule,nehme,wurde,hatten,ein,Teilnehmerinnen,Autos,dem,wurde,g,türmen,"Uhr,",Lösung,mussten,stellt,verlassen,Kreditnehmer,Stücke,haben,verlassen,Tuch,Stücke,unserer,äußersten,hat,waren,sollten,müden,Stücke,haben,türmen,Linie,es,dieser,wurde,wurde,Schuhe,unserer,waren,Flug,dieser,wurden,Schule,Schuhe,Kinder,hatten,Betten,meinem,konnten,Fernrohr,das,Gäste,hatte,Uhr,Tonnen,Uhr,haben,meinem,des,der,Fernrohr,den,stellt,übergaben,keinen,machte,Gäste,Tonnen,den,äußeren,machte,dem,diesem,Autos,verbrauchen,nehme,einer,ist,Uhr,hatte,mussten,Eislaufbahnen,Kinder,hat,Scheel,den,der,können,Formen,ein,,,,,,,,,,,,,,,,,,,,,,,0,0,0,0,0,1,1,1,,,,,,,space,0.737582921982,,,,,,2017_Jan_23_1155,59.8222293219,spr_backupper,001,Mo12,
,braunen,Sonne,60,Tat,Eimer,dem,kann,Feier,verbraucht,eine,trotz,in,Tropfen,wussten,beider,Essen,trotz,brauner,sich,die,wird,uns,die,wegen,sind,saftigen,jede,wegen,wurde,wurden,Ankunft,Rand,uns,nur,immer,Teilnehmer,saftiges,jede,sich,101,"regnete,",Methode,damals,die,in,Ankunft,nur,zum,Methode,Eimer,verbraucht,in,fuhren,in,wurden,Studium,dann,sahen,Essen,suchen,keine,war,gebrauchter,schlug,die,Studium,Rummels,Tat,sahen,Kakao,die,das,Umständen,mal,suchen,gebrauchte,Bürgermeister,Rand,mal,Bürgermeister,Zirkus,beider,60,eine,Studie,genau,schlug,keine,uns,wurden,fuhren,ein,war,Kakao,Feier,Kleidung,wurden,Tropfen,,,,,,,,,,,,,,,,,,,,,,,0,0,0,0,0,2,2,2,,,,,,,space,0.478450059891,,,,,,2017_Jan_23_1155,59.8222293219,spr_backupper,001,Mo12,
,Zuckers,"unterging,",Liter,wissen,rote,Mann,schon,gedachte,260.000,große,dem,Dänemark,königlichen,überwiegend,beteiligten,kann,des,Zucker,Berge,er,mit,durch,Masse,dem,mit,Fleischs,Menge,des,dann,aus,stand,der,die,kleinere,auf,wurden,Fleisch,Menge,Berge,hält,hat,kann,schnell,Leinwand,Größe,stand,kleinere,Mond,kann,roter,260.000,Größe,mit,Dänemark,mit,habe,mit,wir,kann,die,Lust,aus,Kleidung,"sporadisch,",Erlebnisse,las,wurde,wissen,wir,gehören,Masse,Auto,können,wieder,die,Kleidung,beschuldigten,der,wieder,beschuldigten,werden,beteiligter,Liter,große,wurde,die,"sporadisch,",Lust,durch,mit,mit,Hemd,der,gehören,gedachte,bei,unter,königliches,,,,,,,,,,,,,,,,,,,,,,,0,0,0,0,0,3,3,3,,,,,,,space,0.46248793602,,,,,,2017_Jan_23_1155,59.8222293219,spr_backupper,001,Mo12,
,sind,war,sprudelndes,wir,Farbe,das,bei,man,Kilowattstunden,Packung,bekannten,gelegentlich,Bluts,"nicht,",Fahrer,ich,bekannten,sind,schmutziger,"trug,","reichlichem,",Büschel,mit,schönen,"sämtlichem,",wurden,alten,schönen,mit,"wertvollem,",ein,Stadt,Stimmung,"Delikte,",warmem,mit,wurden,alten,schmutzige,nicht,uns,man,dank,aus,36,ein,"Delikte,",dauerte,man,Farbe,Kilowattstunden,36,solchen,einen,"üblichem,",ich,"minimalem,",den,ich,Wohnung,auf,"Japan,",landen,obschon,bei,ich,schon,wir,den,immer,mit,dem,Neuwahlen,viel,Wohnung,landen,die,Stadt,viel,die,die,Fahrer,sprudelnden,Packung,jetzt,richtige,obwohl,auf,Büschel,dauerhaftem,solch,aus,vierte,immer,man,ausreichendem,"regelmäßigem,",Blut,,,,,,,,,,,,,,,,,,,,,,,0,0,0,0,0,4,4,4,,,,,,,space,0.468637943268,,,,,,2017_Jan_23_1155,59.8222293219,spr_backupper,001,Mo12,
,auf,die,Trinkwasser.,um,geschleudert.,Auto,minimalem,den,elektrischer,salzige,Skandal,einen,hat,was,wurden,leider,Skandals,auf,Wäsche.,war,purem,frischen,einem,Wetter,künftigem,serviert.,Kram,Wetters,"reichem,",klassischen,Glas,liegen,ziemlich,derer,weichem,zusätzlichem,serviert.,Krams,Wäsche.,am,die,eine,täglichem,seltenem,hätten,Glas,deren,ungefähr,eine,geschleudert.,elektrische,würden,unzureichenden,gelegentlichen,harten,mehr,sauberen,roten,leider,des,noch,die,im,sie,"frischem,",mehr,immer,von,roten,350,einem,Mann,vor,Lärm,des,im,Störenfriede,liegen,Lärm,Störenfriede,Tiere,wurden,Trinkwassers.,salziger,"nachgewiesen,","Zeit,",sie,noch,frisches,feinem,unzureichenden,feinem,Bundespräsident.,350,der,monatlichem,kaltem,hat,,,,,,,,,,,,,,,,,,,,,,,0,0,0,0,0,5,5,5,,,,,,,space,0.739161014557,,,,,,2017_Jan_23_1155,59.8222293219,spr_backupper,001,Mo12,
,jeden,Flut,nan,die,nan,mehr,täglichen,Soldaten,Energie.,Wurst,wiedergewählt.,Besucher.,den,Tupperware,verschrottet.,nichts,wiedergewählt.,jeden,nan,aus,Alkohol,Grases,Esslöffel,die,Einkommen,nan,aus,die,goldenen,Schmuck,köstlichen,die,"vermiest,",sie,Untergrund,schwarzem,nan,aus,nan,Hauptbahnhof.,Stimmung,große,grünen,dichten,seiner,köstlicher,sie,drei,große,nan,Energie.,seiner,Helmen,Besucher.,Schaumstoff,als,Kraftstoff,Planet,nichts,Herrn,eine,er,Müll.,defekt,kaltem,als,ruhig,den,Planeten,ml,Esslöffel,mehr,Dezember,um,Herrn,Müll.,jeden.,die,um,jeden.,artgerecht,verschrottet.,nan,Wurst,dass,um,defekt,eine,Gras,Kunsteis,Helmen,dichten,nan,ml,Soldaten,Taschengeld,Abduschen,den,,,,,,,,,,,,,,,,,,,,,,,0,0,0,0,0,6,6,6,,,,,,,space,0.507599115372,,,,,,2017_Jan_23_1155,59.8222293219,spr_backupper,001,Mo12,
,Fall,zurückgekehrt.,nan,Probleme,nan,als,Einsatz,des,nan,mit,nan,nan,Boden,ist.,nan,mitbringen.,nan,Fall,nan,Japan.,verdünnt.,zwängen.,warmem,Wohnung.,haftbar.,nan,dem,Wohnung.,Besatz,umgearbeitet.,Weins,Slums.,dass,überführt,liegen.,Kaffee,nan,dem,nan,nan,ziemlich,Menge,Tee,Gewebe,Frau,Wein,überführt,Tage.,Menge,nan,nan,Frau,zur,nan,gefertigt.,einmal,fahren.,ganz,mitbringen.,Gantenbein.,Sammlung,trug.,nan,war.,Saft,einmal,diskutiert.,Problemen,ganz,warme,warmen,als,stattfinden.,jede,Gantenbeins.,nan,nan,Slums.,jede,nan,gehalten.,nan,nan,mit,das,Nadelhölzer,war.,Sammlung,zwängen.,eingesprüht.,zur,Stoff,nan,warmer,des,selber,gehärtet.,Boden,,,,,,,,,,,,,,,,,,,,,,,0,0,0,0,0,7,7,7,,,,,,,space,0.526649951935,,,,,,2017_Jan_23_1155,59.8222293219,spr_backupper,001,Mo12,
,genug.,nan,nan,im,nan,gerne.,sinken.,zweiten,nan,an,nan,nan,berührt.,nan,nan,nan,nan,genug.,nan,nan,nan,nan,Honig,nan,nan,nan,Haus,nan,rekonstruiert.,nan,schon,nan,es,wurden.,nan,wiederbelebt.,nan,Haus,nan,nan,vermiest.,dunkler,wieder,wiederhergestellt.,gepasst.,schon,wurden.,nan,dunkle,nan,nan,gepasst,Schule.,nan,nan,Rilke,nan,deutlich.,nan,nan,dummer,nan,nan,nan,besprochen.,Rilke.,nan,im,deutlich.,Milch.,Honigs,gerne.,nan,Menge,nan,nan,nan,nan,Menge,nan,nan,nan,nan,an,Medikament,umzusetzen.,nan,dumme,nan,nan,Schule.,gefertigt.,nan,Milch.,zweiten,kaufen.,nan,berührt.,,,,,,,,,,,,,,,,,,,,,,,0,0,0,0,0,8,8,8,,,,,,,space,0.73371887207,,,,,,2017_Jan_23_1155,59.8222293219,spr_backupper,001,Mo12,
,,,,,,,,,,,,,,,,,,,,,,,,,,,,,,,,,,,,,,,,,,,,,,,,,,,,,,,,,,,,,,,,,,,,,,,,,,,,,,,,,,,,,,,,,,,,,,,,,,,,,,,,,,,,,,,,,,,,,,,,,0,0,0,0,,,,,,,,,,,,,None,j,5.00828099251,,,2017_Jan_23_1155,59.8222293219,spr_backupper,001,Mo12,
,100,Als,Sie,In,Es,Wir,Ihr,Bei,Die,Ich,Er,Wir,Nicht,Die,Die,Außer,Er,100,Dort,Die,Die,Wir,Er,Sie,Manche,Beträchtliche,Wir,Sie,Das,Die,Bei,Am,Es,Es,Jungtiere,Die,Beträchtliche,Wir,Dort,Die,Dass,Mit,Ich,Danach,Die,Bei,Es,Der,Mit,Es,Die,Die,Die,Wir,Alle,In,Wir,Im,Außer,Die,Sie,Die,Viele,Die,Sie,In,Fernab,In,Im,In,Er,Wir,Unter,Man,Die,Viele,Außer,Am,Man,Außer,In,Die,Sie,Ich,In,Jetzt,Die,Sie,Wir,Die,Die,Er,Walter,In,Bei,Jugendliche,Die,Nicht,,,,,,,,,,,,,,,,,,,,,,,1,0,1,0,0,0,0,0,,,,,,None,space,0.479383945465,,,,,,2017_Jan_23_1155,59.8222293219,spr_backupper,001,Mo12,
,g,die,verbrauchen,der,wurden,übergaben,Blutdruck,der,Schule,nehme,wurde,hatten,ein,Teilnehmerinnen,Autos,dem,wurde,g,türmen,"Uhr,",Lösung,mussten,stellt,verlassen,Kreditnehmer,Stücke,haben,verlassen,Tuch,Stücke,unserer,äußersten,hat,waren,sollten,müden,Stücke,haben,türmen,Linie,es,dieser,wurde,wurde,Schuhe,unserer,waren,Flug,dieser,wurden,Schule,Schuhe,Kinder,hatten,Betten,meinem,konnten,Fernrohr,das,Gäste,hatte,Uhr,Tonnen,Uhr,haben,meinem,des,der,Fernrohr,den,stellt,übergaben,keinen,machte,Gäste,Tonnen,den,äußeren,machte,dem,diesem,Autos,verbrauchen,nehme,einer,ist,Uhr,hatte,mussten,Eislaufbahnen,Kinder,hat,Scheel,den,der,können,Formen,ein,,,,,,,,,,,,,,,,,,,,,,,1,0,1,0,0,1,1,1,,,,,,,space,0.518872022629,,,,,,2017_Jan_23_1155,59.8222293219,spr_backupper,001,Mo12,
,braunen,Sonne,60,Tat,Eimer,dem,kann,Feier,verbraucht,eine,trotz,in,Tropfen,wussten,beider,Essen,trotz,brauner,sich,die,wird,uns,die,wegen,sind,saftigen,jede,wegen,wurde,wurden,Ankunft,Rand,uns,nur,immer,Teilnehmer,saftiges,jede,sich,101,"regnete,",Methode,damals,die,in,Ankunft,nur,zum,Methode,Eimer,verbraucht,in,fuhren,in,wurden,Studium,dann,sahen,Essen,suchen,keine,war,gebrauchter,schlug,die,Studium,Rummels,Tat,sahen,Kakao,die,das,Umständen,mal,suchen,gebrauchte,Bürgermeister,Rand,mal,Bürgermeister,Zirkus,beider,60,eine,Studie,genau,schlug,keine,uns,wurden,fuhren,ein,war,Kakao,Feier,Kleidung,wurden,Tropfen,,,,,,,,,,,,,,,,,,,,,,,1,0,1,0,0,2,2,2,,,,,,,space,0.648219823837,,,,,,2017_Jan_23_1155,59.8222293219,spr_backupper,001,Mo12,
,Zuckers,"unterging,",Liter,wissen,rote,Mann,schon,gedachte,260.000,große,dem,Dänemark,königlichen,überwiegend,beteiligten,kann,des,Zucker,Berge,er,mit,durch,Masse,dem,mit,Fleischs,Menge,des,dann,aus,stand,der,die,kleinere,auf,wurden,Fleisch,Menge,Berge,hält,hat,kann,schnell,Leinwand,Größe,stand,kleinere,Mond,kann,roter,260.000,Größe,mit,Dänemark,mit,habe,mit,wir,kann,die,Lust,aus,Kleidung,"sporadisch,",Erlebnisse,las,wurde,wissen,wir,gehören,Masse,Auto,können,wieder,die,Kleidung,beschuldigten,der,wieder,beschuldigten,werden,beteiligter,Liter,große,wurde,die,"sporadisch,",Lust,durch,mit,mit,Hemd,der,gehören,gedachte,bei,unter,königliches,,,,,,,,,,,,,,,,,,,,,,,1,0,1,0,0,3,3,3,,,,,,,space,0.469792842865,,,,,,2017_Jan_23_1155,59.8222293219,spr_backupper,001,Mo12,
,sind,war,sprudelndes,wir,Farbe,das,bei,man,Kilowattstunden,Packung,bekannten,gelegentlich,Bluts,"nicht,",Fahrer,ich,bekannten,sind,schmutziger,"trug,","reichlichem,",Büschel,mit,schönen,"sämtlichem,",wurden,alten,schönen,mit,"wertvollem,",ein,Stadt,Stimmung,"Delikte,",warmem,mit,wurden,alten,schmutzige,nicht,uns,man,dank,aus,36,ein,"Delikte,",dauerte,man,Farbe,Kilowattstunden,36,solchen,einen,"üblichem,",ich,"minimalem,",den,ich,Wohnung,auf,"Japan,",landen,obschon,bei,ich,schon,wir,den,immer,mit,dem,Neuwahlen,viel,Wohnung,landen,die,Stadt,viel,die,die,Fahrer,sprudelnden,Packung,jetzt,richtige,obwohl,auf,Büschel,dauerhaftem,solch,aus,vierte,immer,man,ausreichendem,"regelmäßigem,",Blut,,,,,,,,,,,,,,,,,,,,,,,1,0,1,0,0,4,4,4,,,,,,,space,0.444278001785,,,,,,2017_Jan_23_1155,59.8222293219,spr_backupper,001,Mo12,
,auf,die,Trinkwasser.,um,geschleudert.,Auto,minimalem,den,elektrischer,salzige,Skandal,einen,hat,was,wurden,leider,Skandals,auf,Wäsche.,war,purem,frischen,einem,Wetter,künftigem,serviert.,Kram,Wetters,"reichem,",klassischen,Glas,liegen,ziemlich,derer,weichem,zusätzlichem,serviert.,Krams,Wäsche.,am,die,eine,täglichem,seltenem,hätten,Glas,deren,ungefähr,eine,geschleudert.,elektrische,würden,unzureichenden,gelegentlichen,harten,mehr,sauberen,roten,leider,des,noch,die,im,sie,"frischem,",mehr,immer,von,roten,350,einem,Mann,vor,Lärm,des,im,Störenfriede,liegen,Lärm,Störenfriede,Tiere,wurden,Trinkwassers.,salziger,"nachgewiesen,","Zeit,",sie,noch,frisches,feinem,unzureichenden,feinem,Bundespräsident.,350,der,monatlichem,kaltem,hat,,,,,,,,,,,,,,,,,,,,,,,1,0,1,0,0,5,5,5,,,,,,,space,0.460510969162,,,,,,2017_Jan_23_1155,59.8222293219,spr_backupper,001,Mo12,
,jeden,Flut,nan,die,nan,mehr,täglichen,Soldaten,Energie.,Wurst,wiedergewählt.,Besucher.,den,Tupperware,verschrottet.,nichts,wiedergewählt.,jeden,nan,aus,Alkohol,Grases,Esslöffel,die,Einkommen,nan,aus,die,goldenen,Schmuck,köstlichen,die,"vermiest,",sie,Untergrund,schwarzem,nan,aus,nan,Hauptbahnhof.,Stimmung,große,grünen,dichten,seiner,köstlicher,sie,drei,große,nan,Energie.,seiner,Helmen,Besucher.,Schaumstoff,als,Kraftstoff,Planet,nichts,Herrn,eine,er,Müll.,defekt,kaltem,als,ruhig,den,Planeten,ml,Esslöffel,mehr,Dezember,um,Herrn,Müll.,jeden.,die,um,jeden.,artgerecht,verschrottet.,nan,Wurst,dass,um,defekt,eine,Gras,Kunsteis,Helmen,dichten,nan,ml,Soldaten,Taschengeld,Abduschen,den,,,,,,,,,,,,,,,,,,,,,,,1,0,1,0,0,6,6,6,,,,,,,space,0.510473966599,,,,,,2017_Jan_23_1155,59.8222293219,spr_backupper,001,Mo12,
,Fall,zurückgekehrt.,nan,Probleme,nan,als,Einsatz,des,nan,mit,nan,nan,Boden,ist.,nan,mitbringen.,nan,Fall,nan,Japan.,verdünnt.,zwängen.,warmem,Wohnung.,haftbar.,nan,dem,Wohnung.,Besatz,umgearbeitet.,Weins,Slums.,dass,überführt,liegen.,Kaffee,nan,dem,nan,nan,ziemlich,Menge,Tee,Gewebe,Frau,Wein,überführt,Tage.,Menge,nan,nan,Frau,zur,nan,gefertigt.,einmal,fahren.,ganz,mitbringen.,Gantenbein.,Sammlung,trug.,nan,war.,Saft,einmal,diskutiert.,Problemen,ganz,warme,warmen,als,stattfinden.,jede,Gantenbeins.,nan,nan,Slums.,jede,nan,gehalten.,nan,nan,mit,das,Nadelhölzer,war.,Sammlung,zwängen.,eingesprüht.,zur,Stoff,nan,warmer,des,selber,gehärtet.,Boden,,,,,,,,,,,,,,,,,,,,,,,1,0,1,0,0,7,7,7,,,,,,,space,0.494302988052,,,,,,2017_Jan_23_1155,59.8222293219,spr_backupper,001,Mo12,
,genug.,nan,nan,im,nan,gerne.,sinken.,zweiten,nan,an,nan,nan,berührt.,nan,nan,nan,nan,genug.,nan,nan,nan,nan,Honig,nan,nan,nan,Haus,nan,rekonstruiert.,nan,schon,nan,es,wurden.,nan,wiederbelebt.,nan,Haus,nan,nan,vermiest.,dunkler,wieder,wiederhergestellt.,gepasst.,schon,wurden.,nan,dunkle,nan,nan,gepasst,Schule.,nan,nan,Rilke,nan,deutlich.,nan,nan,dummer,nan,nan,nan,besprochen.,Rilke.,nan,im,deutlich.,Milch.,Honigs,gerne.,nan,Menge,nan,nan,nan,nan,Menge,nan,nan,nan,nan,an,Medikament,umzusetzen.,nan,dumme,nan,nan,Schule.,gefertigt.,nan,Milch.,zweiten,kaufen.,nan,berührt.,,,,,,,,,,,,,,,,,,,,,,,1,0,1,0,0,8,8,8,,,,,,,space,0.879184961319,,,,,,2017_Jan_23_1155,59.8222293219,spr_backupper,001,Mo12,
,,,,,,,,,,,,,,,,,,,,,,,,,,,,,,,,,,,,,,,,,,,,,,,,,,,,,,,,,,,,,,,,,,,,,,,,,,,,,,,,,,,,,,,,,,,,,,,,,,,,,,,,,,,,,,,,,,,,,,,,,1,0,1,0,,,,,,,,,,,,,None,j,2.38206887245,,,2017_Jan_23_1155,59.8222293219,spr_backupper,001,Mo12,
,100,Als,Sie,In,Es,Wir,Ihr,Bei,Die,Ich,Er,Wir,Nicht,Die,Die,Außer,Er,100,Dort,Die,Die,Wir,Er,Sie,Manche,Beträchtliche,Wir,Sie,Das,Die,Bei,Am,Es,Es,Jungtiere,Die,Beträchtliche,Wir,Dort,Die,Dass,Mit,Ich,Danach,Die,Bei,Es,Der,Mit,Es,Die,Die,Die,Wir,Alle,In,Wir,Im,Außer,Die,Sie,Die,Viele,Die,Sie,In,Fernab,In,Im,In,Er,Wir,Unter,Man,Die,Viele,Außer,Am,Man,Außer,In,Die,Sie,Ich,In,Jetzt,Die,Sie,Wir,Die,Die,Er,Walter,In,Bei,Jugendliche,Die,Nicht,,,,,,,,,,,,,,,,,,,,,,,2,0,2,0,0,0,0,0,,,,,,None,space,0.596628904343,,,,,,2017_Jan_23_1155,59.8222293219,spr_backupper,001,Mo12,
,g,die,verbrauchen,der,wurden,übergaben,Blutdruck,der,Schule,nehme,wurde,hatten,ein,Teilnehmerinnen,Autos,dem,wurde,g,türmen,"Uhr,",Lösung,mussten,stellt,verlassen,Kreditnehmer,Stücke,haben,verlassen,Tuch,Stücke,unserer,äußersten,hat,waren,sollten,müden,Stücke,haben,türmen,Linie,es,dieser,wurde,wurde,Schuhe,unserer,waren,Flug,dieser,wurden,Schule,Schuhe,Kinder,hatten,Betten,meinem,konnten,Fernrohr,das,Gäste,hatte,Uhr,Tonnen,Uhr,haben,meinem,des,der,Fernrohr,den,stellt,übergaben,keinen,machte,Gäste,Tonnen,den,äußeren,machte,dem,diesem,Autos,verbrauchen,nehme,einer,ist,Uhr,hatte,mussten,Eislaufbahnen,Kinder,hat,Scheel,den,der,können,Formen,ein,,,,,,,,,,,,,,,,,,,,,,,2,0,2,0,0,1,1,1,,,,,,,space,0.46959400177,,,,,,2017_Jan_23_1155,59.8222293219,spr_backupper,001,Mo12,
,braunen,Sonne,60,Tat,Eimer,dem,kann,Feier,verbraucht,eine,trotz,in,Tropfen,wussten,beider,Essen,trotz,brauner,sich,die,wird,uns,die,wegen,sind,saftigen,jede,wegen,wurde,wurden,Ankunft,Rand,uns,nur,immer,Teilnehmer,saftiges,jede,sich,101,"regnete,",Methode,damals,die,in,Ankunft,nur,zum,Methode,Eimer,verbraucht,in,fuhren,in,wurden,Studium,dann,sahen,Essen,suchen,keine,war,gebrauchter,schlug,die,Studium,Rummels,Tat,sahen,Kakao,die,das,Umständen,mal,suchen,gebrauchte,Bürgermeister,Rand,mal,Bürgermeister,Zirkus,beider,60,eine,Studie,genau,schlug,keine,uns,wurden,fuhren,ein,war,Kakao,Feier,Kleidung,wurden,Tropfen,,,,,,,,,,,,,,,,,,,,,,,2,0,2,0,0,2,2,2,,,,,,,space,0.754502058029,,,,,,2017_Jan_23_1155,59.8222293219,spr_backupper,001,Mo12,
,Zuckers,"unterging,",Liter,wissen,rote,Mann,schon,gedachte,260.000,große,dem,Dänemark,königlichen,überwiegend,beteiligten,kann,des,Zucker,Berge,er,mit,durch,Masse,dem,mit,Fleischs,Menge,des,dann,aus,stand,der,die,kleinere,auf,wurden,Fleisch,Menge,Berge,hält,hat,kann,schnell,Leinwand,Größe,stand,kleinere,Mond,kann,roter,260.000,Größe,mit,Dänemark,mit,habe,mit,wir,kann,die,Lust,aus,Kleidung,"sporadisch,",Erlebnisse,las,wurde,wissen,wir,gehören,Masse,Auto,können,wieder,die,Kleidung,beschuldigten,der,wieder,beschuldigten,werden,beteiligter,Liter,große,wurde,die,"sporadisch,",Lust,durch,mit,mit,Hemd,der,gehören,gedachte,bei,unter,königliches,,,,,,,,,,,,,,,,,,,,,,,2,0,2,0,0,3,3,3,,,,,,,space,0.470338106155,,,,,,2017_Jan_23_1155,59.8222293219,spr_backupper,001,Mo12,
,sind,war,sprudelndes,wir,Farbe,das,bei,man,Kilowattstunden,Packung,bekannten,gelegentlich,Bluts,"nicht,",Fahrer,ich,bekannten,sind,schmutziger,"trug,","reichlichem,",Büschel,mit,schönen,"sämtlichem,",wurden,alten,schönen,mit,"wertvollem,",ein,Stadt,Stimmung,"Delikte,",warmem,mit,wurden,alten,schmutzige,nicht,uns,man,dank,aus,36,ein,"Delikte,",dauerte,man,Farbe,Kilowattstunden,36,solchen,einen,"üblichem,",ich,"minimalem,",den,ich,Wohnung,auf,"Japan,",landen,obschon,bei,ich,schon,wir,den,immer,mit,dem,Neuwahlen,viel,Wohnung,landen,die,Stadt,viel,die,die,Fahrer,sprudelnden,Packung,jetzt,richtige,obwohl,auf,Büschel,dauerhaftem,solch,aus,vierte,immer,man,ausreichendem,"regelmäßigem,",Blut,,,,,,,,,,,,,,,,,,,,,,,2,0,2,0,0,4,4,4,,,,,,,space,0.62762093544,,,,,,2017_Jan_23_1155,59.8222293219,spr_backupper,001,Mo12,
,auf,die,Trinkwasser.,um,geschleudert.,Auto,minimalem,den,elektrischer,salzige,Skandal,einen,hat,was,wurden,leider,Skandals,auf,Wäsche.,war,purem,frischen,einem,Wetter,künftigem,serviert.,Kram,Wetters,"reichem,",klassischen,Glas,liegen,ziemlich,derer,weichem,zusätzlichem,serviert.,Krams,Wäsche.,am,die,eine,täglichem,seltenem,hätten,Glas,deren,ungefähr,eine,geschleudert.,elektrische,würden,unzureichenden,gelegentlichen,harten,mehr,sauberen,roten,leider,des,noch,die,im,sie,"frischem,",mehr,immer,von,roten,350,einem,Mann,vor,Lärm,des,im,Störenfriede,liegen,Lärm,Störenfriede,Tiere,wurden,Trinkwassers.,salziger,"nachgewiesen,","Zeit,",sie,noch,frisches,feinem,unzureichenden,feinem,Bundespräsident.,350,der,monatlichem,kaltem,hat,,,,,,,,,,,,,,,,,,,,,,,2,0,2,0,0,5,5,5,,,,,,,space,0.788160085678,,,,,,2017_Jan_23_1155,59.8222293219,spr_backupper,001,Mo12,
,,,,,,,,,,,,,,,,,,,,,,,,,,,,,,,,,,,,,,,,,,,,,,,,,,,,,,,,,,,,,,,,,,,,,,,,,,,,,,,,,,,,,,,,,,,,,,,,,,,,,,,,,,,,,,,,,,,,,,,,,2,0,2,0,,,,,,,,,,,,,None,n,2.87076306343,,,2017_Jan_23_1155,59.8222293219,spr_backupper,001,Mo12,
,100,Als,Sie,In,Es,Wir,Ihr,Bei,Die,Ich,Er,Wir,Nicht,Die,Die,Außer,Er,100,Dort,Die,Die,Wir,Er,Sie,Manche,Beträchtliche,Wir,Sie,Das,Die,Bei,Am,Es,Es,Jungtiere,Die,Beträchtliche,Wir,Dort,Die,Dass,Mit,Ich,Danach,Die,Bei,Es,Der,Mit,Es,Die,Die,Die,Wir,Alle,In,Wir,Im,Außer,Die,Sie,Die,Viele,Die,Sie,In,Fernab,In,Im,In,Er,Wir,Unter,Man,Die,Viele,Außer,Am,Man,Außer,In,Die,Sie,Ich,In,Jetzt,Die,Sie,Wir,Die,Die,Er,Walter,In,Bei,Jugendliche,Die,Nicht,,,,,,,,,,,,,,,,,,,,,,,3,0,3,0,0,0,0,0,,,,,,None,space,0.654927968979,,,,,,2017_Jan_23_1155,59.8222293219,spr_backupper,001,Mo12,
,g,die,verbrauchen,der,wurden,übergaben,Blutdruck,der,Schule,nehme,wurde,hatten,ein,Teilnehmerinnen,Autos,dem,wurde,g,türmen,"Uhr,",Lösung,mussten,stellt,verlassen,Kreditnehmer,Stücke,haben,verlassen,Tuch,Stücke,unserer,äußersten,hat,waren,sollten,müden,Stücke,haben,türmen,Linie,es,dieser,wurde,wurde,Schuhe,unserer,waren,Flug,dieser,wurden,Schule,Schuhe,Kinder,hatten,Betten,meinem,konnten,Fernrohr,das,Gäste,hatte,Uhr,Tonnen,Uhr,haben,meinem,des,der,Fernrohr,den,stellt,übergaben,keinen,machte,Gäste,Tonnen,den,äußeren,machte,dem,diesem,Autos,verbrauchen,nehme,einer,ist,Uhr,hatte,mussten,Eislaufbahnen,Kinder,hat,Scheel,den,der,können,Formen,ein,,,,,,,,,,,,,,,,,,,,,,,3,0,3,0,0,1,1,1,,,,,,,space,0.541360855103,,,,,,2017_Jan_23_1155,59.8222293219,spr_backupper,001,Mo12,
,braunen,Sonne,60,Tat,Eimer,dem,kann,Feier,verbraucht,eine,trotz,in,Tropfen,wussten,beider,Essen,trotz,brauner,sich,die,wird,uns,die,wegen,sind,saftigen,jede,wegen,wurde,wurden,Ankunft,Rand,uns,nur,immer,Teilnehmer,saftiges,jede,sich,101,"regnete,",Methode,damals,die,in,Ankunft,nur,zum,Methode,Eimer,verbraucht,in,fuhren,in,wurden,Studium,dann,sahen,Essen,suchen,keine,war,gebrauchter,schlug,die,Studium,Rummels,Tat,sahen,Kakao,die,das,Umständen,mal,suchen,gebrauchte,Bürgermeister,Rand,mal,Bürgermeister,Zirkus,beider,60,eine,Studie,genau,schlug,keine,uns,wurden,fuhren,ein,war,Kakao,Feier,Kleidung,wurden,Tropfen,,,,,,,,,,,,,,,,,,,,,,,3,0,3,0,0,2,2,2,,,,,,,space,0.493790149689,,,,,,2017_Jan_23_1155,59.8222293219,spr_backupper,001,Mo12,
,Zuckers,"unterging,",Liter,wissen,rote,Mann,schon,gedachte,260.000,große,dem,Dänemark,königlichen,überwiegend,beteiligten,kann,des,Zucker,Berge,er,mit,durch,Masse,dem,mit,Fleischs,Menge,des,dann,aus,stand,der,die,kleinere,auf,wurden,Fleisch,Menge,Berge,hält,hat,kann,schnell,Leinwand,Größe,stand,kleinere,Mond,kann,roter,260.000,Größe,mit,Dänemark,mit,habe,mit,wir,kann,die,Lust,aus,Kleidung,"sporadisch,",Erlebnisse,las,wurde,wissen,wir,gehören,Masse,Auto,können,wieder,die,Kleidung,beschuldigten,der,wieder,beschuldigten,werden,beteiligter,Liter,große,wurde,die,"sporadisch,",Lust,durch,mit,mit,Hemd,der,gehören,gedachte,bei,unter,königliches,,,,,,,,,,,,,,,,,,,,,,,3,0,3,0,0,3,3,3,,,,,,,space,0.753106832504,,,,,,2017_Jan_23_1155,59.8222293219,spr_backupper,001,Mo12,
,sind,war,sprudelndes,wir,Farbe,das,bei,man,Kilowattstunden,Packung,bekannten,gelegentlich,Bluts,"nicht,",Fahrer,ich,bekannten,sind,schmutziger,"trug,","reichlichem,",Büschel,mit,schönen,"sämtlichem,",wurden,alten,schönen,mit,"wertvollem,",ein,Stadt,Stimmung,"Delikte,",warmem,mit,wurden,alten,schmutzige,nicht,uns,man,dank,aus,36,ein,"Delikte,",dauerte,man,Farbe,Kilowattstunden,36,solchen,einen,"üblichem,",ich,"minimalem,",den,ich,Wohnung,auf,"Japan,",landen,obschon,bei,ich,schon,wir,den,immer,mit,dem,Neuwahlen,viel,Wohnung,landen,die,Stadt,viel,die,die,Fahrer,sprudelnden,Packung,jetzt,richtige,obwohl,auf,Büschel,dauerhaftem,solch,aus,vierte,immer,man,ausreichendem,"regelmäßigem,",Blut,,,,,,,,,,,,,,,,,,,,,,,3,0,3,0,0,4,4,4,,,,,,,space,0.721740007401,,,,,,2017_Jan_23_1155,59.8222293219,spr_backupper,001,Mo12,
,auf,die,Trinkwasser.,um,geschleudert.,Auto,minimalem,den,elektrischer,salzige,Skandal,einen,hat,was,wurden,leider,Skandals,auf,Wäsche.,war,purem,frischen,einem,Wetter,künftigem,serviert.,Kram,Wetters,"reichem,",klassischen,Glas,liegen,ziemlich,derer,weichem,zusätzlichem,serviert.,Krams,Wäsche.,am,die,eine,täglichem,seltenem,hätten,Glas,deren,ungefähr,eine,geschleudert.,elektrische,würden,unzureichenden,gelegentlichen,harten,mehr,sauberen,roten,leider,des,noch,die,im,sie,"frischem,",mehr,immer,von,roten,350,einem,Mann,vor,Lärm,des,im,Störenfriede,liegen,Lärm,Störenfriede,Tiere,wurden,Trinkwassers.,salziger,"nachgewiesen,","Zeit,",sie,noch,frisches,feinem,unzureichenden,feinem,Bundespräsident.,350,der,monatlichem,kaltem,hat,,,,,,,,,,,,,,,,,,,,,,,3,0,3,0,0,5,5,5,,,,,,,space,0.479228019714,,,,,,2017_Jan_23_1155,59.8222293219,spr_backupper,001,Mo12,
,jeden,Flut,nan,die,nan,mehr,täglichen,Soldaten,Energie.,Wurst,wiedergewählt.,Besucher.,den,Tupperware,verschrottet.,nichts,wiedergewählt.,jeden,nan,aus,Alkohol,Grases,Esslöffel,die,Einkommen,nan,aus,die,goldenen,Schmuck,köstlichen,die,"vermiest,",sie,Untergrund,schwarzem,nan,aus,nan,Hauptbahnhof.,Stimmung,große,grünen,dichten,seiner,köstlicher,sie,drei,große,nan,Energie.,seiner,Helmen,Besucher.,Schaumstoff,als,Kraftstoff,Planet,nichts,Herrn,eine,er,Müll.,defekt,kaltem,als,ruhig,den,Planeten,ml,Esslöffel,mehr,Dezember,um,Herrn,Müll.,jeden.,die,um,jeden.,artgerecht,verschrottet.,nan,Wurst,dass,um,defekt,eine,Gras,Kunsteis,Helmen,dichten,nan,ml,Soldaten,Taschengeld,Abduschen,den,,,,,,,,,,,,,,,,,,,,,,,3,0,3,0,0,6,6,6,,,,,,,space,0.469347000122,,,,,,2017_Jan_23_1155,59.8222293219,spr_backupper,001,Mo12,
,,,,,,,,,,,,,,,,,,,,,,,,,,,,,,,,,,,,,,,,,,,,,,,,,,,,,,,,,,,,,,,,,,,,,,,,,,,,,,,,,,,,,,,,,,,,,,,,,,,,,,,,,,,,,,,,,,,,,,,,,3,0,3,0,,,,,,,,,,,,,None,j,6.08653306961,,,2017_Jan_23_1155,59.8222293219,spr_backupper,001,Mo12,
,100,Als,Sie,In,Es,Wir,Ihr,Bei,Die,Ich,Er,Wir,Nicht,Die,Die,Außer,Er,100,Dort,Die,Die,Wir,Er,Sie,Manche,Beträchtliche,Wir,Sie,Das,Die,Bei,Am,Es,Es,Jungtiere,Die,Beträchtliche,Wir,Dort,Die,Dass,Mit,Ich,Danach,Die,Bei,Es,Der,Mit,Es,Die,Die,Die,Wir,Alle,In,Wir,Im,Außer,Die,Sie,Die,Viele,Die,Sie,In,Fernab,In,Im,In,Er,Wir,Unter,Man,Die,Viele,Außer,Am,Man,Außer,In,Die,Sie,Ich,In,Jetzt,Die,Sie,Wir,Die,Die,Er,Walter,In,Bei,Jugendliche,Die,Nicht,,,,,,,,,,,,,,,,,,,,,,,4,0,4,0,0,0,0,0,,,,,,None,space,0.653563022614,,,,,,2017_Jan_23_1155,59.8222293219,spr_backupper,001,Mo12,
,g,die,verbrauchen,der,wurden,übergaben,Blutdruck,der,Schule,nehme,wurde,hatten,ein,Teilnehmerinnen,Autos,dem,wurde,g,türmen,"Uhr,",Lösung,mussten,stellt,verlassen,Kreditnehmer,Stücke,haben,verlassen,Tuch,Stücke,unserer,äußersten,hat,waren,sollten,müden,Stücke,haben,türmen,Linie,es,dieser,wurde,wurde,Schuhe,unserer,waren,Flug,dieser,wurden,Schule,Schuhe,Kinder,hatten,Betten,meinem,konnten,Fernrohr,das,Gäste,hatte,Uhr,Tonnen,Uhr,haben,meinem,des,der,Fernrohr,den,stellt,übergaben,keinen,machte,Gäste,Tonnen,den,äußeren,machte,dem,diesem,Autos,verbrauchen,nehme,einer,ist,Uhr,hatte,mussten,Eislaufbahnen,Kinder,hat,Scheel,den,der,können,Formen,ein,,,,,,,,,,,,,,,,,,,,,,,4,0,4,0,0,1,1,1,,,,,,,space,0.521079778671,,,,,,2017_Jan_23_1155,59.8222293219,spr_backupper,001,Mo12,
,braunen,Sonne,60,Tat,Eimer,dem,kann,Feier,verbraucht,eine,trotz,in,Tropfen,wussten,beider,Essen,trotz,brauner,sich,die,wird,uns,die,wegen,sind,saftigen,jede,wegen,wurde,wurden,Ankunft,Rand,uns,nur,immer,Teilnehmer,saftiges,jede,sich,101,"regnete,",Methode,damals,die,in,Ankunft,nur,zum,Methode,Eimer,verbraucht,in,fuhren,in,wurden,Studium,dann,sahen,Essen,suchen,keine,war,gebrauchter,schlug,die,Studium,Rummels,Tat,sahen,Kakao,die,das,Umständen,mal,suchen,gebrauchte,Bürgermeister,Rand,mal,Bürgermeister,Zirkus,beider,60,eine,Studie,genau,schlug,keine,uns,wurden,fuhren,ein,war,Kakao,Feier,Kleidung,wurden,Tropfen,,,,,,,,,,,,,,,,,,,,,,,4,0,4,0,0,2,2,2,,,,,,,space,0.579363822937,,,,,,2017_Jan_23_1155,59.8222293219,spr_backupper,001,Mo12,
,Zuckers,"unterging,",Liter,wissen,rote,Mann,schon,gedachte,260.000,große,dem,Dänemark,königlichen,überwiegend,beteiligten,kann,des,Zucker,Berge,er,mit,durch,Masse,dem,mit,Fleischs,Menge,des,dann,aus,stand,der,die,kleinere,auf,wurden,Fleisch,Menge,Berge,hält,hat,kann,schnell,Leinwand,Größe,stand,kleinere,Mond,kann,roter,260.000,Größe,mit,Dänemark,mit,habe,mit,wir,kann,die,Lust,aus,Kleidung,"sporadisch,",Erlebnisse,las,wurde,wissen,wir,gehören,Masse,Auto,können,wieder,die,Kleidung,beschuldigten,der,wieder,beschuldigten,werden,beteiligter,Liter,große,wurde,die,"sporadisch,",Lust,durch,mit,mit,Hemd,der,gehören,gedachte,bei,unter,königliches,,,,,,,,,,,,,,,,,,,,,,,4,0,4,0,0,3,3,3,,,,,,,space,0.577623844147,,,,,,2017_Jan_23_1155,59.8222293219,spr_backupper,001,Mo12,
,sind,war,sprudelndes,wir,Farbe,das,bei,man,Kilowattstunden,Packung,bekannten,gelegentlich,Bluts,"nicht,",Fahrer,ich,bekannten,sind,schmutziger,"trug,","reichlichem,",Büschel,mit,schönen,"sämtlichem,",wurden,alten,schönen,mit,"wertvollem,",ein,Stadt,Stimmung,"Delikte,",warmem,mit,wurden,alten,schmutzige,nicht,uns,man,dank,aus,36,ein,"Delikte,",dauerte,man,Farbe,Kilowattstunden,36,solchen,einen,"üblichem,",ich,"minimalem,",den,ich,Wohnung,auf,"Japan,",landen,obschon,bei,ich,schon,wir,den,immer,mit,dem,Neuwahlen,viel,Wohnung,landen,die,Stadt,viel,die,die,Fahrer,sprudelnden,Packung,jetzt,richtige,obwohl,auf,Büschel,dauerhaftem,solch,aus,vierte,immer,man,ausreichendem,"regelmäßigem,",Blut,,,,,,,,,,,,,,,,,,,,,,,4,0,4,0,0,4,4,4,,,,,,,space,0.628426074982,,,,,,2017_Jan_23_1155,59.8222293219,spr_backupper,001,Mo12,
,auf,die,Trinkwasser.,um,geschleudert.,Auto,minimalem,den,elektrischer,salzige,Skandal,einen,hat,was,wurden,leider,Skandals,auf,Wäsche.,war,purem,frischen,einem,Wetter,künftigem,serviert.,Kram,Wetters,"reichem,",klassischen,Glas,liegen,ziemlich,derer,weichem,zusätzlichem,serviert.,Krams,Wäsche.,am,die,eine,täglichem,seltenem,hätten,Glas,deren,ungefähr,eine,geschleudert.,elektrische,würden,unzureichenden,gelegentlichen,harten,mehr,sauberen,roten,leider,des,noch,die,im,sie,"frischem,",mehr,immer,von,roten,350,einem,Mann,vor,Lärm,des,im,Störenfriede,liegen,Lärm,Störenfriede,Tiere,wurden,Trinkwassers.,salziger,"nachgewiesen,","Zeit,",sie,noch,frisches,feinem,unzureichenden,feinem,Bundespräsident.,350,der,monatlichem,kaltem,hat,,,,,,,,,,,,,,,,,,,,,,,4,0,4,0,0,5,5,5,,,,,,,space,0.727818965912,,,,,,2017_Jan_23_1155,59.8222293219,spr_backupper,001,Mo12,
,jeden,Flut,nan,die,nan,mehr,täglichen,Soldaten,Energie.,Wurst,wiedergewählt.,Besucher.,den,Tupperware,verschrottet.,nichts,wiedergewählt.,jeden,nan,aus,Alkohol,Grases,Esslöffel,die,Einkommen,nan,aus,die,goldenen,Schmuck,köstlichen,die,"vermiest,",sie,Untergrund,schwarzem,nan,aus,nan,Hauptbahnhof.,Stimmung,große,grünen,dichten,seiner,köstlicher,sie,drei,große,nan,Energie.,seiner,Helmen,Besucher.,Schaumstoff,als,Kraftstoff,Planet,nichts,Herrn,eine,er,Müll.,defekt,kaltem,als,ruhig,den,Planeten,ml,Esslöffel,mehr,Dezember,um,Herrn,Müll.,jeden.,die,um,jeden.,artgerecht,verschrottet.,nan,Wurst,dass,um,defekt,eine,Gras,Kunsteis,Helmen,dichten,nan,ml,Soldaten,Taschengeld,Abduschen,den,,,,,,,,,,,,,,,,,,,,,,,4,0,4,0,0,6,6,6,,,,,,,space,1.39372801781,,,,,,2017_Jan_23_1155,59.8222293219,spr_backupper,001,Mo12,
,,,,,,,,,,,,,,,,,,,,,,,,,,,,,,,,,,,,,,,,,,,,,,,,,,,,,,,,,,,,,,,,,,,,,,,,,,,,,,,,,,,,,,,,,,,,,,,,,,,,,,,,,,,,,,,,,,,,,,,,,4,0,4,0,,,,,,,,,,,,,None,n,3.37176299095,,,2017_Jan_23_1155,59.8222293219,spr_backupper,001,Mo12,
,100,Als,Sie,In,Es,Wir,Ihr,Bei,Die,Ich,Er,Wir,Nicht,Die,Die,Außer,Er,100,Dort,Die,Die,Wir,Er,Sie,Manche,Beträchtliche,Wir,Sie,Das,Die,Bei,Am,Es,Es,Jungtiere,Die,Beträchtliche,Wir,Dort,Die,Dass,Mit,Ich,Danach,Die,Bei,Es,Der,Mit,Es,Die,Die,Die,Wir,Alle,In,Wir,Im,Außer,Die,Sie,Die,Viele,Die,Sie,In,Fernab,In,Im,In,Er,Wir,Unter,Man,Die,Viele,Außer,Am,Man,Außer,In,Die,Sie,Ich,In,Jetzt,Die,Sie,Wir,Die,Die,Er,Walter,In,Bei,Jugendliche,Die,Nicht,,,,,,,,,,,,,,,,,,,,,,,5,0,5,0,0,0,0,0,,,,,,None,space,0.514613866806,,,,,,2017_Jan_23_1155,59.8222293219,spr_backupper,001,Mo12,
,g,die,verbrauchen,der,wurden,übergaben,Blutdruck,der,Schule,nehme,wurde,hatten,ein,Teilnehmerinnen,Autos,dem,wurde,g,türmen,"Uhr,",Lösung,mussten,stellt,verlassen,Kreditnehmer,Stücke,haben,verlassen,Tuch,Stücke,unserer,äußersten,hat,waren,sollten,müden,Stücke,haben,türmen,Linie,es,dieser,wurde,wurde,Schuhe,unserer,waren,Flug,dieser,wurden,Schule,Schuhe,Kinder,hatten,Betten,meinem,konnten,Fernrohr,das,Gäste,hatte,Uhr,Tonnen,Uhr,haben,meinem,des,der,Fernrohr,den,stellt,übergaben,keinen,machte,Gäste,Tonnen,den,äußeren,machte,dem,diesem,Autos,verbrauchen,nehme,einer,ist,Uhr,hatte,mussten,Eislaufbahnen,Kinder,hat,Scheel,den,der,können,Formen,ein,,,,,,,,,,,,,,,,,,,,,,,5,0,5,0,0,1,1,1,,,,,,,space,0.543298006058,,,,,,2017_Jan_23_1155,59.8222293219,spr_backupper,001,Mo12,
,braunen,Sonne,60,Tat,Eimer,dem,kann,Feier,verbraucht,eine,trotz,in,Tropfen,wussten,beider,Essen,trotz,brauner,sich,die,wird,uns,die,wegen,sind,saftigen,jede,wegen,wurde,wurden,Ankunft,Rand,uns,nur,immer,Teilnehmer,saftiges,jede,sich,101,"regnete,",Methode,damals,die,in,Ankunft,nur,zum,Methode,Eimer,verbraucht,in,fuhren,in,wurden,Studium,dann,sahen,Essen,suchen,keine,war,gebrauchter,schlug,die,Studium,Rummels,Tat,sahen,Kakao,die,das,Umständen,mal,suchen,gebrauchte,Bürgermeister,Rand,mal,Bürgermeister,Zirkus,beider,60,eine,Studie,genau,schlug,keine,uns,wurden,fuhren,ein,war,Kakao,Feier,Kleidung,wurden,Tropfen,,,,,,,,,,,,,,,,,,,,,,,5,0,5,0,0,2,2,2,,,,,,,space,0.544292926788,,,,,,2017_Jan_23_1155,59.8222293219,spr_backupper,001,Mo12,
,Zuckers,"unterging,",Liter,wissen,rote,Mann,schon,gedachte,260.000,große,dem,Dänemark,königlichen,überwiegend,beteiligten,kann,des,Zucker,Berge,er,mit,durch,Masse,dem,mit,Fleischs,Menge,des,dann,aus,stand,der,die,kleinere,auf,wurden,Fleisch,Menge,Berge,hält,hat,kann,schnell,Leinwand,Größe,stand,kleinere,Mond,kann,roter,260.000,Größe,mit,Dänemark,mit,habe,mit,wir,kann,die,Lust,aus,Kleidung,"sporadisch,",Erlebnisse,las,wurde,wissen,wir,gehören,Masse,Auto,können,wieder,die,Kleidung,beschuldigten,der,wieder,beschuldigten,werden,beteiligter,Liter,große,wurde,die,"sporadisch,",Lust,durch,mit,mit,Hemd,der,gehören,gedachte,bei,unter,königliches,,,,,,,,,,,,,,,,,,,,,,,5,0,5,0,0,3,3,3,,,,,,,space,0.555933952332,,,,,,2017_Jan_23_1155,59.8222293219,spr_backupper,001,Mo12,
,sind,war,sprudelndes,wir,Farbe,das,bei,man,Kilowattstunden,Packung,bekannten,gelegentlich,Bluts,"nicht,",Fahrer,ich,bekannten,sind,schmutziger,"trug,","reichlichem,",Büschel,mit,schönen,"sämtlichem,",wurden,alten,schönen,mit,"wertvollem,",ein,Stadt,Stimmung,"Delikte,",warmem,mit,wurden,alten,schmutzige,nicht,uns,man,dank,aus,36,ein,"Delikte,",dauerte,man,Farbe,Kilowattstunden,36,solchen,einen,"üblichem,",ich,"minimalem,",den,ich,Wohnung,auf,"Japan,",landen,obschon,bei,ich,schon,wir,den,immer,mit,dem,Neuwahlen,viel,Wohnung,landen,die,Stadt,viel,die,die,Fahrer,sprudelnden,Packung,jetzt,richtige,obwohl,auf,Büschel,dauerhaftem,solch,aus,vierte,immer,man,ausreichendem,"regelmäßigem,",Blut,,,,,,,,,,,,,,,,,,,,,,,5,0,5,0,0,4,4,4,,,,,,,space,0.503804922104,,,,,,2017_Jan_23_1155,59.8222293219,spr_backupper,001,Mo12,
,auf,die,Trinkwasser.,um,geschleudert.,Auto,minimalem,den,elektrischer,salzige,Skandal,einen,hat,was,wurden,leider,Skandals,auf,Wäsche.,war,purem,frischen,einem,Wetter,künftigem,serviert.,Kram,Wetters,"reichem,",klassischen,Glas,liegen,ziemlich,derer,weichem,zusätzlichem,serviert.,Krams,Wäsche.,am,die,eine,täglichem,seltenem,hätten,Glas,deren,ungefähr,eine,geschleudert.,elektrische,würden,unzureichenden,gelegentlichen,harten,mehr,sauberen,roten,leider,des,noch,die,im,sie,"frischem,",mehr,immer,von,roten,350,einem,Mann,vor,Lärm,des,im,Störenfriede,liegen,Lärm,Störenfriede,Tiere,wurden,Trinkwassers.,salziger,"nachgewiesen,","Zeit,",sie,noch,frisches,feinem,unzureichenden,feinem,Bundespräsident.,350,der,monatlichem,kaltem,hat,,,,,,,,,,,,,,,,,,,,,,,5,0,5,0,0,5,5,5,,,,,,,space,0.570202112198,,,,,,2017_Jan_23_1155,59.8222293219,spr_backupper,001,Mo12,
,jeden,Flut,nan,die,nan,mehr,täglichen,Soldaten,Energie.,Wurst,wiedergewählt.,Besucher.,den,Tupperware,verschrottet.,nichts,wiedergewählt.,jeden,nan,aus,Alkohol,Grases,Esslöffel,die,Einkommen,nan,aus,die,goldenen,Schmuck,köstlichen,die,"vermiest,",sie,Untergrund,schwarzem,nan,aus,nan,Hauptbahnhof.,Stimmung,große,grünen,dichten,seiner,köstlicher,sie,drei,große,nan,Energie.,seiner,Helmen,Besucher.,Schaumstoff,als,Kraftstoff,Planet,nichts,Herrn,eine,er,Müll.,defekt,kaltem,als,ruhig,den,Planeten,ml,Esslöffel,mehr,Dezember,um,Herrn,Müll.,jeden.,die,um,jeden.,artgerecht,verschrottet.,nan,Wurst,dass,um,defekt,eine,Gras,Kunsteis,Helmen,dichten,nan,ml,Soldaten,Taschengeld,Abduschen,den,,,,,,,,,,,,,,,,,,,,,,,5,0,5,0,0,6,6,6,,,,,,,space,0.787939071655,,,,,,2017_Jan_23_1155,59.8222293219,spr_backupper,001,Mo12,
,Fall,zurückgekehrt.,nan,Probleme,nan,als,Einsatz,des,nan,mit,nan,nan,Boden,ist.,nan,mitbringen.,nan,Fall,nan,Japan.,verdünnt.,zwängen.,warmem,Wohnung.,haftbar.,nan,dem,Wohnung.,Besatz,umgearbeitet.,Weins,Slums.,dass,überführt,liegen.,Kaffee,nan,dem,nan,nan,ziemlich,Menge,Tee,Gewebe,Frau,Wein,überführt,Tage.,Menge,nan,nan,Frau,zur,nan,gefertigt.,einmal,fahren.,ganz,mitbringen.,Gantenbein.,Sammlung,trug.,nan,war.,Saft,einmal,diskutiert.,Problemen,ganz,warme,warmen,als,stattfinden.,jede,Gantenbeins.,nan,nan,Slums.,jede,nan,gehalten.,nan,nan,mit,das,Nadelhölzer,war.,Sammlung,zwängen.,eingesprüht.,zur,Stoff,nan,warmer,des,selber,gehärtet.,Boden,,,,,,,,,,,,,,,,,,,,,,,5,0,5,0,0,7,7,7,,,,,,,space,0.519690990448,,,,,,2017_Jan_23_1155,59.8222293219,spr_backupper,001,Mo12,
,genug.,nan,nan,im,nan,gerne.,sinken.,zweiten,nan,an,nan,nan,berührt.,nan,nan,nan,nan,genug.,nan,nan,nan,nan,Honig,nan,nan,nan,Haus,nan,rekonstruiert.,nan,schon,nan,es,wurden.,nan,wiederbelebt.,nan,Haus,nan,nan,vermiest.,dunkler,wieder,wiederhergestellt.,gepasst.,schon,wurden.,nan,dunkle,nan,nan,gepasst,Schule.,nan,nan,Rilke,nan,deutlich.,nan,nan,dummer,nan,nan,nan,besprochen.,Rilke.,nan,im,deutlich.,Milch.,Honigs,gerne.,nan,Menge,nan,nan,nan,nan,Menge,nan,nan,nan,nan,an,Medikament,umzusetzen.,nan,dumme,nan,nan,Schule.,gefertigt.,nan,Milch.,zweiten,kaufen.,nan,berührt.,,,,,,,,,,,,,,,,,,,,,,,5,0,5,0,0,8,8,8,,,,,,,space,0.504428863525,,,,,,2017_Jan_23_1155,59.8222293219,spr_backupper,001,Mo12,
,nan,nan,nan,Landkreis.,nan,nan,nan,Weltkriegs.,nan,den,nan,nan,nan,nan,nan,nan,nan,nan,nan,nan,nan,nan,her.,nan,nan,nan,geschafft.,nan,nan,nan,auf,nan,regnete.,nan,nan,nan,nan,geschafft.,nan,nan,nan,Materie,fit.,nan,nan,auf,nan,nan,Materie,nan,nan,haben.,nan,nan,nan,gelesen.,nan,nan,nan,nan,Sprüche.,nan,nan,nan,nan,nan,nan,Landkreis.,nan,nan,her.,nan,nan,heißer,nan,nan,nan,nan,heiße,nan,nan,nan,nan,den,nicht,nan,nan,Sprüche.,nan,nan,nan,nan,nan,nan,Weltkriegs.,nan,nan,nan,,,,,,,,,,,,,,,,,,,,,,,5,0,5,0,0,9,9,9,,,,,,,space,0.449048042297,,,,,,2017_Jan_23_1155,59.8222293219,spr_backupper,001,Mo12,
,nan,nan,nan,nan,nan,nan,nan,nan,nan,See.,nan,nan,nan,nan,nan,nan,nan,nan,nan,nan,nan,nan,nan,nan,nan,nan,nan,nan,nan,nan,dem,nan,nan,nan,nan,nan,nan,nan,nan,nan,nan,erzeugen.,nan,nan,nan,dem,nan,nan,erzeugen.,nan,nan,nan,nan,nan,nan,nan,nan,nan,nan,nan,nan,nan,nan,nan,nan,nan,nan,nan,nan,nan,nan,nan,nan,Luft.,nan,nan,nan,nan,Luft.,nan,nan,nan,nan,See.,wirkt.,nan,nan,nan,nan,nan,nan,nan,nan,nan,nan,nan,nan,nan,,,,,,,,,,,,,,,,,,,,,,,5,0,5,0,0,10,10,10,,,,,,,space,0.687716960907,,,,,,2017_Jan_23_1155,59.8222293219,spr_backupper,001,Mo12,
,,,,,,,,,,,,,,,,,,,,,,,,,,,,,,,,,,,,,,,,,,,,,,,,,,,,,,,,,,,,,,,,,,,,,,,,,,,,,,,,,,,,,,,,,,,,,,,,,,,,,,,,,,,,,,,,,,,,,,,,,5,0,5,0,,,,,,,,,,,,,None,n,4.65237283707,,,2017_Jan_23_1155,59.8222293219,spr_backupper,001,Mo12,
,100,Als,Sie,In,Es,Wir,Ihr,Bei,Die,Ich,Er,Wir,Nicht,Die,Die,Außer,Er,100,Dort,Die,Die,Wir,Er,Sie,Manche,Beträchtliche,Wir,Sie,Das,Die,Bei,Am,Es,Es,Jungtiere,Die,Beträchtliche,Wir,Dort,Die,Dass,Mit,Ich,Danach,Die,Bei,Es,Der,Mit,Es,Die,Die,Die,Wir,Alle,In,Wir,Im,Außer,Die,Sie,Die,Viele,Die,Sie,In,Fernab,In,Im,In,Er,Wir,Unter,Man,Die,Viele,Außer,Am,Man,Außer,In,Die,Sie,Ich,In,Jetzt,Die,Sie,Wir,Die,Die,Er,Walter,In,Bei,Jugendliche,Die,Nicht,,,,,,,,,,,,,,,,,,,,,,,6,0,6,0,0,0,0,0,,,,,,None,space,0.590758085251,,,,,,2017_Jan_23_1155,59.8222293219,spr_backupper,001,Mo12,
,g,die,verbrauchen,der,wurden,übergaben,Blutdruck,der,Schule,nehme,wurde,hatten,ein,Teilnehmerinnen,Autos,dem,wurde,g,türmen,"Uhr,",Lösung,mussten,stellt,verlassen,Kreditnehmer,Stücke,haben,verlassen,Tuch,Stücke,unserer,äußersten,hat,waren,sollten,müden,Stücke,haben,türmen,Linie,es,dieser,wurde,wurde,Schuhe,unserer,waren,Flug,dieser,wurden,Schule,Schuhe,Kinder,hatten,Betten,meinem,konnten,Fernrohr,das,Gäste,hatte,Uhr,Tonnen,Uhr,haben,meinem,des,der,Fernrohr,den,stellt,übergaben,keinen,machte,Gäste,Tonnen,den,äußeren,machte,dem,diesem,Autos,verbrauchen,nehme,einer,ist,Uhr,hatte,mussten,Eislaufbahnen,Kinder,hat,Scheel,den,der,können,Formen,ein,,,,,,,,,,,,,,,,,,,,,,,6,0,6,0,0,1,1,1,,,,,,,space,0.507333993912,,,,,,2017_Jan_23_1155,59.8222293219,spr_backupper,001,Mo12,
,braunen,Sonne,60,Tat,Eimer,dem,kann,Feier,verbraucht,eine,trotz,in,Tropfen,wussten,beider,Essen,trotz,brauner,sich,die,wird,uns,die,wegen,sind,saftigen,jede,wegen,wurde,wurden,Ankunft,Rand,uns,nur,immer,Teilnehmer,saftiges,jede,sich,101,"regnete,",Methode,damals,die,in,Ankunft,nur,zum,Methode,Eimer,verbraucht,in,fuhren,in,wurden,Studium,dann,sahen,Essen,suchen,keine,war,gebrauchter,schlug,die,Studium,Rummels,Tat,sahen,Kakao,die,das,Umständen,mal,suchen,gebrauchte,Bürgermeister,Rand,mal,Bürgermeister,Zirkus,beider,60,eine,Studie,genau,schlug,keine,uns,wurden,fuhren,ein,war,Kakao,Feier,Kleidung,wurden,Tropfen,,,,,,,,,,,,,,,,,,,,,,,6,0,6,0,0,2,2,2,,,,,,,space,0.979064941406,,,,,,2017_Jan_23_1155,59.8222293219,spr_backupper,001,Mo12,
,Zuckers,"unterging,",Liter,wissen,rote,Mann,schon,gedachte,260.000,große,dem,Dänemark,königlichen,überwiegend,beteiligten,kann,des,Zucker,Berge,er,mit,durch,Masse,dem,mit,Fleischs,Menge,des,dann,aus,stand,der,die,kleinere,auf,wurden,Fleisch,Menge,Berge,hält,hat,kann,schnell,Leinwand,Größe,stand,kleinere,Mond,kann,roter,260.000,Größe,mit,Dänemark,mit,habe,mit,wir,kann,die,Lust,aus,Kleidung,"sporadisch,",Erlebnisse,las,wurde,wissen,wir,gehören,Masse,Auto,können,wieder,die,Kleidung,beschuldigten,der,wieder,beschuldigten,werden,beteiligter,Liter,große,wurde,die,"sporadisch,",Lust,durch,mit,mit,Hemd,der,gehören,gedachte,bei,unter,königliches,,,,,,,,,,,,,,,,,,,,,,,6,0,6,0,0,3,3,3,,,,,,,space,1.50988101959,,,,,,2017_Jan_23_1155,59.8222293219,spr_backupper,001,Mo12,
,sind,war,sprudelndes,wir,Farbe,das,bei,man,Kilowattstunden,Packung,bekannten,gelegentlich,Bluts,"nicht,",Fahrer,ich,bekannten,sind,schmutziger,"trug,","reichlichem,",Büschel,mit,schönen,"sämtlichem,",wurden,alten,schönen,mit,"wertvollem,",ein,Stadt,Stimmung,"Delikte,",warmem,mit,wurden,alten,schmutzige,nicht,uns,man,dank,aus,36,ein,"Delikte,",dauerte,man,Farbe,Kilowattstunden,36,solchen,einen,"üblichem,",ich,"minimalem,",den,ich,Wohnung,auf,"Japan,",landen,obschon,bei,ich,schon,wir,den,immer,mit,dem,Neuwahlen,viel,Wohnung,landen,die,Stadt,viel,die,die,Fahrer,sprudelnden,Packung,jetzt,richtige,obwohl,auf,Büschel,dauerhaftem,solch,aus,vierte,immer,man,ausreichendem,"regelmäßigem,",Blut,,,,,,,,,,,,,,,,,,,,,,,6,0,6,0,0,4,4,4,,,,,,,space,0.886010885239,,,,,,2017_Jan_23_1155,59.8222293219,spr_backupper,001,Mo12,
,auf,die,Trinkwasser.,um,geschleudert.,Auto,minimalem,den,elektrischer,salzige,Skandal,einen,hat,was,wurden,leider,Skandals,auf,Wäsche.,war,purem,frischen,einem,Wetter,künftigem,serviert.,Kram,Wetters,"reichem,",klassischen,Glas,liegen,ziemlich,derer,weichem,zusätzlichem,serviert.,Krams,Wäsche.,am,die,eine,täglichem,seltenem,hätten,Glas,deren,ungefähr,eine,geschleudert.,elektrische,würden,unzureichenden,gelegentlichen,harten,mehr,sauberen,roten,leider,des,noch,die,im,sie,"frischem,",mehr,immer,von,roten,350,einem,Mann,vor,Lärm,des,im,Störenfriede,liegen,Lärm,Störenfriede,Tiere,wurden,Trinkwassers.,salziger,"nachgewiesen,","Zeit,",sie,noch,frisches,feinem,unzureichenden,feinem,Bundespräsident.,350,der,monatlichem,kaltem,hat,,,,,,,,,,,,,,,,,,,,,,,6,0,6,0,0,5,5,5,,,,,,,space,0.864902019501,,,,,,2017_Jan_23_1155,59.8222293219,spr_backupper,001,Mo12,
,jeden,Flut,nan,die,nan,mehr,täglichen,Soldaten,Energie.,Wurst,wiedergewählt.,Besucher.,den,Tupperware,verschrottet.,nichts,wiedergewählt.,jeden,nan,aus,Alkohol,Grases,Esslöffel,die,Einkommen,nan,aus,die,goldenen,Schmuck,köstlichen,die,"vermiest,",sie,Untergrund,schwarzem,nan,aus,nan,Hauptbahnhof.,Stimmung,große,grünen,dichten,seiner,köstlicher,sie,drei,große,nan,Energie.,seiner,Helmen,Besucher.,Schaumstoff,als,Kraftstoff,Planet,nichts,Herrn,eine,er,Müll.,defekt,kaltem,als,ruhig,den,Planeten,ml,Esslöffel,mehr,Dezember,um,Herrn,Müll.,jeden.,die,um,jeden.,artgerecht,verschrottet.,nan,Wurst,dass,um,defekt,eine,Gras,Kunsteis,Helmen,dichten,nan,ml,Soldaten,Taschengeld,Abduschen,den,,,,,,,,,,,,,,,,,,,,,,,6,0,6,0,0,6,6,6,,,,,,,space,0.576514959335,,,,,,2017_Jan_23_1155,59.8222293219,spr_backupper,001,Mo12,
,,,,,,,,,,,,,,,,,,,,,,,,,,,,,,,,,,,,,,,,,,,,,,,,,,,,,,,,,,,,,,,,,,,,,,,,,,,,,,,,,,,,,,,,,,,,,,,,,,,,,,,,,,,,,,,,,,,,,,,,,6,0,6,0,,,,,,,,,,,,,None,j,2.34910702705,,,2017_Jan_23_1155,59.8222293219,spr_backupper,001,Mo12,
,100,Als,Sie,In,Es,Wir,Ihr,Bei,Die,Ich,Er,Wir,Nicht,Die,Die,Außer,Er,100,Dort,Die,Die,Wir,Er,Sie,Manche,Beträchtliche,Wir,Sie,Das,Die,Bei,Am,Es,Es,Jungtiere,Die,Beträchtliche,Wir,Dort,Die,Dass,Mit,Ich,Danach,Die,Bei,Es,Der,Mit,Es,Die,Die,Die,Wir,Alle,In,Wir,Im,Außer,Die,Sie,Die,Viele,Die,Sie,In,Fernab,In,Im,In,Er,Wir,Unter,Man,Die,Viele,Außer,Am,Man,Außer,In,Die,Sie,Ich,In,Jetzt,Die,Sie,Wir,Die,Die,Er,Walter,In,Bei,Jugendliche,Die,Nicht,,,,,,,,,,,,,,,,,,,,,,,7,0,7,0,0,0,0,0,,,,,,None,space,0.49090886116,,,,,,2017_Jan_23_1155,59.8222293219,spr_backupper,001,Mo12,
,g,die,verbrauchen,der,wurden,übergaben,Blutdruck,der,Schule,nehme,wurde,hatten,ein,Teilnehmerinnen,Autos,dem,wurde,g,türmen,"Uhr,",Lösung,mussten,stellt,verlassen,Kreditnehmer,Stücke,haben,verlassen,Tuch,Stücke,unserer,äußersten,hat,waren,sollten,müden,Stücke,haben,türmen,Linie,es,dieser,wurde,wurde,Schuhe,unserer,waren,Flug,dieser,wurden,Schule,Schuhe,Kinder,hatten,Betten,meinem,konnten,Fernrohr,das,Gäste,hatte,Uhr,Tonnen,Uhr,haben,meinem,des,der,Fernrohr,den,stellt,übergaben,keinen,machte,Gäste,Tonnen,den,äußeren,machte,dem,diesem,Autos,verbrauchen,nehme,einer,ist,Uhr,hatte,mussten,Eislaufbahnen,Kinder,hat,Scheel,den,der,können,Formen,ein,,,,,,,,,,,,,,,,,,,,,,,7,0,7,0,0,1,1,1,,,,,,,space,0.721997976303,,,,,,2017_Jan_23_1155,59.8222293219,spr_backupper,001,Mo12,
,braunen,Sonne,60,Tat,Eimer,dem,kann,Feier,verbraucht,eine,trotz,in,Tropfen,wussten,beider,Essen,trotz,brauner,sich,die,wird,uns,die,wegen,sind,saftigen,jede,wegen,wurde,wurden,Ankunft,Rand,uns,nur,immer,Teilnehmer,saftiges,jede,sich,101,"regnete,",Methode,damals,die,in,Ankunft,nur,zum,Methode,Eimer,verbraucht,in,fuhren,in,wurden,Studium,dann,sahen,Essen,suchen,keine,war,gebrauchter,schlug,die,Studium,Rummels,Tat,sahen,Kakao,die,das,Umständen,mal,suchen,gebrauchte,Bürgermeister,Rand,mal,Bürgermeister,Zirkus,beider,60,eine,Studie,genau,schlug,keine,uns,wurden,fuhren,ein,war,Kakao,Feier,Kleidung,wurden,Tropfen,,,,,,,,,,,,,,,,,,,,,,,7,0,7,0,0,2,2,2,,,,,,,space,0.570702075958,,,,,,2017_Jan_23_1155,59.8222293219,spr_backupper,001,Mo12,
,Zuckers,"unterging,",Liter,wissen,rote,Mann,schon,gedachte,260.000,große,dem,Dänemark,königlichen,überwiegend,beteiligten,kann,des,Zucker,Berge,er,mit,durch,Masse,dem,mit,Fleischs,Menge,des,dann,aus,stand,der,die,kleinere,auf,wurden,Fleisch,Menge,Berge,hält,hat,kann,schnell,Leinwand,Größe,stand,kleinere,Mond,kann,roter,260.000,Größe,mit,Dänemark,mit,habe,mit,wir,kann,die,Lust,aus,Kleidung,"sporadisch,",Erlebnisse,las,wurde,wissen,wir,gehören,Masse,Auto,können,wieder,die,Kleidung,beschuldigten,der,wieder,beschuldigten,werden,beteiligter,Liter,große,wurde,die,"sporadisch,",Lust,durch,mit,mit,Hemd,der,gehören,gedachte,bei,unter,königliches,,,,,,,,,,,,,,,,,,,,,,,7,0,7,0,0,3,3,3,,,,,,,space,1.22507715225,,,,,,2017_Jan_23_1155,59.8222293219,spr_backupper,001,Mo12,
,sind,war,sprudelndes,wir,Farbe,das,bei,man,Kilowattstunden,Packung,bekannten,gelegentlich,Bluts,"nicht,",Fahrer,ich,bekannten,sind,schmutziger,"trug,","reichlichem,",Büschel,mit,schönen,"sämtlichem,",wurden,alten,schönen,mit,"wertvollem,",ein,Stadt,Stimmung,"Delikte,",warmem,mit,wurden,alten,schmutzige,nicht,uns,man,dank,aus,36,ein,"Delikte,",dauerte,man,Farbe,Kilowattstunden,36,solchen,einen,"üblichem,",ich,"minimalem,",den,ich,Wohnung,auf,"Japan,",landen,obschon,bei,ich,schon,wir,den,immer,mit,dem,Neuwahlen,viel,Wohnung,landen,die,Stadt,viel,die,die,Fahrer,sprudelnden,Packung,jetzt,richtige,obwohl,auf,Büschel,dauerhaftem,solch,aus,vierte,immer,man,ausreichendem,"regelmäßigem,",Blut,,,,,,,,,,,,,,,,,,,,,,,7,0,7,0,0,4,4,4,,,,,,,space,0.726582050323,,,,,,2017_Jan_23_1155,59.8222293219,spr_backupper,001,Mo12,
,auf,die,Trinkwasser.,um,geschleudert.,Auto,minimalem,den,elektrischer,salzige,Skandal,einen,hat,was,wurden,leider,Skandals,auf,Wäsche.,war,purem,frischen,einem,Wetter,künftigem,serviert.,Kram,Wetters,"reichem,",klassischen,Glas,liegen,ziemlich,derer,weichem,zusätzlichem,serviert.,Krams,Wäsche.,am,die,eine,täglichem,seltenem,hätten,Glas,deren,ungefähr,eine,geschleudert.,elektrische,würden,unzureichenden,gelegentlichen,harten,mehr,sauberen,roten,leider,des,noch,die,im,sie,"frischem,",mehr,immer,von,roten,350,einem,Mann,vor,Lärm,des,im,Störenfriede,liegen,Lärm,Störenfriede,Tiere,wurden,Trinkwassers.,salziger,"nachgewiesen,","Zeit,",sie,noch,frisches,feinem,unzureichenden,feinem,Bundespräsident.,350,der,monatlichem,kaltem,hat,,,,,,,,,,,,,,,,,,,,,,,7,0,7,0,0,5,5,5,,,,,,,space,0.601834058762,,,,,,2017_Jan_23_1155,59.8222293219,spr_backupper,001,Mo12,
,,,,,,,,,,,,,,,,,,,,,,,,,,,,,,,,,,,,,,,,,,,,,,,,,,,,,,,,,,,,,,,,,,,,,,,,,,,,,,,,,,,,,,,,,,,,,,,,,,,,,,,,,,,,,,,,,,,,,,,,,7,0,7,0,,,,,,,,,,,,,None,j,5.35858201981,,,2017_Jan_23_1155,59.8222293219,spr_backupper,001,Mo12,
,100,Als,Sie,In,Es,Wir,Ihr,Bei,Die,Ich,Er,Wir,Nicht,Die,Die,Außer,Er,100,Dort,Die,Die,Wir,Er,Sie,Manche,Beträchtliche,Wir,Sie,Das,Die,Bei,Am,Es,Es,Jungtiere,Die,Beträchtliche,Wir,Dort,Die,Dass,Mit,Ich,Danach,Die,Bei,Es,Der,Mit,Es,Die,Die,Die,Wir,Alle,In,Wir,Im,Außer,Die,Sie,Die,Viele,Die,Sie,In,Fernab,In,Im,In,Er,Wir,Unter,Man,Die,Viele,Außer,Am,Man,Außer,In,Die,Sie,Ich,In,Jetzt,Die,Sie,Wir,Die,Die,Er,Walter,In,Bei,Jugendliche,Die,Nicht,,,,,,,,,,,,,,,,,,,,,,,8,0,8,0,0,0,0,0,,,,,,space,space,0.574105978012,,,,1.00672292709,,2017_Jan_23_1155,59.8222293219,spr_backupper,001,Mo12,
,g,die,verbrauchen,der,wurden,übergaben,Blutdruck,der,Schule,nehme,wurde,hatten,ein,Teilnehmerinnen,Autos,dem,wurde,g,türmen,"Uhr,",Lösung,mussten,stellt,verlassen,Kreditnehmer,Stücke,haben,verlassen,Tuch,Stücke,unserer,äußersten,hat,waren,sollten,müden,Stücke,haben,türmen,Linie,es,dieser,wurde,wurde,Schuhe,unserer,waren,Flug,dieser,wurden,Schule,Schuhe,Kinder,hatten,Betten,meinem,konnten,Fernrohr,das,Gäste,hatte,Uhr,Tonnen,Uhr,haben,meinem,des,der,Fernrohr,den,stellt,übergaben,keinen,machte,Gäste,Tonnen,den,äußeren,machte,dem,diesem,Autos,verbrauchen,nehme,einer,ist,Uhr,hatte,mussten,Eislaufbahnen,Kinder,hat,Scheel,den,der,können,Formen,ein,,,,,,,,,,,,,,,,,,,,,,,8,0,8,0,0,1,1,1,,,,,,,space,0.492635965347,,,,,,2017_Jan_23_1155,59.8222293219,spr_backupper,001,Mo12,
,braunen,Sonne,60,Tat,Eimer,dem,kann,Feier,verbraucht,eine,trotz,in,Tropfen,wussten,beider,Essen,trotz,brauner,sich,die,wird,uns,die,wegen,sind,saftigen,jede,wegen,wurde,wurden,Ankunft,Rand,uns,nur,immer,Teilnehmer,saftiges,jede,sich,101,"regnete,",Methode,damals,die,in,Ankunft,nur,zum,Methode,Eimer,verbraucht,in,fuhren,in,wurden,Studium,dann,sahen,Essen,suchen,keine,war,gebrauchter,schlug,die,Studium,Rummels,Tat,sahen,Kakao,die,das,Umständen,mal,suchen,gebrauchte,Bürgermeister,Rand,mal,Bürgermeister,Zirkus,beider,60,eine,Studie,genau,schlug,keine,uns,wurden,fuhren,ein,war,Kakao,Feier,Kleidung,wurden,Tropfen,,,,,,,,,,,,,,,,,,,,,,,8,0,8,0,0,2,2,2,,,,,,,space,0.477380037308,,,,,,2017_Jan_23_1155,59.8222293219,spr_backupper,001,Mo12,
,Zuckers,"unterging,",Liter,wissen,rote,Mann,schon,gedachte,260.000,große,dem,Dänemark,königlichen,überwiegend,beteiligten,kann,des,Zucker,Berge,er,mit,durch,Masse,dem,mit,Fleischs,Menge,des,dann,aus,stand,der,die,kleinere,auf,wurden,Fleisch,Menge,Berge,hält,hat,kann,schnell,Leinwand,Größe,stand,kleinere,Mond,kann,roter,260.000,Größe,mit,Dänemark,mit,habe,mit,wir,kann,die,Lust,aus,Kleidung,"sporadisch,",Erlebnisse,las,wurde,wissen,wir,gehören,Masse,Auto,können,wieder,die,Kleidung,beschuldigten,der,wieder,beschuldigten,werden,beteiligter,Liter,große,wurde,die,"sporadisch,",Lust,durch,mit,mit,Hemd,der,gehören,gedachte,bei,unter,königliches,,,,,,,,,,,,,,,,,,,,,,,8,0,8,0,0,3,3,3,,,,,,,space,0.531645059586,,,,,,2017_Jan_23_1155,59.8222293219,spr_backupper,001,Mo12,
,sind,war,sprudelndes,wir,Farbe,das,bei,man,Kilowattstunden,Packung,bekannten,gelegentlich,Bluts,"nicht,",Fahrer,ich,bekannten,sind,schmutziger,"trug,","reichlichem,",Büschel,mit,schönen,"sämtlichem,",wurden,alten,schönen,mit,"wertvollem,",ein,Stadt,Stimmung,"Delikte,",warmem,mit,wurden,alten,schmutzige,nicht,uns,man,dank,aus,36,ein,"Delikte,",dauerte,man,Farbe,Kilowattstunden,36,solchen,einen,"üblichem,",ich,"minimalem,",den,ich,Wohnung,auf,"Japan,",landen,obschon,bei,ich,schon,wir,den,immer,mit,dem,Neuwahlen,viel,Wohnung,landen,die,Stadt,viel,die,die,Fahrer,sprudelnden,Packung,jetzt,richtige,obwohl,auf,Büschel,dauerhaftem,solch,aus,vierte,immer,man,ausreichendem,"regelmäßigem,",Blut,,,,,,,,,,,,,,,,,,,,,,,8,0,8,0,0,4,4,4,,,,,,,space,0.50378203392,,,,,,2017_Jan_23_1155,59.8222293219,spr_backupper,001,Mo12,
,auf,die,Trinkwasser.,um,geschleudert.,Auto,minimalem,den,elektrischer,salzige,Skandal,einen,hat,was,wurden,leider,Skandals,auf,Wäsche.,war,purem,frischen,einem,Wetter,künftigem,serviert.,Kram,Wetters,"reichem,",klassischen,Glas,liegen,ziemlich,derer,weichem,zusätzlichem,serviert.,Krams,Wäsche.,am,die,eine,täglichem,seltenem,hätten,Glas,deren,ungefähr,eine,geschleudert.,elektrische,würden,unzureichenden,gelegentlichen,harten,mehr,sauberen,roten,leider,des,noch,die,im,sie,"frischem,",mehr,immer,von,roten,350,einem,Mann,vor,Lärm,des,im,Störenfriede,liegen,Lärm,Störenfriede,Tiere,wurden,Trinkwassers.,salziger,"nachgewiesen,","Zeit,",sie,noch,frisches,feinem,unzureichenden,feinem,Bundespräsident.,350,der,monatlichem,kaltem,hat,,,,,,,,,,,,,,,,,,,,,,,8,0,8,0,0,5,5,5,,,,,,,space,0.520309925079,,,,,,2017_Jan_23_1155,59.8222293219,spr_backupper,001,Mo12,
,jeden,Flut,nan,die,nan,mehr,täglichen,Soldaten,Energie.,Wurst,wiedergewählt.,Besucher.,den,Tupperware,verschrottet.,nichts,wiedergewählt.,jeden,nan,aus,Alkohol,Grases,Esslöffel,die,Einkommen,nan,aus,die,goldenen,Schmuck,köstlichen,die,"vermiest,",sie,Untergrund,schwarzem,nan,aus,nan,Hauptbahnhof.,Stimmung,große,grünen,dichten,seiner,köstlicher,sie,drei,große,nan,Energie.,seiner,Helmen,Besucher.,Schaumstoff,als,Kraftstoff,Planet,nichts,Herrn,eine,er,Müll.,defekt,kaltem,als,ruhig,den,Planeten,ml,Esslöffel,mehr,Dezember,um,Herrn,Müll.,jeden.,die,um,jeden.,artgerecht,verschrottet.,nan,Wurst,dass,um,defekt,eine,Gras,Kunsteis,Helmen,dichten,nan,ml,Soldaten,Taschengeld,Abduschen,den,,,,,,,,,,,,,,,,,,,,,,,8,0,8,0,0,6,6,6,,,,,,,space,0.627213954926,,,,,,2017_Jan_23_1155,59.8222293219,spr_backupper,001,Mo12,
,Fall,zurückgekehrt.,nan,Probleme,nan,als,Einsatz,des,nan,mit,nan,nan,Boden,ist.,nan,mitbringen.,nan,Fall,nan,Japan.,verdünnt.,zwängen.,warmem,Wohnung.,haftbar.,nan,dem,Wohnung.,Besatz,umgearbeitet.,Weins,Slums.,dass,überführt,liegen.,Kaffee,nan,dem,nan,nan,ziemlich,Menge,Tee,Gewebe,Frau,Wein,überführt,Tage.,Menge,nan,nan,Frau,zur,nan,gefertigt.,einmal,fahren.,ganz,mitbringen.,Gantenbein.,Sammlung,trug.,nan,war.,Saft,einmal,diskutiert.,Problemen,ganz,warme,warmen,als,stattfinden.,jede,Gantenbeins.,nan,nan,Slums.,jede,nan,gehalten.,nan,nan,mit,das,Nadelhölzer,war.,Sammlung,zwängen.,eingesprüht.,zur,Stoff,nan,warmer,des,selber,gehärtet.,Boden,,,,,,,,,,,,,,,,,,,,,,,8,0,8,0,0,7,7,7,,,,,,,space,0.81451010704,,,,,,2017_Jan_23_1155,59.8222293219,spr_backupper,001,Mo12,
,,,,,,,,,,,,,,,,,,,,,,,,,,,,,,,,,,,,,,,,,,,,,,,,,,,,,,,,,,,,,,,,,,,,,,,,,,,,,,,,,,,,,,,,,,,,,,,,,,,,,,,,,,,,,,,,,,,,,,,,,8,0,8,0,,,,,,,,,,,,,None,j,4.38208508492,,,2017_Jan_23_1155,59.8222293219,spr_backupper,001,Mo12,
,100,Als,Sie,In,Es,Wir,Ihr,Bei,Die,Ich,Er,Wir,Nicht,Die,Die,Außer,Er,100,Dort,Die,Die,Wir,Er,Sie,Manche,Beträchtliche,Wir,Sie,Das,Die,Bei,Am,Es,Es,Jungtiere,Die,Beträchtliche,Wir,Dort,Die,Dass,Mit,Ich,Danach,Die,Bei,Es,Der,Mit,Es,Die,Die,Die,Wir,Alle,In,Wir,Im,Außer,Die,Sie,Die,Viele,Die,Sie,In,Fernab,In,Im,In,Er,Wir,Unter,Man,Die,Viele,Außer,Am,Man,Außer,In,Die,Sie,Ich,In,Jetzt,Die,Sie,Wir,Die,Die,Er,Walter,In,Bei,Jugendliche,Die,Nicht,,,,,,,,,,,,,,,,,,,,,,,9,0,9,0,0,0,0,0,,,,,,None,space,0.5825278759,,,,,,2017_Jan_23_1155,59.8222293219,spr_backupper,001,Mo12,
,g,die,verbrauchen,der,wurden,übergaben,Blutdruck,der,Schule,nehme,wurde,hatten,ein,Teilnehmerinnen,Autos,dem,wurde,g,türmen,"Uhr,",Lösung,mussten,stellt,verlassen,Kreditnehmer,Stücke,haben,verlassen,Tuch,Stücke,unserer,äußersten,hat,waren,sollten,müden,Stücke,haben,türmen,Linie,es,dieser,wurde,wurde,Schuhe,unserer,waren,Flug,dieser,wurden,Schule,Schuhe,Kinder,hatten,Betten,meinem,konnten,Fernrohr,das,Gäste,hatte,Uhr,Tonnen,Uhr,haben,meinem,des,der,Fernrohr,den,stellt,übergaben,keinen,machte,Gäste,Tonnen,den,äußeren,machte,dem,diesem,Autos,verbrauchen,nehme,einer,ist,Uhr,hatte,mussten,Eislaufbahnen,Kinder,hat,Scheel,den,der,können,Formen,ein,,,,,,,,,,,,,,,,,,,,,,,9,0,9,0,0,1,1,1,,,,,,,space,0.671435832977,,,,,,2017_Jan_23_1155,59.8222293219,spr_backupper,001,Mo12,
,braunen,Sonne,60,Tat,Eimer,dem,kann,Feier,verbraucht,eine,trotz,in,Tropfen,wussten,beider,Essen,trotz,brauner,sich,die,wird,uns,die,wegen,sind,saftigen,jede,wegen,wurde,wurden,Ankunft,Rand,uns,nur,immer,Teilnehmer,saftiges,jede,sich,101,"regnete,",Methode,damals,die,in,Ankunft,nur,zum,Methode,Eimer,verbraucht,in,fuhren,in,wurden,Studium,dann,sahen,Essen,suchen,keine,war,gebrauchter,schlug,die,Studium,Rummels,Tat,sahen,Kakao,die,das,Umständen,mal,suchen,gebrauchte,Bürgermeister,Rand,mal,Bürgermeister,Zirkus,beider,60,eine,Studie,genau,schlug,keine,uns,wurden,fuhren,ein,war,Kakao,Feier,Kleidung,wurden,Tropfen,,,,,,,,,,,,,,,,,,,,,,,9,0,9,0,0,2,2,2,,,,,,,space,0.570775985718,,,,,,2017_Jan_23_1155,59.8222293219,spr_backupper,001,Mo12,
,Zuckers,"unterging,",Liter,wissen,rote,Mann,schon,gedachte,260.000,große,dem,Dänemark,königlichen,überwiegend,beteiligten,kann,des,Zucker,Berge,er,mit,durch,Masse,dem,mit,Fleischs,Menge,des,dann,aus,stand,der,die,kleinere,auf,wurden,Fleisch,Menge,Berge,hält,hat,kann,schnell,Leinwand,Größe,stand,kleinere,Mond,kann,roter,260.000,Größe,mit,Dänemark,mit,habe,mit,wir,kann,die,Lust,aus,Kleidung,"sporadisch,",Erlebnisse,las,wurde,wissen,wir,gehören,Masse,Auto,können,wieder,die,Kleidung,beschuldigten,der,wieder,beschuldigten,werden,beteiligter,Liter,große,wurde,die,"sporadisch,",Lust,durch,mit,mit,Hemd,der,gehören,gedachte,bei,unter,königliches,,,,,,,,,,,,,,,,,,,,,,,9,0,9,0,0,3,3,3,,,,,,,space,0.511945962906,,,,,,2017_Jan_23_1155,59.8222293219,spr_backupper,001,Mo12,
,sind,war,sprudelndes,wir,Farbe,das,bei,man,Kilowattstunden,Packung,bekannten,gelegentlich,Bluts,"nicht,",Fahrer,ich,bekannten,sind,schmutziger,"trug,","reichlichem,",Büschel,mit,schönen,"sämtlichem,",wurden,alten,schönen,mit,"wertvollem,",ein,Stadt,Stimmung,"Delikte,",warmem,mit,wurden,alten,schmutzige,nicht,uns,man,dank,aus,36,ein,"Delikte,",dauerte,man,Farbe,Kilowattstunden,36,solchen,einen,"üblichem,",ich,"minimalem,",den,ich,Wohnung,auf,"Japan,",landen,obschon,bei,ich,schon,wir,den,immer,mit,dem,Neuwahlen,viel,Wohnung,landen,die,Stadt,viel,die,die,Fahrer,sprudelnden,Packung,jetzt,richtige,obwohl,auf,Büschel,dauerhaftem,solch,aus,vierte,immer,man,ausreichendem,"regelmäßigem,",Blut,,,,,,,,,,,,,,,,,,,,,,,9,0,9,0,0,4,4,4,,,,,,,space,0.568728923798,,,,,,2017_Jan_23_1155,59.8222293219,spr_backupper,001,Mo12,
,auf,die,Trinkwasser.,um,geschleudert.,Auto,minimalem,den,elektrischer,salzige,Skandal,einen,hat,was,wurden,leider,Skandals,auf,Wäsche.,war,purem,frischen,einem,Wetter,künftigem,serviert.,Kram,Wetters,"reichem,",klassischen,Glas,liegen,ziemlich,derer,weichem,zusätzlichem,serviert.,Krams,Wäsche.,am,die,eine,täglichem,seltenem,hätten,Glas,deren,ungefähr,eine,geschleudert.,elektrische,würden,unzureichenden,gelegentlichen,harten,mehr,sauberen,roten,leider,des,noch,die,im,sie,"frischem,",mehr,immer,von,roten,350,einem,Mann,vor,Lärm,des,im,Störenfriede,liegen,Lärm,Störenfriede,Tiere,wurden,Trinkwassers.,salziger,"nachgewiesen,","Zeit,",sie,noch,frisches,feinem,unzureichenden,feinem,Bundespräsident.,350,der,monatlichem,kaltem,hat,,,,,,,,,,,,,,,,,,,,,,,9,0,9,0,0,5,5,5,,,,,,,space,0.604074954987,,,,,,2017_Jan_23_1155,59.8222293219,spr_backupper,001,Mo12,
,jeden,Flut,nan,die,nan,mehr,täglichen,Soldaten,Energie.,Wurst,wiedergewählt.,Besucher.,den,Tupperware,verschrottet.,nichts,wiedergewählt.,jeden,nan,aus,Alkohol,Grases,Esslöffel,die,Einkommen,nan,aus,die,goldenen,Schmuck,köstlichen,die,"vermiest,",sie,Untergrund,schwarzem,nan,aus,nan,Hauptbahnhof.,Stimmung,große,grünen,dichten,seiner,köstlicher,sie,drei,große,nan,Energie.,seiner,Helmen,Besucher.,Schaumstoff,als,Kraftstoff,Planet,nichts,Herrn,eine,er,Müll.,defekt,kaltem,als,ruhig,den,Planeten,ml,Esslöffel,mehr,Dezember,um,Herrn,Müll.,jeden.,die,um,jeden.,artgerecht,verschrottet.,nan,Wurst,dass,um,defekt,eine,Gras,Kunsteis,Helmen,dichten,nan,ml,Soldaten,Taschengeld,Abduschen,den,,,,,,,,,,,,,,,,,,,,,,,9,0,9,0,0,6,6,6,,,,,,,space,0.492984056473,,,,,,2017_Jan_23_1155,59.8222293219,spr_backupper,001,Mo12,
,Fall,zurückgekehrt.,nan,Probleme,nan,als,Einsatz,des,nan,mit,nan,nan,Boden,ist.,nan,mitbringen.,nan,Fall,nan,Japan.,verdünnt.,zwängen.,warmem,Wohnung.,haftbar.,nan,dem,Wohnung.,Besatz,umgearbeitet.,Weins,Slums.,dass,überführt,liegen.,Kaffee,nan,dem,nan,nan,ziemlich,Menge,Tee,Gewebe,Frau,Wein,überführt,Tage.,Menge,nan,nan,Frau,zur,nan,gefertigt.,einmal,fahren.,ganz,mitbringen.,Gantenbein.,Sammlung,trug.,nan,war.,Saft,einmal,diskutiert.,Problemen,ganz,warme,warmen,als,stattfinden.,jede,Gantenbeins.,nan,nan,Slums.,jede,nan,gehalten.,nan,nan,mit,das,Nadelhölzer,war.,Sammlung,zwängen.,eingesprüht.,zur,Stoff,nan,warmer,des,selber,gehärtet.,Boden,,,,,,,,,,,,,,,,,,,,,,,9,0,9,0,0,7,7,7,,,,,,,space,0.63932800293,,,,,,2017_Jan_23_1155,59.8222293219,spr_backupper,001,Mo12,
,,,,,,,,,,,,,,,,,,,,,,,,,,,,,,,,,,,,,,,,,,,,,,,,,,,,,,,,,,,,,,,,,,,,,,,,,,,,,,,,,,,,,,,,,,,,,,,,,,,,,,,,,,,,,,,,,,,,,,,,,9,0,9,0,,,,,,,,,,,,,None,n,3.53254199028,,,2017_Jan_23_1155,59.8222293219,spr_backupper,001,Mo12,
,100,Als,Sie,In,Es,Wir,Ihr,Bei,Die,Ich,Er,Wir,Nicht,Die,Die,Außer,Er,100,Dort,Die,Die,Wir,Er,Sie,Manche,Beträchtliche,Wir,Sie,Das,Die,Bei,Am,Es,Es,Jungtiere,Die,Beträchtliche,Wir,Dort,Die,Dass,Mit,Ich,Danach,Die,Bei,Es,Der,Mit,Es,Die,Die,Die,Wir,Alle,In,Wir,Im,Außer,Die,Sie,Die,Viele,Die,Sie,In,Fernab,In,Im,In,Er,Wir,Unter,Man,Die,Viele,Außer,Am,Man,Außer,In,Die,Sie,Ich,In,Jetzt,Die,Sie,Wir,Die,Die,Er,Walter,In,Bei,Jugendliche,Die,Nicht,,,,,,,,,,,,,,,,,,,,,,,10,0,10,0,0,0,0,0,,,,,,None,space,0.643303155899,,,,,,2017_Jan_23_1155,59.8222293219,spr_backupper,001,Mo12,
,g,die,verbrauchen,der,wurden,übergaben,Blutdruck,der,Schule,nehme,wurde,hatten,ein,Teilnehmerinnen,Autos,dem,wurde,g,türmen,"Uhr,",Lösung,mussten,stellt,verlassen,Kreditnehmer,Stücke,haben,verlassen,Tuch,Stücke,unserer,äußersten,hat,waren,sollten,müden,Stücke,haben,türmen,Linie,es,dieser,wurde,wurde,Schuhe,unserer,waren,Flug,dieser,wurden,Schule,Schuhe,Kinder,hatten,Betten,meinem,konnten,Fernrohr,das,Gäste,hatte,Uhr,Tonnen,Uhr,haben,meinem,des,der,Fernrohr,den,stellt,übergaben,keinen,machte,Gäste,Tonnen,den,äußeren,machte,dem,diesem,Autos,verbrauchen,nehme,einer,ist,Uhr,hatte,mussten,Eislaufbahnen,Kinder,hat,Scheel,den,der,können,Formen,ein,,,,,,,,,,,,,,,,,,,,,,,10,0,10,0,0,1,1,1,,,,,,,space,0.675496101379,,,,,,2017_Jan_23_1155,59.8222293219,spr_backupper,001,Mo12,
,braunen,Sonne,60,Tat,Eimer,dem,kann,Feier,verbraucht,eine,trotz,in,Tropfen,wussten,beider,Essen,trotz,brauner,sich,die,wird,uns,die,wegen,sind,saftigen,jede,wegen,wurde,wurden,Ankunft,Rand,uns,nur,immer,Teilnehmer,saftiges,jede,sich,101,"regnete,",Methode,damals,die,in,Ankunft,nur,zum,Methode,Eimer,verbraucht,in,fuhren,in,wurden,Studium,dann,sahen,Essen,suchen,keine,war,gebrauchter,schlug,die,Studium,Rummels,Tat,sahen,Kakao,die,das,Umständen,mal,suchen,gebrauchte,Bürgermeister,Rand,mal,Bürgermeister,Zirkus,beider,60,eine,Studie,genau,schlug,keine,uns,wurden,fuhren,ein,war,Kakao,Feier,Kleidung,wurden,Tropfen,,,,,,,,,,,,,,,,,,,,,,,10,0,10,0,0,2,2,2,,,,,,,space,0.495112895966,,,,,,2017_Jan_23_1155,59.8222293219,spr_backupper,001,Mo12,
,Zuckers,"unterging,",Liter,wissen,rote,Mann,schon,gedachte,260.000,große,dem,Dänemark,königlichen,überwiegend,beteiligten,kann,des,Zucker,Berge,er,mit,durch,Masse,dem,mit,Fleischs,Menge,des,dann,aus,stand,der,die,kleinere,auf,wurden,Fleisch,Menge,Berge,hält,hat,kann,schnell,Leinwand,Größe,stand,kleinere,Mond,kann,roter,260.000,Größe,mit,Dänemark,mit,habe,mit,wir,kann,die,Lust,aus,Kleidung,"sporadisch,",Erlebnisse,las,wurde,wissen,wir,gehören,Masse,Auto,können,wieder,die,Kleidung,beschuldigten,der,wieder,beschuldigten,werden,beteiligter,Liter,große,wurde,die,"sporadisch,",Lust,durch,mit,mit,Hemd,der,gehören,gedachte,bei,unter,königliches,,,,,,,,,,,,,,,,,,,,,,,10,0,10,0,0,3,3,3,,,,,,,space,0.48522901535,,,,,,2017_Jan_23_1155,59.8222293219,spr_backupper,001,Mo12,
,sind,war,sprudelndes,wir,Farbe,das,bei,man,Kilowattstunden,Packung,bekannten,gelegentlich,Bluts,"nicht,",Fahrer,ich,bekannten,sind,schmutziger,"trug,","reichlichem,",Büschel,mit,schönen,"sämtlichem,",wurden,alten,schönen,mit,"wertvollem,",ein,Stadt,Stimmung,"Delikte,",warmem,mit,wurden,alten,schmutzige,nicht,uns,man,dank,aus,36,ein,"Delikte,",dauerte,man,Farbe,Kilowattstunden,36,solchen,einen,"üblichem,",ich,"minimalem,",den,ich,Wohnung,auf,"Japan,",landen,obschon,bei,ich,schon,wir,den,immer,mit,dem,Neuwahlen,viel,Wohnung,landen,die,Stadt,viel,die,die,Fahrer,sprudelnden,Packung,jetzt,richtige,obwohl,auf,Büschel,dauerhaftem,solch,aus,vierte,immer,man,ausreichendem,"regelmäßigem,",Blut,,,,,,,,,,,,,,,,,,,,,,,10,0,10,0,0,4,4,4,,,,,,,space,0.51602602005,,,,,,2017_Jan_23_1155,59.8222293219,spr_backupper,001,Mo12,
,auf,die,Trinkwasser.,um,geschleudert.,Auto,minimalem,den,elektrischer,salzige,Skandal,einen,hat,was,wurden,leider,Skandals,auf,Wäsche.,war,purem,frischen,einem,Wetter,künftigem,serviert.,Kram,Wetters,"reichem,",klassischen,Glas,liegen,ziemlich,derer,weichem,zusätzlichem,serviert.,Krams,Wäsche.,am,die,eine,täglichem,seltenem,hätten,Glas,deren,ungefähr,eine,geschleudert.,elektrische,würden,unzureichenden,gelegentlichen,harten,mehr,sauberen,roten,leider,des,noch,die,im,sie,"frischem,",mehr,immer,von,roten,350,einem,Mann,vor,Lärm,des,im,Störenfriede,liegen,Lärm,Störenfriede,Tiere,wurden,Trinkwassers.,salziger,"nachgewiesen,","Zeit,",sie,noch,frisches,feinem,unzureichenden,feinem,Bundespräsident.,350,der,monatlichem,kaltem,hat,,,,,,,,,,,,,,,,,,,,,,,10,0,10,0,0,5,5,5,,,,,,,space,0.458864927292,,,,,,2017_Jan_23_1155,59.8222293219,spr_backupper,001,Mo12,
,jeden,Flut,nan,die,nan,mehr,täglichen,Soldaten,Energie.,Wurst,wiedergewählt.,Besucher.,den,Tupperware,verschrottet.,nichts,wiedergewählt.,jeden,nan,aus,Alkohol,Grases,Esslöffel,die,Einkommen,nan,aus,die,goldenen,Schmuck,köstlichen,die,"vermiest,",sie,Untergrund,schwarzem,nan,aus,nan,Hauptbahnhof.,Stimmung,große,grünen,dichten,seiner,köstlicher,sie,drei,große,nan,Energie.,seiner,Helmen,Besucher.,Schaumstoff,als,Kraftstoff,Planet,nichts,Herrn,eine,er,Müll.,defekt,kaltem,als,ruhig,den,Planeten,ml,Esslöffel,mehr,Dezember,um,Herrn,Müll.,jeden.,die,um,jeden.,artgerecht,verschrottet.,nan,Wurst,dass,um,defekt,eine,Gras,Kunsteis,Helmen,dichten,nan,ml,Soldaten,Taschengeld,Abduschen,den,,,,,,,,,,,,,,,,,,,,,,,10,0,10,0,0,6,6,6,,,,,,,space,0.491417169571,,,,,,2017_Jan_23_1155,59.8222293219,spr_backupper,001,Mo12,
,Fall,zurückgekehrt.,nan,Probleme,nan,als,Einsatz,des,nan,mit,nan,nan,Boden,ist.,nan,mitbringen.,nan,Fall,nan,Japan.,verdünnt.,zwängen.,warmem,Wohnung.,haftbar.,nan,dem,Wohnung.,Besatz,umgearbeitet.,Weins,Slums.,dass,überführt,liegen.,Kaffee,nan,dem,nan,nan,ziemlich,Menge,Tee,Gewebe,Frau,Wein,überführt,Tage.,Menge,nan,nan,Frau,zur,nan,gefertigt.,einmal,fahren.,ganz,mitbringen.,Gantenbein.,Sammlung,trug.,nan,war.,Saft,einmal,diskutiert.,Problemen,ganz,warme,warmen,als,stattfinden.,jede,Gantenbeins.,nan,nan,Slums.,jede,nan,gehalten.,nan,nan,mit,das,Nadelhölzer,war.,Sammlung,zwängen.,eingesprüht.,zur,Stoff,nan,warmer,des,selber,gehärtet.,Boden,,,,,,,,,,,,,,,,,,,,,,,10,0,10,0,0,7,7,7,,,,,,,space,0.576021909714,,,,,,2017_Jan_23_1155,59.8222293219,spr_backupper,001,Mo12,
,genug.,nan,nan,im,nan,gerne.,sinken.,zweiten,nan,an,nan,nan,berührt.,nan,nan,nan,nan,genug.,nan,nan,nan,nan,Honig,nan,nan,nan,Haus,nan,rekonstruiert.,nan,schon,nan,es,wurden.,nan,wiederbelebt.,nan,Haus,nan,nan,vermiest.,dunkler,wieder,wiederhergestellt.,gepasst.,schon,wurden.,nan,dunkle,nan,nan,gepasst,Schule.,nan,nan,Rilke,nan,deutlich.,nan,nan,dummer,nan,nan,nan,besprochen.,Rilke.,nan,im,deutlich.,Milch.,Honigs,gerne.,nan,Menge,nan,nan,nan,nan,Menge,nan,nan,nan,nan,an,Medikament,umzusetzen.,nan,dumme,nan,nan,Schule.,gefertigt.,nan,Milch.,zweiten,kaufen.,nan,berührt.,,,,,,,,,,,,,,,,,,,,,,,10,0,10,0,0,8,8,8,,,,,,,space,0.436652183533,,,,,,2017_Jan_23_1155,59.8222293219,spr_backupper,001,Mo12,
,nan,nan,nan,Landkreis.,nan,nan,nan,Weltkriegs.,nan,den,nan,nan,nan,nan,nan,nan,nan,nan,nan,nan,nan,nan,her.,nan,nan,nan,geschafft.,nan,nan,nan,auf,nan,regnete.,nan,nan,nan,nan,geschafft.,nan,nan,nan,Materie,fit.,nan,nan,auf,nan,nan,Materie,nan,nan,haben.,nan,nan,nan,gelesen.,nan,nan,nan,nan,Sprüche.,nan,nan,nan,nan,nan,nan,Landkreis.,nan,nan,her.,nan,nan,heißer,nan,nan,nan,nan,heiße,nan,nan,nan,nan,den,nicht,nan,nan,Sprüche.,nan,nan,nan,nan,nan,nan,Weltkriegs.,nan,nan,nan,,,,,,,,,,,,,,,,,,,,,,,10,0,10,0,0,9,9,9,,,,,,,space,0.654788017273,,,,,,2017_Jan_23_1155,59.8222293219,spr_backupper,001,Mo12,
,,,,,,,,,,,,,,,,,,,,,,,,,,,,,,,,,,,,,,,,,,,,,,,,,,,,,,,,,,,,,,,,,,,,,,,,,,,,,,,,,,,,,,,,,,,,,,,,,,,,,,,,,,,,,,,,,,,,,,,,,10,0,10,0,,,,,,,,,,,,,None,n,6.25521588326,,,2017_Jan_23_1155,59.8222293219,spr_backupper,001,Mo12,
,100,Als,Sie,In,Es,Wir,Ihr,Bei,Die,Ich,Er,Wir,Nicht,Die,Die,Außer,Er,100,Dort,Die,Die,Wir,Er,Sie,Manche,Beträchtliche,Wir,Sie,Das,Die,Bei,Am,Es,Es,Jungtiere,Die,Beträchtliche,Wir,Dort,Die,Dass,Mit,Ich,Danach,Die,Bei,Es,Der,Mit,Es,Die,Die,Die,Wir,Alle,In,Wir,Im,Außer,Die,Sie,Die,Viele,Die,Sie,In,Fernab,In,Im,In,Er,Wir,Unter,Man,Die,Viele,Außer,Am,Man,Außer,In,Die,Sie,Ich,In,Jetzt,Die,Sie,Wir,Die,Die,Er,Walter,In,Bei,Jugendliche,Die,Nicht,,,,,,,,,,,,,,,,,,,,,,,11,0,11,0,0,0,0,0,,,,,,None,space,0.608411073685,,,,,,2017_Jan_23_1155,59.8222293219,spr_backupper,001,Mo12,
,g,die,verbrauchen,der,wurden,übergaben,Blutdruck,der,Schule,nehme,wurde,hatten,ein,Teilnehmerinnen,Autos,dem,wurde,g,türmen,"Uhr,",Lösung,mussten,stellt,verlassen,Kreditnehmer,Stücke,haben,verlassen,Tuch,Stücke,unserer,äußersten,hat,waren,sollten,müden,Stücke,haben,türmen,Linie,es,dieser,wurde,wurde,Schuhe,unserer,waren,Flug,dieser,wurden,Schule,Schuhe,Kinder,hatten,Betten,meinem,konnten,Fernrohr,das,Gäste,hatte,Uhr,Tonnen,Uhr,haben,meinem,des,der,Fernrohr,den,stellt,übergaben,keinen,machte,Gäste,Tonnen,den,äußeren,machte,dem,diesem,Autos,verbrauchen,nehme,einer,ist,Uhr,hatte,mussten,Eislaufbahnen,Kinder,hat,Scheel,den,der,können,Formen,ein,,,,,,,,,,,,,,,,,,,,,,,11,0,11,0,0,1,1,1,,,,,,,space,0.441760063171,,,,,,2017_Jan_23_1155,59.8222293219,spr_backupper,001,Mo12,
,braunen,Sonne,60,Tat,Eimer,dem,kann,Feier,verbraucht,eine,trotz,in,Tropfen,wussten,beider,Essen,trotz,brauner,sich,die,wird,uns,die,wegen,sind,saftigen,jede,wegen,wurde,wurden,Ankunft,Rand,uns,nur,immer,Teilnehmer,saftiges,jede,sich,101,"regnete,",Methode,damals,die,in,Ankunft,nur,zum,Methode,Eimer,verbraucht,in,fuhren,in,wurden,Studium,dann,sahen,Essen,suchen,keine,war,gebrauchter,schlug,die,Studium,Rummels,Tat,sahen,Kakao,die,das,Umständen,mal,suchen,gebrauchte,Bürgermeister,Rand,mal,Bürgermeister,Zirkus,beider,60,eine,Studie,genau,schlug,keine,uns,wurden,fuhren,ein,war,Kakao,Feier,Kleidung,wurden,Tropfen,,,,,,,,,,,,,,,,,,,,,,,11,0,11,0,0,2,2,2,,,,,,,space,0.502825975418,,,,,,2017_Jan_23_1155,59.8222293219,spr_backupper,001,Mo12,
,Zuckers,"unterging,",Liter,wissen,rote,Mann,schon,gedachte,260.000,große,dem,Dänemark,königlichen,überwiegend,beteiligten,kann,des,Zucker,Berge,er,mit,durch,Masse,dem,mit,Fleischs,Menge,des,dann,aus,stand,der,die,kleinere,auf,wurden,Fleisch,Menge,Berge,hält,hat,kann,schnell,Leinwand,Größe,stand,kleinere,Mond,kann,roter,260.000,Größe,mit,Dänemark,mit,habe,mit,wir,kann,die,Lust,aus,Kleidung,"sporadisch,",Erlebnisse,las,wurde,wissen,wir,gehören,Masse,Auto,können,wieder,die,Kleidung,beschuldigten,der,wieder,beschuldigten,werden,beteiligter,Liter,große,wurde,die,"sporadisch,",Lust,durch,mit,mit,Hemd,der,gehören,gedachte,bei,unter,königliches,,,,,,,,,,,,,,,,,,,,,,,11,0,11,0,0,3,3,3,,,,,,,space,0.537525177002,,,,,,2017_Jan_23_1155,59.8222293219,spr_backupper,001,Mo12,
,sind,war,sprudelndes,wir,Farbe,das,bei,man,Kilowattstunden,Packung,bekannten,gelegentlich,Bluts,"nicht,",Fahrer,ich,bekannten,sind,schmutziger,"trug,","reichlichem,",Büschel,mit,schönen,"sämtlichem,",wurden,alten,schönen,mit,"wertvollem,",ein,Stadt,Stimmung,"Delikte,",warmem,mit,wurden,alten,schmutzige,nicht,uns,man,dank,aus,36,ein,"Delikte,",dauerte,man,Farbe,Kilowattstunden,36,solchen,einen,"üblichem,",ich,"minimalem,",den,ich,Wohnung,auf,"Japan,",landen,obschon,bei,ich,schon,wir,den,immer,mit,dem,Neuwahlen,viel,Wohnung,landen,die,Stadt,viel,die,die,Fahrer,sprudelnden,Packung,jetzt,richtige,obwohl,auf,Büschel,dauerhaftem,solch,aus,vierte,immer,man,ausreichendem,"regelmäßigem,",Blut,,,,,,,,,,,,,,,,,,,,,,,11,0,11,0,0,4,4,4,,,,,,,space,0.687090873718,,,,,,2017_Jan_23_1155,59.8222293219,spr_backupper,001,Mo12,
,auf,die,Trinkwasser.,um,geschleudert.,Auto,minimalem,den,elektrischer,salzige,Skandal,einen,hat,was,wurden,leider,Skandals,auf,Wäsche.,war,purem,frischen,einem,Wetter,künftigem,serviert.,Kram,Wetters,"reichem,",klassischen,Glas,liegen,ziemlich,derer,weichem,zusätzlichem,serviert.,Krams,Wäsche.,am,die,eine,täglichem,seltenem,hätten,Glas,deren,ungefähr,eine,geschleudert.,elektrische,würden,unzureichenden,gelegentlichen,harten,mehr,sauberen,roten,leider,des,noch,die,im,sie,"frischem,",mehr,immer,von,roten,350,einem,Mann,vor,Lärm,des,im,Störenfriede,liegen,Lärm,Störenfriede,Tiere,wurden,Trinkwassers.,salziger,"nachgewiesen,","Zeit,",sie,noch,frisches,feinem,unzureichenden,feinem,Bundespräsident.,350,der,monatlichem,kaltem,hat,,,,,,,,,,,,,,,,,,,,,,,11,0,11,0,0,5,5,5,,,,,,,space,0.653460025787,,,,,,2017_Jan_23_1155,59.8222293219,spr_backupper,001,Mo12,
,jeden,Flut,nan,die,nan,mehr,täglichen,Soldaten,Energie.,Wurst,wiedergewählt.,Besucher.,den,Tupperware,verschrottet.,nichts,wiedergewählt.,jeden,nan,aus,Alkohol,Grases,Esslöffel,die,Einkommen,nan,aus,die,goldenen,Schmuck,köstlichen,die,"vermiest,",sie,Untergrund,schwarzem,nan,aus,nan,Hauptbahnhof.,Stimmung,große,grünen,dichten,seiner,köstlicher,sie,drei,große,nan,Energie.,seiner,Helmen,Besucher.,Schaumstoff,als,Kraftstoff,Planet,nichts,Herrn,eine,er,Müll.,defekt,kaltem,als,ruhig,den,Planeten,ml,Esslöffel,mehr,Dezember,um,Herrn,Müll.,jeden.,die,um,jeden.,artgerecht,verschrottet.,nan,Wurst,dass,um,defekt,eine,Gras,Kunsteis,Helmen,dichten,nan,ml,Soldaten,Taschengeld,Abduschen,den,,,,,,,,,,,,,,,,,,,,,,,11,0,11,0,0,6,6,6,,,,,,,space,0.55376291275,,,,,,2017_Jan_23_1155,59.8222293219,spr_backupper,001,Mo12,
,Fall,zurückgekehrt.,nan,Probleme,nan,als,Einsatz,des,nan,mit,nan,nan,Boden,ist.,nan,mitbringen.,nan,Fall,nan,Japan.,verdünnt.,zwängen.,warmem,Wohnung.,haftbar.,nan,dem,Wohnung.,Besatz,umgearbeitet.,Weins,Slums.,dass,überführt,liegen.,Kaffee,nan,dem,nan,nan,ziemlich,Menge,Tee,Gewebe,Frau,Wein,überführt,Tage.,Menge,nan,nan,Frau,zur,nan,gefertigt.,einmal,fahren.,ganz,mitbringen.,Gantenbein.,Sammlung,trug.,nan,war.,Saft,einmal,diskutiert.,Problemen,ganz,warme,warmen,als,stattfinden.,jede,Gantenbeins.,nan,nan,Slums.,jede,nan,gehalten.,nan,nan,mit,das,Nadelhölzer,war.,Sammlung,zwängen.,eingesprüht.,zur,Stoff,nan,warmer,des,selber,gehärtet.,Boden,,,,,,,,,,,,,,,,,,,,,,,11,0,11,0,0,7,7,7,,,,,,,space,0.704383850098,,,,,,2017_Jan_23_1155,59.8222293219,spr_backupper,001,Mo12,
,,,,,,,,,,,,,,,,,,,,,,,,,,,,,,,,,,,,,,,,,,,,,,,,,,,,,,,,,,,,,,,,,,,,,,,,,,,,,,,,,,,,,,,,,,,,,,,,,,,,,,,,,,,,,,,,,,,,,,,,,11,0,11,0,,,,,,,,,,,,,None,n,3.68949198723,,,2017_Jan_23_1155,59.8222293219,spr_backupper,001,Mo12,
,100,Als,Sie,In,Es,Wir,Ihr,Bei,Die,Ich,Er,Wir,Nicht,Die,Die,Außer,Er,100,Dort,Die,Die,Wir,Er,Sie,Manche,Beträchtliche,Wir,Sie,Das,Die,Bei,Am,Es,Es,Jungtiere,Die,Beträchtliche,Wir,Dort,Die,Dass,Mit,Ich,Danach,Die,Bei,Es,Der,Mit,Es,Die,Die,Die,Wir,Alle,In,Wir,Im,Außer,Die,Sie,Die,Viele,Die,Sie,In,Fernab,In,Im,In,Er,Wir,Unter,Man,Die,Viele,Außer,Am,Man,Außer,In,Die,Sie,Ich,In,Jetzt,Die,Sie,Wir,Die,Die,Er,Walter,In,Bei,Jugendliche,Die,Nicht,,,,,,,,,,,,,,,,,,,,,,,12,0,12,0,0,0,0,0,,,,,,None,space,0.530117034912,,,,,,2017_Jan_23_1155,59.8222293219,spr_backupper,001,Mo12,
,g,die,verbrauchen,der,wurden,übergaben,Blutdruck,der,Schule,nehme,wurde,hatten,ein,Teilnehmerinnen,Autos,dem,wurde,g,türmen,"Uhr,",Lösung,mussten,stellt,verlassen,Kreditnehmer,Stücke,haben,verlassen,Tuch,Stücke,unserer,äußersten,hat,waren,sollten,müden,Stücke,haben,türmen,Linie,es,dieser,wurde,wurde,Schuhe,unserer,waren,Flug,dieser,wurden,Schule,Schuhe,Kinder,hatten,Betten,meinem,konnten,Fernrohr,das,Gäste,hatte,Uhr,Tonnen,Uhr,haben,meinem,des,der,Fernrohr,den,stellt,übergaben,keinen,machte,Gäste,Tonnen,den,äußeren,machte,dem,diesem,Autos,verbrauchen,nehme,einer,ist,Uhr,hatte,mussten,Eislaufbahnen,Kinder,hat,Scheel,den,der,können,Formen,ein,,,,,,,,,,,,,,,,,,,,,,,12,0,12,0,0,1,1,1,,,,,,,space,0.721222162247,,,,,,2017_Jan_23_1155,59.8222293219,spr_backupper,001,Mo12,
,braunen,Sonne,60,Tat,Eimer,dem,kann,Feier,verbraucht,eine,trotz,in,Tropfen,wussten,beider,Essen,trotz,brauner,sich,die,wird,uns,die,wegen,sind,saftigen,jede,wegen,wurde,wurden,Ankunft,Rand,uns,nur,immer,Teilnehmer,saftiges,jede,sich,101,"regnete,",Methode,damals,die,in,Ankunft,nur,zum,Methode,Eimer,verbraucht,in,fuhren,in,wurden,Studium,dann,sahen,Essen,suchen,keine,war,gebrauchter,schlug,die,Studium,Rummels,Tat,sahen,Kakao,die,das,Umständen,mal,suchen,gebrauchte,Bürgermeister,Rand,mal,Bürgermeister,Zirkus,beider,60,eine,Studie,genau,schlug,keine,uns,wurden,fuhren,ein,war,Kakao,Feier,Kleidung,wurden,Tropfen,,,,,,,,,,,,,,,,,,,,,,,12,0,12,0,0,2,2,2,,,,,,,space,0.504133939743,,,,,,2017_Jan_23_1155,59.8222293219,spr_backupper,001,Mo12,
,Zuckers,"unterging,",Liter,wissen,rote,Mann,schon,gedachte,260.000,große,dem,Dänemark,königlichen,überwiegend,beteiligten,kann,des,Zucker,Berge,er,mit,durch,Masse,dem,mit,Fleischs,Menge,des,dann,aus,stand,der,die,kleinere,auf,wurden,Fleisch,Menge,Berge,hält,hat,kann,schnell,Leinwand,Größe,stand,kleinere,Mond,kann,roter,260.000,Größe,mit,Dänemark,mit,habe,mit,wir,kann,die,Lust,aus,Kleidung,"sporadisch,",Erlebnisse,las,wurde,wissen,wir,gehören,Masse,Auto,können,wieder,die,Kleidung,beschuldigten,der,wieder,beschuldigten,werden,beteiligter,Liter,große,wurde,die,"sporadisch,",Lust,durch,mit,mit,Hemd,der,gehören,gedachte,bei,unter,königliches,,,,,,,,,,,,,,,,,,,,,,,12,0,12,0,0,3,3,3,,,,,,,space,0.536533117294,,,,,,2017_Jan_23_1155,59.8222293219,spr_backupper,001,Mo12,
,sind,war,sprudelndes,wir,Farbe,das,bei,man,Kilowattstunden,Packung,bekannten,gelegentlich,Bluts,"nicht,",Fahrer,ich,bekannten,sind,schmutziger,"trug,","reichlichem,",Büschel,mit,schönen,"sämtlichem,",wurden,alten,schönen,mit,"wertvollem,",ein,Stadt,Stimmung,"Delikte,",warmem,mit,wurden,alten,schmutzige,nicht,uns,man,dank,aus,36,ein,"Delikte,",dauerte,man,Farbe,Kilowattstunden,36,solchen,einen,"üblichem,",ich,"minimalem,",den,ich,Wohnung,auf,"Japan,",landen,obschon,bei,ich,schon,wir,den,immer,mit,dem,Neuwahlen,viel,Wohnung,landen,die,Stadt,viel,die,die,Fahrer,sprudelnden,Packung,jetzt,richtige,obwohl,auf,Büschel,dauerhaftem,solch,aus,vierte,immer,man,ausreichendem,"regelmäßigem,",Blut,,,,,,,,,,,,,,,,,,,,,,,12,0,12,0,0,4,4,4,,,,,,,space,0.822179079056,,,,,,2017_Jan_23_1155,59.8222293219,spr_backupper,001,Mo12,
,auf,die,Trinkwasser.,um,geschleudert.,Auto,minimalem,den,elektrischer,salzige,Skandal,einen,hat,was,wurden,leider,Skandals,auf,Wäsche.,war,purem,frischen,einem,Wetter,künftigem,serviert.,Kram,Wetters,"reichem,",klassischen,Glas,liegen,ziemlich,derer,weichem,zusätzlichem,serviert.,Krams,Wäsche.,am,die,eine,täglichem,seltenem,hätten,Glas,deren,ungefähr,eine,geschleudert.,elektrische,würden,unzureichenden,gelegentlichen,harten,mehr,sauberen,roten,leider,des,noch,die,im,sie,"frischem,",mehr,immer,von,roten,350,einem,Mann,vor,Lärm,des,im,Störenfriede,liegen,Lärm,Störenfriede,Tiere,wurden,Trinkwassers.,salziger,"nachgewiesen,","Zeit,",sie,noch,frisches,feinem,unzureichenden,feinem,Bundespräsident.,350,der,monatlichem,kaltem,hat,,,,,,,,,,,,,,,,,,,,,,,12,0,12,0,0,5,5,5,,,,,,,space,0.771970033646,,,,,,2017_Jan_23_1155,59.8222293219,spr_backupper,001,Mo12,
,jeden,Flut,nan,die,nan,mehr,täglichen,Soldaten,Energie.,Wurst,wiedergewählt.,Besucher.,den,Tupperware,verschrottet.,nichts,wiedergewählt.,jeden,nan,aus,Alkohol,Grases,Esslöffel,die,Einkommen,nan,aus,die,goldenen,Schmuck,köstlichen,die,"vermiest,",sie,Untergrund,schwarzem,nan,aus,nan,Hauptbahnhof.,Stimmung,große,grünen,dichten,seiner,köstlicher,sie,drei,große,nan,Energie.,seiner,Helmen,Besucher.,Schaumstoff,als,Kraftstoff,Planet,nichts,Herrn,eine,er,Müll.,defekt,kaltem,als,ruhig,den,Planeten,ml,Esslöffel,mehr,Dezember,um,Herrn,Müll.,jeden.,die,um,jeden.,artgerecht,verschrottet.,nan,Wurst,dass,um,defekt,eine,Gras,Kunsteis,Helmen,dichten,nan,ml,Soldaten,Taschengeld,Abduschen,den,,,,,,,,,,,,,,,,,,,,,,,12,0,12,0,0,6,6,6,,,,,,,space,0.617801189423,,,,,,2017_Jan_23_1155,59.8222293219,spr_backupper,001,Mo12,
,Fall,zurückgekehrt.,nan,Probleme,nan,als,Einsatz,des,nan,mit,nan,nan,Boden,ist.,nan,mitbringen.,nan,Fall,nan,Japan.,verdünnt.,zwängen.,warmem,Wohnung.,haftbar.,nan,dem,Wohnung.,Besatz,umgearbeitet.,Weins,Slums.,dass,überführt,liegen.,Kaffee,nan,dem,nan,nan,ziemlich,Menge,Tee,Gewebe,Frau,Wein,überführt,Tage.,Menge,nan,nan,Frau,zur,nan,gefertigt.,einmal,fahren.,ganz,mitbringen.,Gantenbein.,Sammlung,trug.,nan,war.,Saft,einmal,diskutiert.,Problemen,ganz,warme,warmen,als,stattfinden.,jede,Gantenbeins.,nan,nan,Slums.,jede,nan,gehalten.,nan,nan,mit,das,Nadelhölzer,war.,Sammlung,zwängen.,eingesprüht.,zur,Stoff,nan,warmer,des,selber,gehärtet.,Boden,,,,,,,,,,,,,,,,,,,,,,,12,0,12,0,0,7,7,7,,,,,,,space,0.60230588913,,,,,,2017_Jan_23_1155,59.8222293219,spr_backupper,001,Mo12,
,,,,,,,,,,,,,,,,,,,,,,,,,,,,,,,,,,,,,,,,,,,,,,,,,,,,,,,,,,,,,,,,,,,,,,,,,,,,,,,,,,,,,,,,,,,,,,,,,,,,,,,,,,,,,,,,,,,,,,,,,12,0,12,0,,,,,,,,,,,,,None,j,5.26668691635,,,2017_Jan_23_1155,59.8222293219,spr_backupper,001,Mo12,
,100,Als,Sie,In,Es,Wir,Ihr,Bei,Die,Ich,Er,Wir,Nicht,Die,Die,Außer,Er,100,Dort,Die,Die,Wir,Er,Sie,Manche,Beträchtliche,Wir,Sie,Das,Die,Bei,Am,Es,Es,Jungtiere,Die,Beträchtliche,Wir,Dort,Die,Dass,Mit,Ich,Danach,Die,Bei,Es,Der,Mit,Es,Die,Die,Die,Wir,Alle,In,Wir,Im,Außer,Die,Sie,Die,Viele,Die,Sie,In,Fernab,In,Im,In,Er,Wir,Unter,Man,Die,Viele,Außer,Am,Man,Außer,In,Die,Sie,Ich,In,Jetzt,Die,Sie,Wir,Die,Die,Er,Walter,In,Bei,Jugendliche,Die,Nicht,,,,,,,,,,,,,,,,,,,,,,,13,0,13,0,0,0,0,0,,,,,,space,space,0.48513507843,,,,0.770931005478,,2017_Jan_23_1155,59.8222293219,spr_backupper,001,Mo12,
,g,die,verbrauchen,der,wurden,übergaben,Blutdruck,der,Schule,nehme,wurde,hatten,ein,Teilnehmerinnen,Autos,dem,wurde,g,türmen,"Uhr,",Lösung,mussten,stellt,verlassen,Kreditnehmer,Stücke,haben,verlassen,Tuch,Stücke,unserer,äußersten,hat,waren,sollten,müden,Stücke,haben,türmen,Linie,es,dieser,wurde,wurde,Schuhe,unserer,waren,Flug,dieser,wurden,Schule,Schuhe,Kinder,hatten,Betten,meinem,konnten,Fernrohr,das,Gäste,hatte,Uhr,Tonnen,Uhr,haben,meinem,des,der,Fernrohr,den,stellt,übergaben,keinen,machte,Gäste,Tonnen,den,äußeren,machte,dem,diesem,Autos,verbrauchen,nehme,einer,ist,Uhr,hatte,mussten,Eislaufbahnen,Kinder,hat,Scheel,den,der,können,Formen,ein,,,,,,,,,,,,,,,,,,,,,,,13,0,13,0,0,1,1,1,,,,,,,space,0.503907203674,,,,,,2017_Jan_23_1155,59.8222293219,spr_backupper,001,Mo12,
,braunen,Sonne,60,Tat,Eimer,dem,kann,Feier,verbraucht,eine,trotz,in,Tropfen,wussten,beider,Essen,trotz,brauner,sich,die,wird,uns,die,wegen,sind,saftigen,jede,wegen,wurde,wurden,Ankunft,Rand,uns,nur,immer,Teilnehmer,saftiges,jede,sich,101,"regnete,",Methode,damals,die,in,Ankunft,nur,zum,Methode,Eimer,verbraucht,in,fuhren,in,wurden,Studium,dann,sahen,Essen,suchen,keine,war,gebrauchter,schlug,die,Studium,Rummels,Tat,sahen,Kakao,die,das,Umständen,mal,suchen,gebrauchte,Bürgermeister,Rand,mal,Bürgermeister,Zirkus,beider,60,eine,Studie,genau,schlug,keine,uns,wurden,fuhren,ein,war,Kakao,Feier,Kleidung,wurden,Tropfen,,,,,,,,,,,,,,,,,,,,,,,13,0,13,0,0,2,2,2,,,,,,,space,0.519042015076,,,,,,2017_Jan_23_1155,59.8222293219,spr_backupper,001,Mo12,
,Zuckers,"unterging,",Liter,wissen,rote,Mann,schon,gedachte,260.000,große,dem,Dänemark,königlichen,überwiegend,beteiligten,kann,des,Zucker,Berge,er,mit,durch,Masse,dem,mit,Fleischs,Menge,des,dann,aus,stand,der,die,kleinere,auf,wurden,Fleisch,Menge,Berge,hält,hat,kann,schnell,Leinwand,Größe,stand,kleinere,Mond,kann,roter,260.000,Größe,mit,Dänemark,mit,habe,mit,wir,kann,die,Lust,aus,Kleidung,"sporadisch,",Erlebnisse,las,wurde,wissen,wir,gehören,Masse,Auto,können,wieder,die,Kleidung,beschuldigten,der,wieder,beschuldigten,werden,beteiligter,Liter,große,wurde,die,"sporadisch,",Lust,durch,mit,mit,Hemd,der,gehören,gedachte,bei,unter,königliches,,,,,,,,,,,,,,,,,,,,,,,13,0,13,0,0,3,3,3,,,,,,,space,0.520325899124,,,,,,2017_Jan_23_1155,59.8222293219,spr_backupper,001,Mo12,
,sind,war,sprudelndes,wir,Farbe,das,bei,man,Kilowattstunden,Packung,bekannten,gelegentlich,Bluts,"nicht,",Fahrer,ich,bekannten,sind,schmutziger,"trug,","reichlichem,",Büschel,mit,schönen,"sämtlichem,",wurden,alten,schönen,mit,"wertvollem,",ein,Stadt,Stimmung,"Delikte,",warmem,mit,wurden,alten,schmutzige,nicht,uns,man,dank,aus,36,ein,"Delikte,",dauerte,man,Farbe,Kilowattstunden,36,solchen,einen,"üblichem,",ich,"minimalem,",den,ich,Wohnung,auf,"Japan,",landen,obschon,bei,ich,schon,wir,den,immer,mit,dem,Neuwahlen,viel,Wohnung,landen,die,Stadt,viel,die,die,Fahrer,sprudelnden,Packung,jetzt,richtige,obwohl,auf,Büschel,dauerhaftem,solch,aus,vierte,immer,man,ausreichendem,"regelmäßigem,",Blut,,,,,,,,,,,,,,,,,,,,,,,13,0,13,0,0,4,4,4,,,,,,,space,0.637928962708,,,,,,2017_Jan_23_1155,59.8222293219,spr_backupper,001,Mo12,
,auf,die,Trinkwasser.,um,geschleudert.,Auto,minimalem,den,elektrischer,salzige,Skandal,einen,hat,was,wurden,leider,Skandals,auf,Wäsche.,war,purem,frischen,einem,Wetter,künftigem,serviert.,Kram,Wetters,"reichem,",klassischen,Glas,liegen,ziemlich,derer,weichem,zusätzlichem,serviert.,Krams,Wäsche.,am,die,eine,täglichem,seltenem,hätten,Glas,deren,ungefähr,eine,geschleudert.,elektrische,würden,unzureichenden,gelegentlichen,harten,mehr,sauberen,roten,leider,des,noch,die,im,sie,"frischem,",mehr,immer,von,roten,350,einem,Mann,vor,Lärm,des,im,Störenfriede,liegen,Lärm,Störenfriede,Tiere,wurden,Trinkwassers.,salziger,"nachgewiesen,","Zeit,",sie,noch,frisches,feinem,unzureichenden,feinem,Bundespräsident.,350,der,monatlichem,kaltem,hat,,,,,,,,,,,,,,,,,,,,,,,13,0,13,0,0,5,5,5,,,,,,,space,0.518265962601,,,,,,2017_Jan_23_1155,59.8222293219,spr_backupper,001,Mo12,
,jeden,Flut,nan,die,nan,mehr,täglichen,Soldaten,Energie.,Wurst,wiedergewählt.,Besucher.,den,Tupperware,verschrottet.,nichts,wiedergewählt.,jeden,nan,aus,Alkohol,Grases,Esslöffel,die,Einkommen,nan,aus,die,goldenen,Schmuck,köstlichen,die,"vermiest,",sie,Untergrund,schwarzem,nan,aus,nan,Hauptbahnhof.,Stimmung,große,grünen,dichten,seiner,köstlicher,sie,drei,große,nan,Energie.,seiner,Helmen,Besucher.,Schaumstoff,als,Kraftstoff,Planet,nichts,Herrn,eine,er,Müll.,defekt,kaltem,als,ruhig,den,Planeten,ml,Esslöffel,mehr,Dezember,um,Herrn,Müll.,jeden.,die,um,jeden.,artgerecht,verschrottet.,nan,Wurst,dass,um,defekt,eine,Gras,Kunsteis,Helmen,dichten,nan,ml,Soldaten,Taschengeld,Abduschen,den,,,,,,,,,,,,,,,,,,,,,,,13,0,13,0,0,6,6,6,,,,,,,space,0.637315034866,,,,,,2017_Jan_23_1155,59.8222293219,spr_backupper,001,Mo12,
,Fall,zurückgekehrt.,nan,Probleme,nan,als,Einsatz,des,nan,mit,nan,nan,Boden,ist.,nan,mitbringen.,nan,Fall,nan,Japan.,verdünnt.,zwängen.,warmem,Wohnung.,haftbar.,nan,dem,Wohnung.,Besatz,umgearbeitet.,Weins,Slums.,dass,überführt,liegen.,Kaffee,nan,dem,nan,nan,ziemlich,Menge,Tee,Gewebe,Frau,Wein,überführt,Tage.,Menge,nan,nan,Frau,zur,nan,gefertigt.,einmal,fahren.,ganz,mitbringen.,Gantenbein.,Sammlung,trug.,nan,war.,Saft,einmal,diskutiert.,Problemen,ganz,warme,warmen,als,stattfinden.,jede,Gantenbeins.,nan,nan,Slums.,jede,nan,gehalten.,nan,nan,mit,das,Nadelhölzer,war.,Sammlung,zwängen.,eingesprüht.,zur,Stoff,nan,warmer,des,selber,gehärtet.,Boden,,,,,,,,,,,,,,,,,,,,,,,13,0,13,0,0,7,7,7,,,,,,,space,0.503293991089,,,,,,2017_Jan_23_1155,59.8222293219,spr_backupper,001,Mo12,
,genug.,nan,nan,im,nan,gerne.,sinken.,zweiten,nan,an,nan,nan,berührt.,nan,nan,nan,nan,genug.,nan,nan,nan,nan,Honig,nan,nan,nan,Haus,nan,rekonstruiert.,nan,schon,nan,es,wurden.,nan,wiederbelebt.,nan,Haus,nan,nan,vermiest.,dunkler,wieder,wiederhergestellt.,gepasst.,schon,wurden.,nan,dunkle,nan,nan,gepasst,Schule.,nan,nan,Rilke,nan,deutlich.,nan,nan,dummer,nan,nan,nan,besprochen.,Rilke.,nan,im,deutlich.,Milch.,Honigs,gerne.,nan,Menge,nan,nan,nan,nan,Menge,nan,nan,nan,nan,an,Medikament,umzusetzen.,nan,dumme,nan,nan,Schule.,gefertigt.,nan,Milch.,zweiten,kaufen.,nan,berührt.,,,,,,,,,,,,,,,,,,,,,,,13,0,13,0,0,8,8,8,,,,,,,space,0.43745803833,,,,,,2017_Jan_23_1155,59.8222293219,spr_backupper,001,Mo12,
,nan,nan,nan,Landkreis.,nan,nan,nan,Weltkriegs.,nan,den,nan,nan,nan,nan,nan,nan,nan,nan,nan,nan,nan,nan,her.,nan,nan,nan,geschafft.,nan,nan,nan,auf,nan,regnete.,nan,nan,nan,nan,geschafft.,nan,nan,nan,Materie,fit.,nan,nan,auf,nan,nan,Materie,nan,nan,haben.,nan,nan,nan,gelesen.,nan,nan,nan,nan,Sprüche.,nan,nan,nan,nan,nan,nan,Landkreis.,nan,nan,her.,nan,nan,heißer,nan,nan,nan,nan,heiße,nan,nan,nan,nan,den,nicht,nan,nan,Sprüche.,nan,nan,nan,nan,nan,nan,Weltkriegs.,nan,nan,nan,,,,,,,,,,,,,,,,,,,,,,,13,0,13,0,0,9,9,9,,,,,,,space,0.697029829025,,,,,,2017_Jan_23_1155,59.8222293219,spr_backupper,001,Mo12,
,,,,,,,,,,,,,,,,,,,,,,,,,,,,,,,,,,,,,,,,,,,,,,,,,,,,,,,,,,,,,,,,,,,,,,,,,,,,,,,,,,,,,,,,,,,,,,,,,,,,,,,,,,,,,,,,,,,,,,,,,13,0,13,0,,,,,,,,,,,,,None,j,4.0318980217,,,2017_Jan_23_1155,59.8222293219,spr_backupper,001,Mo12,
,100,Als,Sie,In,Es,Wir,Ihr,Bei,Die,Ich,Er,Wir,Nicht,Die,Die,Außer,Er,100,Dort,Die,Die,Wir,Er,Sie,Manche,Beträchtliche,Wir,Sie,Das,Die,Bei,Am,Es,Es,Jungtiere,Die,Beträchtliche,Wir,Dort,Die,Dass,Mit,Ich,Danach,Die,Bei,Es,Der,Mit,Es,Die,Die,Die,Wir,Alle,In,Wir,Im,Außer,Die,Sie,Die,Viele,Die,Sie,In,Fernab,In,Im,In,Er,Wir,Unter,Man,Die,Viele,Außer,Am,Man,Außer,In,Die,Sie,Ich,In,Jetzt,Die,Sie,Wir,Die,Die,Er,Walter,In,Bei,Jugendliche,Die,Nicht,,,,,,,,,,,,,,,,,,,,,,,14,0,14,0,0,0,0,0,,,,,,None,space,0.433037996292,,,,,,2017_Jan_23_1155,59.8222293219,spr_backupper,001,Mo12,
,g,die,verbrauchen,der,wurden,übergaben,Blutdruck,der,Schule,nehme,wurde,hatten,ein,Teilnehmerinnen,Autos,dem,wurde,g,türmen,"Uhr,",Lösung,mussten,stellt,verlassen,Kreditnehmer,Stücke,haben,verlassen,Tuch,Stücke,unserer,äußersten,hat,waren,sollten,müden,Stücke,haben,türmen,Linie,es,dieser,wurde,wurde,Schuhe,unserer,waren,Flug,dieser,wurden,Schule,Schuhe,Kinder,hatten,Betten,meinem,konnten,Fernrohr,das,Gäste,hatte,Uhr,Tonnen,Uhr,haben,meinem,des,der,Fernrohr,den,stellt,übergaben,keinen,machte,Gäste,Tonnen,den,äußeren,machte,dem,diesem,Autos,verbrauchen,nehme,einer,ist,Uhr,hatte,mussten,Eislaufbahnen,Kinder,hat,Scheel,den,der,können,Formen,ein,,,,,,,,,,,,,,,,,,,,,,,14,0,14,0,0,1,1,1,,,,,,,space,0.432525157928,,,,,,2017_Jan_23_1155,59.8222293219,spr_backupper,001,Mo12,
,braunen,Sonne,60,Tat,Eimer,dem,kann,Feier,verbraucht,eine,trotz,in,Tropfen,wussten,beider,Essen,trotz,brauner,sich,die,wird,uns,die,wegen,sind,saftigen,jede,wegen,wurde,wurden,Ankunft,Rand,uns,nur,immer,Teilnehmer,saftiges,jede,sich,101,"regnete,",Methode,damals,die,in,Ankunft,nur,zum,Methode,Eimer,verbraucht,in,fuhren,in,wurden,Studium,dann,sahen,Essen,suchen,keine,war,gebrauchter,schlug,die,Studium,Rummels,Tat,sahen,Kakao,die,das,Umständen,mal,suchen,gebrauchte,Bürgermeister,Rand,mal,Bürgermeister,Zirkus,beider,60,eine,Studie,genau,schlug,keine,uns,wurden,fuhren,ein,war,Kakao,Feier,Kleidung,wurden,Tropfen,,,,,,,,,,,,,,,,,,,,,,,14,0,14,0,0,2,2,2,,,,,,,space,0.487684011459,,,,,,2017_Jan_23_1155,59.8222293219,spr_backupper,001,Mo12,
,Zuckers,"unterging,",Liter,wissen,rote,Mann,schon,gedachte,260.000,große,dem,Dänemark,königlichen,überwiegend,beteiligten,kann,des,Zucker,Berge,er,mit,durch,Masse,dem,mit,Fleischs,Menge,des,dann,aus,stand,der,die,kleinere,auf,wurden,Fleisch,Menge,Berge,hält,hat,kann,schnell,Leinwand,Größe,stand,kleinere,Mond,kann,roter,260.000,Größe,mit,Dänemark,mit,habe,mit,wir,kann,die,Lust,aus,Kleidung,"sporadisch,",Erlebnisse,las,wurde,wissen,wir,gehören,Masse,Auto,können,wieder,die,Kleidung,beschuldigten,der,wieder,beschuldigten,werden,beteiligter,Liter,große,wurde,die,"sporadisch,",Lust,durch,mit,mit,Hemd,der,gehören,gedachte,bei,unter,königliches,,,,,,,,,,,,,,,,,,,,,,,14,0,14,0,0,3,3,3,,,,,,,space,0.431147098541,,,,,,2017_Jan_23_1155,59.8222293219,spr_backupper,001,Mo12,
,sind,war,sprudelndes,wir,Farbe,das,bei,man,Kilowattstunden,Packung,bekannten,gelegentlich,Bluts,"nicht,",Fahrer,ich,bekannten,sind,schmutziger,"trug,","reichlichem,",Büschel,mit,schönen,"sämtlichem,",wurden,alten,schönen,mit,"wertvollem,",ein,Stadt,Stimmung,"Delikte,",warmem,mit,wurden,alten,schmutzige,nicht,uns,man,dank,aus,36,ein,"Delikte,",dauerte,man,Farbe,Kilowattstunden,36,solchen,einen,"üblichem,",ich,"minimalem,",den,ich,Wohnung,auf,"Japan,",landen,obschon,bei,ich,schon,wir,den,immer,mit,dem,Neuwahlen,viel,Wohnung,landen,die,Stadt,viel,die,die,Fahrer,sprudelnden,Packung,jetzt,richtige,obwohl,auf,Büschel,dauerhaftem,solch,aus,vierte,immer,man,ausreichendem,"regelmäßigem,",Blut,,,,,,,,,,,,,,,,,,,,,,,14,0,14,0,0,4,4,4,,,,,,,space,0.419373035431,,,,,,2017_Jan_23_1155,59.8222293219,spr_backupper,001,Mo12,
,auf,die,Trinkwasser.,um,geschleudert.,Auto,minimalem,den,elektrischer,salzige,Skandal,einen,hat,was,wurden,leider,Skandals,auf,Wäsche.,war,purem,frischen,einem,Wetter,künftigem,serviert.,Kram,Wetters,"reichem,",klassischen,Glas,liegen,ziemlich,derer,weichem,zusätzlichem,serviert.,Krams,Wäsche.,am,die,eine,täglichem,seltenem,hätten,Glas,deren,ungefähr,eine,geschleudert.,elektrische,würden,unzureichenden,gelegentlichen,harten,mehr,sauberen,roten,leider,des,noch,die,im,sie,"frischem,",mehr,immer,von,roten,350,einem,Mann,vor,Lärm,des,im,Störenfriede,liegen,Lärm,Störenfriede,Tiere,wurden,Trinkwassers.,salziger,"nachgewiesen,","Zeit,",sie,noch,frisches,feinem,unzureichenden,feinem,Bundespräsident.,350,der,monatlichem,kaltem,hat,,,,,,,,,,,,,,,,,,,,,,,14,0,14,0,0,5,5,5,,,,,,,space,0.435194015503,,,,,,2017_Jan_23_1155,59.8222293219,spr_backupper,001,Mo12,
