text,sent48,sent9,sent8,sent15,sent3,sent2,sent1,sent14,sent7,sent6,sent5,sent4,sent57,sent56,sent55,sent54,sent53,sent52,sent51,sent50,sent13,sent12,sent11,sent10,sent17,sent16,sent59,sent58,sent93,sent92,sent91,sent90,sent97,sent96,sent95,sent94,sent98,sent22,sent23,sent20,sent21,sent26,sent27,sent24,sent25,sent28,sent29,sent68,sent69,sent66,sent67,sent64,sent65,sent62,sent63,sent60,sent61,sent31,sent30,sent33,sent32,sent35,sent34,sent37,sent36,sent39,sent38,sent79,sent78,sent75,sent74,sent77,sent76,sent71,sent70,sent73,sent72,sent19,sent49,sent18,sent44,sent45,sent84,sent85,sent86,sent87,sent80,sent81,sent82,sent83,sent40,sent41,sent42,sent43,sent88,sent89,sent46,sent47,intros.thisRepN,intros.thisTrialN,intros.thisN,intros.thisIndex,trials.thisRepN,trials.thisTrialN,trials.thisN,trials.thisIndex,testWords.thisRepN,testWords.thisTrialN,testWords.thisN,testWords.thisIndex,test1,test3,test2,test5,test4,test7,test6,test9,test8,test10,realTrials.thisRepN,realTrials.thisTrialN,realTrials.thisN,realTrials.thisIndex,words.thisRepN,words.thisTrialN,words.thisN,words.thisIndex,key_resp_3.keys,key_resp_3.rt,key_resp_8.keys,key_resp_8.rt,key_resp_10.keys,key_resp_10.rt,key_resp_6.keys,wordRead.keys,wordRead.rt,key_resp_5.keys,questAnswer.keys,questAnswer.rt,key_resp_6.rt,key_resp_5.rt,date,frameRate,expName,session,participant,
"Vielen Dank, dass Sie an diesem Experiment teilnehmen. Vor dem eigentlichen Experiment sehen Sie nun zuerst eine kurze Erläuterung, und Sie absolvieren ein kurze Übungsphase.

Das Experiment dauert insgesamt nicht mehr als 45 Minuten.",,,,,,,,,,,,,,,,,,,,,,,,,,,,,,,,,,,,,,,,,,,,,,,,,,,,,,,,,,,,,,,,,,,,,,,,,,,,,,,,,,,,,,,,,,,,,,,,,,,0,0,0,0,,,,,,,,,,,,,,,,,,,,,,,,,,,,,,,,,,,,,,,,,2017_Jan_23_1300,59.4134445401,spr_backupper,001,Mo13,
"In diesem Experiment lesen Sie deutsche Sätze, indem Sie sich von Wort zu Wort mit der Leertaste durch den Satz klicken.",,,,,,,,,,,,,,,,,,,,,,,,,,,,,,,,,,,,,,,,,,,,,,,,,,,,,,,,,,,,,,,,,,,,,,,,,,,,,,,,,,,,,,,,,,,,,,,,,,,0,1,1,1,,,,,,,,,,,,,,,,,,,,,,,,,,,,,,,,,,,,,,,,,2017_Jan_23_1300,59.4134445401,spr_backupper,001,Mo13,
"Sie sehen dabei immer nur das aktuelle Wort. Die Lesegeschwindigkeit bestimmen Sie vollständig selber. Vor jedem Satz sehen Sie in der Bildschirmmitte für zwei Sekunden ein + an der Stelle, an der dann die Wörter erscheinen.",,,,,,,,,,,,,,,,,,,,,,,,,,,,,,,,,,,,,,,,,,,,,,,,,,,,,,,,,,,,,,,,,,,,,,,,,,,,,,,,,,,,,,,,,,,,,,,,,,,0,2,2,2,,,,,,,,,,,,,,,,,,,,,,,,,,,,,,,,,,,,,,,,,2017_Jan_23_1300,59.4134445401,spr_backupper,001,Mo13,
"Nach jedem Satz wird Ihnen eine Ja/Nein-Verständnisfrage zum zuvor gelesenen Satz gestellt, die Sie mit der J-Taste für "Ja" und der N-Taste für "Nein" beantworten. Antworten Sie möglichst spontan und ohne lange Nachzudenken.",,,,,,,,,,,,,,,,,,,,,,,,,,,,,,,,,,,,,,,,,,,,,,,,,,,,,,,,,,,,,,,,,,,,,,,,,,,,,,,,,,,,,,,,,,,,,,,,,,,0,3,3,3,,,,,,,,,,,,,,,,,,,,,,,,,,,,,,,,,,,,,,,,,2017_Jan_23_1300,59.4134445401,spr_backupper,001,Mo13,
"Unterbrechen Sie das Experiment bitte auf keinen Fall, stellen Sie den ExperimentatorInnen nach dem Experimentbeginn keine Fragen, und lassen Sie sich nicht durch Umgebungsgeräusche ablenken.",,,,,,,,,,,,,,,,,,,,,,,,,,,,,,,,,,,,,,,,,,,,,,,,,,,,,,,,,,,,,,,,,,,,,,,,,,,,,,,,,,,,,,,,,,,,,,,,,,,0,4,4,4,,,,,,,,,,,,,,,,,,,,,,,,,,,,,,,,,,,,,,,,,2017_Jan_23_1300,59.4134445401,spr_backupper,001,Mo13,
"Im nächsten Schritt beantworten Sie bitte eine Frage zu Ihren Deutschkenntnissen. Danach beginnt eine Übungseinheit, mit der Sie sich an die Art der Durchführung dieses Experiments gewöhnen können.",,,,,,,,,,,,,,,,,,,,,,,,,,,,,,,,,,,,,,,,,,,,,,,,,,,,,,,,,,,,,,,,,,,,,,,,,,,,,,,,,,,,,,,,,,,,,,,,,,,0,5,5,5,,,,,,,,,,,,,,,,,,,,,,,,,,,,,,,,,,,,,,,,,2017_Jan_23_1300,59.4134445401,spr_backupper,001,Mo13,
,,,,,,,,,,,,,,,,,,,,,,,,,,,,,,,,,,,,,,,,,,,,,,,,,,,,,,,,,,,,,,,,,,,,,,,,,,,,,,,,,,,,,,,,,,,,,,,,,,,,,,,,,,,,,,,,,,,,,,,,,,,,,,,,,j,6.23859000206,,,,,,,,,,,,,2017_Jan_23_1300,59.4134445401,spr_backupper,001,Mo13,
,,,,,,,,,,,,,,,,,,,,,,,,,,,,,,,,,,,,,,,,,,,,,,,,,,,,,,,,,,,,,,,,,,,,,,,,,,,,,,,,,,,,,,,,,,,,,,,,,,,,,,,0,0,0,0,,,,,,,,,,,,,,,,,,,,,,,,,left,4.91142272949e-05,,,,,,,,,,,2017_Jan_23_1300,59.4134445401,spr_backupper,001,Mo13,
,,,,,,,,,,,,,,,,,,,,,,,,,,,,,,,,,,,,,,,,,,,,,,,,,,,,,,,,,,,,,,,,,,,,,,,,,,,,,,,,,,,,,,,,,,,,,,,,,,,,,,,1,0,1,0,,,,,,,,,,,,,,,,,,,,,,,,,None,,,,,,,,,,,,2017_Jan_23_1300,59.4134445401,spr_backupper,001,Mo13,
,,,,,,,,,,,,,,,,,,,,,,,,,,,,,,,,,,,,,,,,,,,,,,,,,,,,,,,,,,,,,,,,,,,,,,,,,,,,,,,,,,,,,,,,,,,,,,,,,,,,,,,2,0,2,0,,,,,,,,,,,,,,,,,,,,,,,,,None,,,,,,,,,,,,2017_Jan_23_1300,59.4134445401,spr_backupper,001,Mo13,
,,,,,,,,,,,,,,,,,,,,,,,,,,,,,,,,,,,,,,,,,,,,,,,,,,,,,,,,,,,,,,,,,,,,,,,,,,,,,,,,,,,,,,,,,,,,,,,,,,,,,,,3,0,3,0,,,,,,,,,,,,,,,,,,,,,,,,,None,,,,,,,,,,,,2017_Jan_23_1300,59.4134445401,spr_backupper,001,Mo13,
,,,,,,,,,,,,,,,,,,,,,,,,,,,,,,,,,,,,,,,,,,,,,,,,,,,,,,,,,,,,,,,,,,,,,,,,,,,,,,,,,,,,,,,,,,,,,,,,,,,,,,,4,0,4,0,,,,,,,,,,,,,,,,,,,,,,,,,None,,,,,,,,,,,,2017_Jan_23_1300,59.4134445401,spr_backupper,001,Mo13,
,,,,,,,,,,,,,,,,,,,,,,,,,,,,,,,,,,,,,,,,,,,,,,,,,,,,,,,,,,,,,,,,,,,,,,,,,,,,,,,,,,,,,,,,,,,,,,,,,,,,,,,5,0,5,0,,,,,,,,,,,,,,,,,,,,,,,,,None,,,,,,,,,,,,2017_Jan_23_1300,59.4134445401,spr_backupper,001,Mo13,
,,,,,,,,,,,,,,,,,,,,,,,,,,,,,,,,,,,,,,,,,,,,,,,,,,,,,,,,,,,,,,,,,,,,,,,,,,,,,,,,,,,,,,,,,,,,,,,,,,,,,,,6,0,6,0,,,,,,,,,,,,,,,,,,,,,,,,,None,,,,,,,,,,,,2017_Jan_23_1300,59.4134445401,spr_backupper,001,Mo13,
,,,,,,,,,,,,,,,,,,,,,,,,,,,,,,,,,,,,,,,,,,,,,,,,,,,,,,,,,,,,,,,,,,,,,,,,,,,,,,,,,,,,,,,,,,,,,,,,,,,,,,,7,0,7,0,,,,,,,,,,,,,,,,,,,,,,,,,None,,,,,,,,,,,,2017_Jan_23_1300,59.4134445401,spr_backupper,001,Mo13,
,,,,,,,,,,,,,,,,,,,,,,,,,,,,,,,,,,,,,,,,,,,,,,,,,,,,,,,,,,,,,,,,,,,,,,,,,,,,,,,,,,,,,,,,,,,,,,,,,,,,,,,8,0,8,0,,,,,,,,,,,,,,,,,,,,,,,,,None,,,,,,,,,,,,2017_Jan_23_1300,59.4134445401,spr_backupper,001,Mo13,
,,,,,,,,,,,,,,,,,,,,,,,,,,,,,,,,,,,,,,,,,,,,,,,,,,,,,,,,,,,,,,,,,,,,,,,,,,,,,,,,,,,,,,,,,,,,,,,,,,,,,,,9,0,9,0,,,,,,,,,,,,,,,,,,,,,,,,,None,,,,,,,,,,,,2017_Jan_23_1300,59.4134445401,spr_backupper,001,Mo13,
,,,,,,,,,,,,,,,,,,,,,,,,,,,,,,,,,,,,,,,,,,,,,,,,,,,,,,,,,,,,,,,,,,,,,,,,,,,,,,,,,,,,,,,,,,,,,,,,,,,,,,,,,,,,,,,,,,,,,,,,,,,,,,,,,,,,,space,3.79053688049,,,,,,,,,2017_Jan_23_1300,59.4134445401,spr_backupper,001,Mo13,
,Viele,Es,In,Ich,Dort,In,Die,Die,Bei,Im,Jetzt,Es,Er,Die,Walter,In,Am,Es,In,Nicht,In,Er,Beträchtliche,Die,Man,Die,Dort,Ihr,Außer,Fernab,Die,Sie,Im,In,Mit,In,Danach,Die,Mit,Sie,Wir,100,Die,Außer,Sie,Wir,Wir,Bei,Dass,Die,Er,Wir,Sie,Manche,Bei,Die,Wir,Das,Es,Die,Die,Er,Der,Wir,Die,Außer,Unter,Man,Es,Wir,Ich,Die,Sie,Ich,Die,Die,Außer,Nicht,Jungtiere,Am,In,Wir,Beträchtliche,Wir,Als,100,Die,Sie,Die,Die,Alle,Bei,Jugendliche,Die,Viele,Er,Die,Sie,,,,,,,,,,,,,,,,,,,,,,,0,0,0,0,0,0,0,0,,,,,,,None,space,2.12102985382,,,,,,2017_Jan_23_1300,59.4134445401,spr_backupper,001,Mo13,
,Tonnen,hat,der,nehme,türmen,den,Autos,Eislaufbahnen,der,Fernrohr,ist,waren,hat,Autos,Scheel,diesem,äußeren,wurden,den,ein,einer,stellt,Stücke,Stücke,machte,müden,türmen,Blutdruck,das,des,Schuhe,verlassen,Fernrohr,der,dieser,meinem,wurde,Schuhe,dieser,hatte,konnten,g,"Uhr,",dem,verlassen,übergaben,haben,unserer,es,Lösung,stellt,haben,verbrauchen,Kreditnehmer,der,Uhr,übergaben,Tuch,wurden,Gäste,Uhr,wurde,Flug,mussten,Kinder,den,keinen,machte,waren,mussten,nehme,Linie,haben,wurde,Kinder,Schule,dem,ein,sollten,äußersten,meinem,hatten,Stücke,hatten,die,g,Gäste,hatte,Uhr,Formen,Betten,unserer,können,Teilnehmerinnen,Tonnen,wurde,Schule,verbrauchen,,,,,,,,,,,,,,,,,,,,,,,0,0,0,0,0,1,1,1,,,,,,,,space,0.709779024124,,,,,,2017_Jan_23_1300,59.4134445401,spr_backupper,001,Mo13,
,gebrauchte,uns,Tat,eine,sich,Kakao,beider,wurden,Feier,sahen,genau,nur,ein,beider,war,Zirkus,Rand,Eimer,Kakao,Tropfen,Studie,die,saftiges,wurden,mal,Teilnehmer,sich,kann,Essen,Rummels,in,wegen,sahen,Tat,Methode,Studium,die,in,Methode,keine,dann,brauner,die,Essen,wegen,das,jede,Ankunft,"regnete,",wird,die,jede,60,sind,Feier,war,dem,wurde,Eimer,suchen,schlug,trotz,zum,uns,fuhren,Bürgermeister,Umständen,mal,nur,uns,eine,101,die,damals,fuhren,verbraucht,Bürgermeister,Tropfen,immer,Rand,Studium,in,saftigen,in,Sonne,braunen,suchen,keine,schlug,wurden,wurden,Ankunft,Kleidung,wussten,gebrauchter,trotz,verbraucht,60,,,,,,,,,,,,,,,,,,,,,,,0,0,0,0,0,2,2,2,,,,,,,,space,0.704041957855,,,,,,2017_Jan_23_1300,59.4134445401,spr_backupper,001,Mo13,
,Kleidung,die,wissen,große,Berge,gehören,beteiligten,mit,gedachte,wir,die,kleinere,Hemd,beteiligter,der,werden,der,rote,gehören,königliches,wurde,Masse,Fleisch,aus,wieder,wurden,Berge,schon,kann,wurde,Größe,dem,wir,wissen,kann,las,Leinwand,Größe,kann,Lust,mit,Zucker,er,kann,des,Auto,Menge,stand,hat,mit,Masse,Menge,Liter,mit,gedachte,aus,Mann,dann,roter,die,"sporadisch,",des,Mond,durch,mit,beschuldigten,können,wieder,kleinere,durch,große,hält,Erlebnisse,schnell,mit,260.000,beschuldigten,königlichen,auf,der,habe,Dänemark,Fleischs,Dänemark,"unterging,",Zuckers,die,Lust,"sporadisch,",unter,mit,stand,bei,überwiegend,Kleidung,dem,260.000,Liter,,,,,,,,,,,,,,,,,,,,,,,0,0,0,0,0,3,3,3,,,,,,,,space,3.30367779732,,,,,,2017_Jan_23_1300,59.4134445401,spr_backupper,001,Mo13,
,landen,Stimmung,wir,Packung,schmutziger,immer,Fahrer,dauerhaftem,man,den,richtige,"Delikte,",aus,Fahrer,vierte,die,Stadt,Farbe,immer,Blut,jetzt,mit,wurden,"wertvollem,",viel,mit,schmutzige,bei,ich,schon,36,schönen,den,wir,man,ich,aus,36,man,auf,"minimalem,",sind,"trug,",ich,schönen,dem,alten,ein,uns,"reichlichem,",mit,alten,sprudelndes,"sämtlichem,",man,"Japan,",das,mit,Farbe,Wohnung,obwohl,bekannten,dauerte,Büschel,solchen,die,Neuwahlen,viel,"Delikte,",Büschel,Packung,nicht,bei,dank,solch,Kilowattstunden,die,Bluts,warmem,Stadt,ich,einen,wurden,gelegentlich,war,sind,Wohnung,auf,obschon,"regelmäßigem,","üblichem,",ein,ausreichendem,"nicht,",landen,bekannten,Kilowattstunden,sprudelnden,,,,,,,,,,,,,,,,,,,,,,,0,0,0,0,0,4,4,4,,,,,,,,space,0.604610919952,,,,,,2017_Jan_23_1300,59.4134445401,spr_backupper,001,Mo13,
,im,ziemlich,von,salziger,Wäsche.,350,wurden,feinem,der,roten,"Zeit,",derer,feinem,wurden,Bundespräsident.,Tiere,liegen,geschleudert.,350,hat,"nachgewiesen,",einem,serviert.,klassischen,Lärm,zusätzlichem,Wäsche.,minimalem,leider,immer,hätten,Wetter,roten,um,eine,mehr,seltenem,würden,eine,noch,sauberen,auf,war,leider,Wetters,Mann,Kram,Glas,die,purem,einem,Krams,Trinkwasser.,künftigem,den,die,Auto,"reichem,",geschleudert.,des,sie,Skandals,ungefähr,frisches,unzureichenden,Störenfriede,vor,Lärm,deren,frischen,salzige,am,"frischem,",täglichem,unzureichenden,elektrischer,Störenfriede,hat,weichem,liegen,mehr,gelegentlichen,serviert.,einen,die,auf,des,noch,sie,kaltem,harten,Glas,monatlichem,was,im,Skandal,elektrische,Trinkwassers.,,,,,,,,,,,,,,,,,,,,,,,0,0,0,0,0,5,5,5,,,,,,,,space,0.704693078995,,,,,,2017_Jan_23_1300,59.4134445401,spr_backupper,001,Mo13,
,Müll.,"vermiest,",den,Wurst,nan,ml,verschrottet.,Kunsteis,Soldaten,Planeten,um,sie,dichten,verschrottet.,nan,artgerecht,die,nan,ml,den,dass,Esslöffel,nan,Schmuck,um,schwarzem,nan,täglichen,nichts,ruhig,seiner,die,Planet,die,große,als,dichten,seiner,große,eine,Kraftstoff,jeden,aus,nichts,die,mehr,aus,köstlicher,Stimmung,Alkohol,Esslöffel,aus,nan,Einkommen,Soldaten,er,mehr,goldenen,nan,Herrn,defekt,wiedergewählt.,drei,Gras,Helmen,jeden.,Dezember,um,sie,Grases,Wurst,Hauptbahnhof.,kaltem,grünen,Helmen,Energie.,jeden.,den,Untergrund,die,als,Besucher.,nan,Besucher.,Flut,jeden,Herrn,eine,defekt,Abduschen,Schaumstoff,köstlichen,Taschengeld,Tupperware,Müll.,wiedergewählt.,Energie.,nan,,,,,,,,,,,,,,,,,,,,,,,0,0,0,0,0,6,6,6,,,,,,,,space,1.46003603935,,,,,,2017_Jan_23_1300,59.4134445401,spr_backupper,001,Mo13,
,,,,,,,,,,,,,,,,,,,,,,,,,,,,,,,,,,,,,,,,,,,,,,,,,,,,,,,,,,,,,,,,,,,,,,,,,,,,,,,,,,,,,,,,,,,,,,,,,,,,,,,,,,,,,,,,,,,,,,,,,0,0,0,0,,,,,,,,,,,,,,None,n,8.45267701149,,,2017_Jan_23_1300,59.4134445401,spr_backupper,001,Mo13,
,Viele,Es,In,Ich,Dort,In,Die,Die,Bei,Im,Jetzt,Es,Er,Die,Walter,In,Am,Es,In,Nicht,In,Er,Beträchtliche,Die,Man,Die,Dort,Ihr,Außer,Fernab,Die,Sie,Im,In,Mit,In,Danach,Die,Mit,Sie,Wir,100,Die,Außer,Sie,Wir,Wir,Bei,Dass,Die,Er,Wir,Sie,Manche,Bei,Die,Wir,Das,Es,Die,Die,Er,Der,Wir,Die,Außer,Unter,Man,Es,Wir,Ich,Die,Sie,Ich,Die,Die,Außer,Nicht,Jungtiere,Am,In,Wir,Beträchtliche,Wir,Als,100,Die,Sie,Die,Die,Alle,Bei,Jugendliche,Die,Viele,Er,Die,Sie,,,,,,,,,,,,,,,,,,,,,,,1,0,1,0,0,0,0,0,,,,,,,space,space,0.810073137283,,,,0.704570055008,,2017_Jan_23_1300,59.4134445401,spr_backupper,001,Mo13,
,Tonnen,hat,der,nehme,türmen,den,Autos,Eislaufbahnen,der,Fernrohr,ist,waren,hat,Autos,Scheel,diesem,äußeren,wurden,den,ein,einer,stellt,Stücke,Stücke,machte,müden,türmen,Blutdruck,das,des,Schuhe,verlassen,Fernrohr,der,dieser,meinem,wurde,Schuhe,dieser,hatte,konnten,g,"Uhr,",dem,verlassen,übergaben,haben,unserer,es,Lösung,stellt,haben,verbrauchen,Kreditnehmer,der,Uhr,übergaben,Tuch,wurden,Gäste,Uhr,wurde,Flug,mussten,Kinder,den,keinen,machte,waren,mussten,nehme,Linie,haben,wurde,Kinder,Schule,dem,ein,sollten,äußersten,meinem,hatten,Stücke,hatten,die,g,Gäste,hatte,Uhr,Formen,Betten,unserer,können,Teilnehmerinnen,Tonnen,wurde,Schule,verbrauchen,,,,,,,,,,,,,,,,,,,,,,,1,0,1,0,0,1,1,1,,,,,,,,space,0.637500047684,,,,,,2017_Jan_23_1300,59.4134445401,spr_backupper,001,Mo13,
,gebrauchte,uns,Tat,eine,sich,Kakao,beider,wurden,Feier,sahen,genau,nur,ein,beider,war,Zirkus,Rand,Eimer,Kakao,Tropfen,Studie,die,saftiges,wurden,mal,Teilnehmer,sich,kann,Essen,Rummels,in,wegen,sahen,Tat,Methode,Studium,die,in,Methode,keine,dann,brauner,die,Essen,wegen,das,jede,Ankunft,"regnete,",wird,die,jede,60,sind,Feier,war,dem,wurde,Eimer,suchen,schlug,trotz,zum,uns,fuhren,Bürgermeister,Umständen,mal,nur,uns,eine,101,die,damals,fuhren,verbraucht,Bürgermeister,Tropfen,immer,Rand,Studium,in,saftigen,in,Sonne,braunen,suchen,keine,schlug,wurden,wurden,Ankunft,Kleidung,wussten,gebrauchter,trotz,verbraucht,60,,,,,,,,,,,,,,,,,,,,,,,1,0,1,0,0,2,2,2,,,,,,,,space,1.24531698227,,,,,,2017_Jan_23_1300,59.4134445401,spr_backupper,001,Mo13,
,Kleidung,die,wissen,große,Berge,gehören,beteiligten,mit,gedachte,wir,die,kleinere,Hemd,beteiligter,der,werden,der,rote,gehören,königliches,wurde,Masse,Fleisch,aus,wieder,wurden,Berge,schon,kann,wurde,Größe,dem,wir,wissen,kann,las,Leinwand,Größe,kann,Lust,mit,Zucker,er,kann,des,Auto,Menge,stand,hat,mit,Masse,Menge,Liter,mit,gedachte,aus,Mann,dann,roter,die,"sporadisch,",des,Mond,durch,mit,beschuldigten,können,wieder,kleinere,durch,große,hält,Erlebnisse,schnell,mit,260.000,beschuldigten,königlichen,auf,der,habe,Dänemark,Fleischs,Dänemark,"unterging,",Zuckers,die,Lust,"sporadisch,",unter,mit,stand,bei,überwiegend,Kleidung,dem,260.000,Liter,,,,,,,,,,,,,,,,,,,,,,,1,0,1,0,0,3,3,3,,,,,,,,space,0.717507123947,,,,,,2017_Jan_23_1300,59.4134445401,spr_backupper,001,Mo13,
,landen,Stimmung,wir,Packung,schmutziger,immer,Fahrer,dauerhaftem,man,den,richtige,"Delikte,",aus,Fahrer,vierte,die,Stadt,Farbe,immer,Blut,jetzt,mit,wurden,"wertvollem,",viel,mit,schmutzige,bei,ich,schon,36,schönen,den,wir,man,ich,aus,36,man,auf,"minimalem,",sind,"trug,",ich,schönen,dem,alten,ein,uns,"reichlichem,",mit,alten,sprudelndes,"sämtlichem,",man,"Japan,",das,mit,Farbe,Wohnung,obwohl,bekannten,dauerte,Büschel,solchen,die,Neuwahlen,viel,"Delikte,",Büschel,Packung,nicht,bei,dank,solch,Kilowattstunden,die,Bluts,warmem,Stadt,ich,einen,wurden,gelegentlich,war,sind,Wohnung,auf,obschon,"regelmäßigem,","üblichem,",ein,ausreichendem,"nicht,",landen,bekannten,Kilowattstunden,sprudelnden,,,,,,,,,,,,,,,,,,,,,,,1,0,1,0,0,4,4,4,,,,,,,,space,0.901335000992,,,,,,2017_Jan_23_1300,59.4134445401,spr_backupper,001,Mo13,
,im,ziemlich,von,salziger,Wäsche.,350,wurden,feinem,der,roten,"Zeit,",derer,feinem,wurden,Bundespräsident.,Tiere,liegen,geschleudert.,350,hat,"nachgewiesen,",einem,serviert.,klassischen,Lärm,zusätzlichem,Wäsche.,minimalem,leider,immer,hätten,Wetter,roten,um,eine,mehr,seltenem,würden,eine,noch,sauberen,auf,war,leider,Wetters,Mann,Kram,Glas,die,purem,einem,Krams,Trinkwasser.,künftigem,den,die,Auto,"reichem,",geschleudert.,des,sie,Skandals,ungefähr,frisches,unzureichenden,Störenfriede,vor,Lärm,deren,frischen,salzige,am,"frischem,",täglichem,unzureichenden,elektrischer,Störenfriede,hat,weichem,liegen,mehr,gelegentlichen,serviert.,einen,die,auf,des,noch,sie,kaltem,harten,Glas,monatlichem,was,im,Skandal,elektrische,Trinkwassers.,,,,,,,,,,,,,,,,,,,,,,,1,0,1,0,0,5,5,5,,,,,,,,space,0.670931816101,,,,,,2017_Jan_23_1300,59.4134445401,spr_backupper,001,Mo13,
,Müll.,"vermiest,",den,Wurst,nan,ml,verschrottet.,Kunsteis,Soldaten,Planeten,um,sie,dichten,verschrottet.,nan,artgerecht,die,nan,ml,den,dass,Esslöffel,nan,Schmuck,um,schwarzem,nan,täglichen,nichts,ruhig,seiner,die,Planet,die,große,als,dichten,seiner,große,eine,Kraftstoff,jeden,aus,nichts,die,mehr,aus,köstlicher,Stimmung,Alkohol,Esslöffel,aus,nan,Einkommen,Soldaten,er,mehr,goldenen,nan,Herrn,defekt,wiedergewählt.,drei,Gras,Helmen,jeden.,Dezember,um,sie,Grases,Wurst,Hauptbahnhof.,kaltem,grünen,Helmen,Energie.,jeden.,den,Untergrund,die,als,Besucher.,nan,Besucher.,Flut,jeden,Herrn,eine,defekt,Abduschen,Schaumstoff,köstlichen,Taschengeld,Tupperware,Müll.,wiedergewählt.,Energie.,nan,,,,,,,,,,,,,,,,,,,,,,,1,0,1,0,0,6,6,6,,,,,,,,space,0.990385055542,,,,,,2017_Jan_23_1300,59.4134445401,spr_backupper,001,Mo13,
,nan,dass,Problemen,mit,nan,warme,nan,eingesprüht.,des,ganz,Nadelhölzer,überführt,Stoff,nan,nan,gehalten.,Slums.,nan,warmer,Boden,das,warmen,nan,umgearbeitet.,jede,Kaffee,nan,Einsatz,mitbringen.,diskutiert.,Frau,Wohnung.,ganz,Probleme,Menge,einmal,Gewebe,Frau,Menge,Sammlung,fahren.,Fall,Japan.,mitbringen.,Wohnung.,als,dem,Wein,ziemlich,verdünnt.,warmem,dem,nan,haftbar.,des,trug.,als,Besatz,nan,Gantenbeins.,war.,nan,Tage.,zwängen.,zur,nan,stattfinden.,jede,überführt,zwängen.,mit,nan,Saft,Tee,zur,nan,nan,Boden,liegen.,Slums.,einmal,nan,nan,nan,zurückgekehrt.,Fall,Gantenbein.,Sammlung,war.,gehärtet.,gefertigt.,Weins,selber,ist.,nan,nan,nan,nan,,,,,,,,,,,,,,,,,,,,,,,1,0,1,0,0,7,7,7,,,,,,,,space,0.625696182251,,,,,,2017_Jan_23_1300,59.4134445401,spr_backupper,001,Mo13,
,nan,es,im,an,nan,Milch.,nan,nan,zweiten,deutlich.,umzusetzen.,wurden.,gefertigt.,nan,nan,nan,nan,nan,Milch.,berührt.,Medikament,Honigs,nan,nan,Menge,wiederbelebt.,nan,sinken.,nan,nan,gepasst.,nan,deutlich.,im,dunkler,Rilke.,wiederhergestellt.,gepasst,dunkle,dumme,nan,genug.,nan,nan,nan,gerne.,Haus,schon,vermiest.,nan,Honig,Haus,nan,nan,zweiten,nan,gerne.,rekonstruiert.,nan,nan,nan,nan,nan,nan,Schule.,nan,nan,Menge,wurden.,nan,an,nan,besprochen.,wieder,Schule.,nan,nan,berührt.,nan,nan,Rilke,nan,nan,nan,nan,genug.,nan,dummer,nan,nan,nan,schon,kaufen.,nan,nan,nan,nan,nan,,,,,,,,,,,,,,,,,,,,,,,1,0,1,0,0,8,8,8,,,,,,,,space,1.05125784874,,,,,,2017_Jan_23_1300,59.4134445401,spr_backupper,001,Mo13,
,,,,,,,,,,,,,,,,,,,,,,,,,,,,,,,,,,,,,,,,,,,,,,,,,,,,,,,,,,,,,,,,,,,,,,,,,,,,,,,,,,,,,,,,,,,,,,,,,,,,,,,,,,,,,,,,,,,,,,,,,1,0,1,0,,,,,,,,,,,,,,None,n,9.99500608444,,,2017_Jan_23_1300,59.4134445401,spr_backupper,001,Mo13,
,Viele,Es,In,Ich,Dort,In,Die,Die,Bei,Im,Jetzt,Es,Er,Die,Walter,In,Am,Es,In,Nicht,In,Er,Beträchtliche,Die,Man,Die,Dort,Ihr,Außer,Fernab,Die,Sie,Im,In,Mit,In,Danach,Die,Mit,Sie,Wir,100,Die,Außer,Sie,Wir,Wir,Bei,Dass,Die,Er,Wir,Sie,Manche,Bei,Die,Wir,Das,Es,Die,Die,Er,Der,Wir,Die,Außer,Unter,Man,Es,Wir,Ich,Die,Sie,Ich,Die,Die,Außer,Nicht,Jungtiere,Am,In,Wir,Beträchtliche,Wir,Als,100,Die,Sie,Die,Die,Alle,Bei,Jugendliche,Die,Viele,Er,Die,Sie,,,,,,,,,,,,,,,,,,,,,,,2,0,2,0,0,0,0,0,,,,,,,space,space,0.706055879593,,,,1.10677814484,,2017_Jan_23_1300,59.4134445401,spr_backupper,001,Mo13,
,Tonnen,hat,der,nehme,türmen,den,Autos,Eislaufbahnen,der,Fernrohr,ist,waren,hat,Autos,Scheel,diesem,äußeren,wurden,den,ein,einer,stellt,Stücke,Stücke,machte,müden,türmen,Blutdruck,das,des,Schuhe,verlassen,Fernrohr,der,dieser,meinem,wurde,Schuhe,dieser,hatte,konnten,g,"Uhr,",dem,verlassen,übergaben,haben,unserer,es,Lösung,stellt,haben,verbrauchen,Kreditnehmer,der,Uhr,übergaben,Tuch,wurden,Gäste,Uhr,wurde,Flug,mussten,Kinder,den,keinen,machte,waren,mussten,nehme,Linie,haben,wurde,Kinder,Schule,dem,ein,sollten,äußersten,meinem,hatten,Stücke,hatten,die,g,Gäste,hatte,Uhr,Formen,Betten,unserer,können,Teilnehmerinnen,Tonnen,wurde,Schule,verbrauchen,,,,,,,,,,,,,,,,,,,,,,,2,0,2,0,0,1,1,1,,,,,,,,space,0.525676012039,,,,,,2017_Jan_23_1300,59.4134445401,spr_backupper,001,Mo13,
,gebrauchte,uns,Tat,eine,sich,Kakao,beider,wurden,Feier,sahen,genau,nur,ein,beider,war,Zirkus,Rand,Eimer,Kakao,Tropfen,Studie,die,saftiges,wurden,mal,Teilnehmer,sich,kann,Essen,Rummels,in,wegen,sahen,Tat,Methode,Studium,die,in,Methode,keine,dann,brauner,die,Essen,wegen,das,jede,Ankunft,"regnete,",wird,die,jede,60,sind,Feier,war,dem,wurde,Eimer,suchen,schlug,trotz,zum,uns,fuhren,Bürgermeister,Umständen,mal,nur,uns,eine,101,die,damals,fuhren,verbraucht,Bürgermeister,Tropfen,immer,Rand,Studium,in,saftigen,in,Sonne,braunen,suchen,keine,schlug,wurden,wurden,Ankunft,Kleidung,wussten,gebrauchter,trotz,verbraucht,60,,,,,,,,,,,,,,,,,,,,,,,2,0,2,0,0,2,2,2,,,,,,,,space,0.487260103226,,,,,,2017_Jan_23_1300,59.4134445401,spr_backupper,001,Mo13,
,Kleidung,die,wissen,große,Berge,gehören,beteiligten,mit,gedachte,wir,die,kleinere,Hemd,beteiligter,der,werden,der,rote,gehören,königliches,wurde,Masse,Fleisch,aus,wieder,wurden,Berge,schon,kann,wurde,Größe,dem,wir,wissen,kann,las,Leinwand,Größe,kann,Lust,mit,Zucker,er,kann,des,Auto,Menge,stand,hat,mit,Masse,Menge,Liter,mit,gedachte,aus,Mann,dann,roter,die,"sporadisch,",des,Mond,durch,mit,beschuldigten,können,wieder,kleinere,durch,große,hält,Erlebnisse,schnell,mit,260.000,beschuldigten,königlichen,auf,der,habe,Dänemark,Fleischs,Dänemark,"unterging,",Zuckers,die,Lust,"sporadisch,",unter,mit,stand,bei,überwiegend,Kleidung,dem,260.000,Liter,,,,,,,,,,,,,,,,,,,,,,,2,0,2,0,0,3,3,3,,,,,,,,space,0.502259969711,,,,,,2017_Jan_23_1300,59.4134445401,spr_backupper,001,Mo13,
,landen,Stimmung,wir,Packung,schmutziger,immer,Fahrer,dauerhaftem,man,den,richtige,"Delikte,",aus,Fahrer,vierte,die,Stadt,Farbe,immer,Blut,jetzt,mit,wurden,"wertvollem,",viel,mit,schmutzige,bei,ich,schon,36,schönen,den,wir,man,ich,aus,36,man,auf,"minimalem,",sind,"trug,",ich,schönen,dem,alten,ein,uns,"reichlichem,",mit,alten,sprudelndes,"sämtlichem,",man,"Japan,",das,mit,Farbe,Wohnung,obwohl,bekannten,dauerte,Büschel,solchen,die,Neuwahlen,viel,"Delikte,",Büschel,Packung,nicht,bei,dank,solch,Kilowattstunden,die,Bluts,warmem,Stadt,ich,einen,wurden,gelegentlich,war,sind,Wohnung,auf,obschon,"regelmäßigem,","üblichem,",ein,ausreichendem,"nicht,",landen,bekannten,Kilowattstunden,sprudelnden,,,,,,,,,,,,,,,,,,,,,,,2,0,2,0,0,4,4,4,,,,,,,,space,0.567654132843,,,,,,2017_Jan_23_1300,59.4134445401,spr_backupper,001,Mo13,
,im,ziemlich,von,salziger,Wäsche.,350,wurden,feinem,der,roten,"Zeit,",derer,feinem,wurden,Bundespräsident.,Tiere,liegen,geschleudert.,350,hat,"nachgewiesen,",einem,serviert.,klassischen,Lärm,zusätzlichem,Wäsche.,minimalem,leider,immer,hätten,Wetter,roten,um,eine,mehr,seltenem,würden,eine,noch,sauberen,auf,war,leider,Wetters,Mann,Kram,Glas,die,purem,einem,Krams,Trinkwasser.,künftigem,den,die,Auto,"reichem,",geschleudert.,des,sie,Skandals,ungefähr,frisches,unzureichenden,Störenfriede,vor,Lärm,deren,frischen,salzige,am,"frischem,",täglichem,unzureichenden,elektrischer,Störenfriede,hat,weichem,liegen,mehr,gelegentlichen,serviert.,einen,die,auf,des,noch,sie,kaltem,harten,Glas,monatlichem,was,im,Skandal,elektrische,Trinkwassers.,,,,,,,,,,,,,,,,,,,,,,,2,0,2,0,0,5,5,5,,,,,,,,space,2.85892605782,,,,,,2017_Jan_23_1300,59.4134445401,spr_backupper,001,Mo13,
,,,,,,,,,,,,,,,,,,,,,,,,,,,,,,,,,,,,,,,,,,,,,,,,,,,,,,,,,,,,,,,,,,,,,,,,,,,,,,,,,,,,,,,,,,,,,,,,,,,,,,,,,,,,,,,,,,,,,,,,,2,0,2,0,,,,,,,,,,,,,,None,n,5.31533002853,,,2017_Jan_23_1300,59.4134445401,spr_backupper,001,Mo13,
,Viele,Es,In,Ich,Dort,In,Die,Die,Bei,Im,Jetzt,Es,Er,Die,Walter,In,Am,Es,In,Nicht,In,Er,Beträchtliche,Die,Man,Die,Dort,Ihr,Außer,Fernab,Die,Sie,Im,In,Mit,In,Danach,Die,Mit,Sie,Wir,100,Die,Außer,Sie,Wir,Wir,Bei,Dass,Die,Er,Wir,Sie,Manche,Bei,Die,Wir,Das,Es,Die,Die,Er,Der,Wir,Die,Außer,Unter,Man,Es,Wir,Ich,Die,Sie,Ich,Die,Die,Außer,Nicht,Jungtiere,Am,In,Wir,Beträchtliche,Wir,Als,100,Die,Sie,Die,Die,Alle,Bei,Jugendliche,Die,Viele,Er,Die,Sie,,,,,,,,,,,,,,,,,,,,,,,3,0,3,0,0,0,0,0,,,,,,,space,space,0.46847486496,,,,0.655195951462,,2017_Jan_23_1300,59.4134445401,spr_backupper,001,Mo13,
,Tonnen,hat,der,nehme,türmen,den,Autos,Eislaufbahnen,der,Fernrohr,ist,waren,hat,Autos,Scheel,diesem,äußeren,wurden,den,ein,einer,stellt,Stücke,Stücke,machte,müden,türmen,Blutdruck,das,des,Schuhe,verlassen,Fernrohr,der,dieser,meinem,wurde,Schuhe,dieser,hatte,konnten,g,"Uhr,",dem,verlassen,übergaben,haben,unserer,es,Lösung,stellt,haben,verbrauchen,Kreditnehmer,der,Uhr,übergaben,Tuch,wurden,Gäste,Uhr,wurde,Flug,mussten,Kinder,den,keinen,machte,waren,mussten,nehme,Linie,haben,wurde,Kinder,Schule,dem,ein,sollten,äußersten,meinem,hatten,Stücke,hatten,die,g,Gäste,hatte,Uhr,Formen,Betten,unserer,können,Teilnehmerinnen,Tonnen,wurde,Schule,verbrauchen,,,,,,,,,,,,,,,,,,,,,,,3,0,3,0,0,1,1,1,,,,,,,,space,0.424278974533,,,,,,2017_Jan_23_1300,59.4134445401,spr_backupper,001,Mo13,
,gebrauchte,uns,Tat,eine,sich,Kakao,beider,wurden,Feier,sahen,genau,nur,ein,beider,war,Zirkus,Rand,Eimer,Kakao,Tropfen,Studie,die,saftiges,wurden,mal,Teilnehmer,sich,kann,Essen,Rummels,in,wegen,sahen,Tat,Methode,Studium,die,in,Methode,keine,dann,brauner,die,Essen,wegen,das,jede,Ankunft,"regnete,",wird,die,jede,60,sind,Feier,war,dem,wurde,Eimer,suchen,schlug,trotz,zum,uns,fuhren,Bürgermeister,Umständen,mal,nur,uns,eine,101,die,damals,fuhren,verbraucht,Bürgermeister,Tropfen,immer,Rand,Studium,in,saftigen,in,Sonne,braunen,suchen,keine,schlug,wurden,wurden,Ankunft,Kleidung,wussten,gebrauchter,trotz,verbraucht,60,,,,,,,,,,,,,,,,,,,,,,,3,0,3,0,0,2,2,2,,,,,,,,space,0.448335886002,,,,,,2017_Jan_23_1300,59.4134445401,spr_backupper,001,Mo13,
,Kleidung,die,wissen,große,Berge,gehören,beteiligten,mit,gedachte,wir,die,kleinere,Hemd,beteiligter,der,werden,der,rote,gehören,königliches,wurde,Masse,Fleisch,aus,wieder,wurden,Berge,schon,kann,wurde,Größe,dem,wir,wissen,kann,las,Leinwand,Größe,kann,Lust,mit,Zucker,er,kann,des,Auto,Menge,stand,hat,mit,Masse,Menge,Liter,mit,gedachte,aus,Mann,dann,roter,die,"sporadisch,",des,Mond,durch,mit,beschuldigten,können,wieder,kleinere,durch,große,hält,Erlebnisse,schnell,mit,260.000,beschuldigten,königlichen,auf,der,habe,Dänemark,Fleischs,Dänemark,"unterging,",Zuckers,die,Lust,"sporadisch,",unter,mit,stand,bei,überwiegend,Kleidung,dem,260.000,Liter,,,,,,,,,,,,,,,,,,,,,,,3,0,3,0,0,3,3,3,,,,,,,,space,0.419759988785,,,,,,2017_Jan_23_1300,59.4134445401,spr_backupper,001,Mo13,
,landen,Stimmung,wir,Packung,schmutziger,immer,Fahrer,dauerhaftem,man,den,richtige,"Delikte,",aus,Fahrer,vierte,die,Stadt,Farbe,immer,Blut,jetzt,mit,wurden,"wertvollem,",viel,mit,schmutzige,bei,ich,schon,36,schönen,den,wir,man,ich,aus,36,man,auf,"minimalem,",sind,"trug,",ich,schönen,dem,alten,ein,uns,"reichlichem,",mit,alten,sprudelndes,"sämtlichem,",man,"Japan,",das,mit,Farbe,Wohnung,obwohl,bekannten,dauerte,Büschel,solchen,die,Neuwahlen,viel,"Delikte,",Büschel,Packung,nicht,bei,dank,solch,Kilowattstunden,die,Bluts,warmem,Stadt,ich,einen,wurden,gelegentlich,war,sind,Wohnung,auf,obschon,"regelmäßigem,","üblichem,",ein,ausreichendem,"nicht,",landen,bekannten,Kilowattstunden,sprudelnden,,,,,,,,,,,,,,,,,,,,,,,3,0,3,0,0,4,4,4,,,,,,,,space,0.375938892365,,,,,,2017_Jan_23_1300,59.4134445401,spr_backupper,001,Mo13,
,im,ziemlich,von,salziger,Wäsche.,350,wurden,feinem,der,roten,"Zeit,",derer,feinem,wurden,Bundespräsident.,Tiere,liegen,geschleudert.,350,hat,"nachgewiesen,",einem,serviert.,klassischen,Lärm,zusätzlichem,Wäsche.,minimalem,leider,immer,hätten,Wetter,roten,um,eine,mehr,seltenem,würden,eine,noch,sauberen,auf,war,leider,Wetters,Mann,Kram,Glas,die,purem,einem,Krams,Trinkwasser.,künftigem,den,die,Auto,"reichem,",geschleudert.,des,sie,Skandals,ungefähr,frisches,unzureichenden,Störenfriede,vor,Lärm,deren,frischen,salzige,am,"frischem,",täglichem,unzureichenden,elektrischer,Störenfriede,hat,weichem,liegen,mehr,gelegentlichen,serviert.,einen,die,auf,des,noch,sie,kaltem,harten,Glas,monatlichem,was,im,Skandal,elektrische,Trinkwassers.,,,,,,,,,,,,,,,,,,,,,,,3,0,3,0,0,5,5,5,,,,,,,,space,0.402657985687,,,,,,2017_Jan_23_1300,59.4134445401,spr_backupper,001,Mo13,
,Müll.,"vermiest,",den,Wurst,nan,ml,verschrottet.,Kunsteis,Soldaten,Planeten,um,sie,dichten,verschrottet.,nan,artgerecht,die,nan,ml,den,dass,Esslöffel,nan,Schmuck,um,schwarzem,nan,täglichen,nichts,ruhig,seiner,die,Planet,die,große,als,dichten,seiner,große,eine,Kraftstoff,jeden,aus,nichts,die,mehr,aus,köstlicher,Stimmung,Alkohol,Esslöffel,aus,nan,Einkommen,Soldaten,er,mehr,goldenen,nan,Herrn,defekt,wiedergewählt.,drei,Gras,Helmen,jeden.,Dezember,um,sie,Grases,Wurst,Hauptbahnhof.,kaltem,grünen,Helmen,Energie.,jeden.,den,Untergrund,die,als,Besucher.,nan,Besucher.,Flut,jeden,Herrn,eine,defekt,Abduschen,Schaumstoff,köstlichen,Taschengeld,Tupperware,Müll.,wiedergewählt.,Energie.,nan,,,,,,,,,,,,,,,,,,,,,,,3,0,3,0,0,6,6,6,,,,,,,,space,0.376185894012,,,,,,2017_Jan_23_1300,59.4134445401,spr_backupper,001,Mo13,
,nan,dass,Problemen,mit,nan,warme,nan,eingesprüht.,des,ganz,Nadelhölzer,überführt,Stoff,nan,nan,gehalten.,Slums.,nan,warmer,Boden,das,warmen,nan,umgearbeitet.,jede,Kaffee,nan,Einsatz,mitbringen.,diskutiert.,Frau,Wohnung.,ganz,Probleme,Menge,einmal,Gewebe,Frau,Menge,Sammlung,fahren.,Fall,Japan.,mitbringen.,Wohnung.,als,dem,Wein,ziemlich,verdünnt.,warmem,dem,nan,haftbar.,des,trug.,als,Besatz,nan,Gantenbeins.,war.,nan,Tage.,zwängen.,zur,nan,stattfinden.,jede,überführt,zwängen.,mit,nan,Saft,Tee,zur,nan,nan,Boden,liegen.,Slums.,einmal,nan,nan,nan,zurückgekehrt.,Fall,Gantenbein.,Sammlung,war.,gehärtet.,gefertigt.,Weins,selber,ist.,nan,nan,nan,nan,,,,,,,,,,,,,,,,,,,,,,,3,0,3,0,0,7,7,7,,,,,,,,space,0.501754045486,,,,,,2017_Jan_23_1300,59.4134445401,spr_backupper,001,Mo13,
,nan,es,im,an,nan,Milch.,nan,nan,zweiten,deutlich.,umzusetzen.,wurden.,gefertigt.,nan,nan,nan,nan,nan,Milch.,berührt.,Medikament,Honigs,nan,nan,Menge,wiederbelebt.,nan,sinken.,nan,nan,gepasst.,nan,deutlich.,im,dunkler,Rilke.,wiederhergestellt.,gepasst,dunkle,dumme,nan,genug.,nan,nan,nan,gerne.,Haus,schon,vermiest.,nan,Honig,Haus,nan,nan,zweiten,nan,gerne.,rekonstruiert.,nan,nan,nan,nan,nan,nan,Schule.,nan,nan,Menge,wurden.,nan,an,nan,besprochen.,wieder,Schule.,nan,nan,berührt.,nan,nan,Rilke,nan,nan,nan,nan,genug.,nan,dummer,nan,nan,nan,schon,kaufen.,nan,nan,nan,nan,nan,,,,,,,,,,,,,,,,,,,,,,,3,0,3,0,0,8,8,8,,,,,,,,space,1.22495412827,,,,,,2017_Jan_23_1300,59.4134445401,spr_backupper,001,Mo13,
,,,,,,,,,,,,,,,,,,,,,,,,,,,,,,,,,,,,,,,,,,,,,,,,,,,,,,,,,,,,,,,,,,,,,,,,,,,,,,,,,,,,,,,,,,,,,,,,,,,,,,,,,,,,,,,,,,,,,,,,,3,0,3,0,,,,,,,,,,,,,,None,j,1.96206593513,,,2017_Jan_23_1300,59.4134445401,spr_backupper,001,Mo13,
,Viele,Es,In,Ich,Dort,In,Die,Die,Bei,Im,Jetzt,Es,Er,Die,Walter,In,Am,Es,In,Nicht,In,Er,Beträchtliche,Die,Man,Die,Dort,Ihr,Außer,Fernab,Die,Sie,Im,In,Mit,In,Danach,Die,Mit,Sie,Wir,100,Die,Außer,Sie,Wir,Wir,Bei,Dass,Die,Er,Wir,Sie,Manche,Bei,Die,Wir,Das,Es,Die,Die,Er,Der,Wir,Die,Außer,Unter,Man,Es,Wir,Ich,Die,Sie,Ich,Die,Die,Außer,Nicht,Jungtiere,Am,In,Wir,Beträchtliche,Wir,Als,100,Die,Sie,Die,Die,Alle,Bei,Jugendliche,Die,Viele,Er,Die,Sie,,,,,,,,,,,,,,,,,,,,,,,4,0,4,0,0,0,0,0,,,,,,,space,space,2.76781606674,,,,0.638487100601,,2017_Jan_23_1300,59.4134445401,spr_backupper,001,Mo13,
,Tonnen,hat,der,nehme,türmen,den,Autos,Eislaufbahnen,der,Fernrohr,ist,waren,hat,Autos,Scheel,diesem,äußeren,wurden,den,ein,einer,stellt,Stücke,Stücke,machte,müden,türmen,Blutdruck,das,des,Schuhe,verlassen,Fernrohr,der,dieser,meinem,wurde,Schuhe,dieser,hatte,konnten,g,"Uhr,",dem,verlassen,übergaben,haben,unserer,es,Lösung,stellt,haben,verbrauchen,Kreditnehmer,der,Uhr,übergaben,Tuch,wurden,Gäste,Uhr,wurde,Flug,mussten,Kinder,den,keinen,machte,waren,mussten,nehme,Linie,haben,wurde,Kinder,Schule,dem,ein,sollten,äußersten,meinem,hatten,Stücke,hatten,die,g,Gäste,hatte,Uhr,Formen,Betten,unserer,können,Teilnehmerinnen,Tonnen,wurde,Schule,verbrauchen,,,,,,,,,,,,,,,,,,,,,,,4,0,4,0,0,1,1,1,,,,,,,,space,0.409707069397,,,,,,2017_Jan_23_1300,59.4134445401,spr_backupper,001,Mo13,
,gebrauchte,uns,Tat,eine,sich,Kakao,beider,wurden,Feier,sahen,genau,nur,ein,beider,war,Zirkus,Rand,Eimer,Kakao,Tropfen,Studie,die,saftiges,wurden,mal,Teilnehmer,sich,kann,Essen,Rummels,in,wegen,sahen,Tat,Methode,Studium,die,in,Methode,keine,dann,brauner,die,Essen,wegen,das,jede,Ankunft,"regnete,",wird,die,jede,60,sind,Feier,war,dem,wurde,Eimer,suchen,schlug,trotz,zum,uns,fuhren,Bürgermeister,Umständen,mal,nur,uns,eine,101,die,damals,fuhren,verbraucht,Bürgermeister,Tropfen,immer,Rand,Studium,in,saftigen,in,Sonne,braunen,suchen,keine,schlug,wurden,wurden,Ankunft,Kleidung,wussten,gebrauchter,trotz,verbraucht,60,,,,,,,,,,,,,,,,,,,,,,,4,0,4,0,0,2,2,2,,,,,,,,space,0.863932132721,,,,,,2017_Jan_23_1300,59.4134445401,spr_backupper,001,Mo13,
,Kleidung,die,wissen,große,Berge,gehören,beteiligten,mit,gedachte,wir,die,kleinere,Hemd,beteiligter,der,werden,der,rote,gehören,königliches,wurde,Masse,Fleisch,aus,wieder,wurden,Berge,schon,kann,wurde,Größe,dem,wir,wissen,kann,las,Leinwand,Größe,kann,Lust,mit,Zucker,er,kann,des,Auto,Menge,stand,hat,mit,Masse,Menge,Liter,mit,gedachte,aus,Mann,dann,roter,die,"sporadisch,",des,Mond,durch,mit,beschuldigten,können,wieder,kleinere,durch,große,hält,Erlebnisse,schnell,mit,260.000,beschuldigten,königlichen,auf,der,habe,Dänemark,Fleischs,Dänemark,"unterging,",Zuckers,die,Lust,"sporadisch,",unter,mit,stand,bei,überwiegend,Kleidung,dem,260.000,Liter,,,,,,,,,,,,,,,,,,,,,,,4,0,4,0,0,3,3,3,,,,,,,,space,0.453430891037,,,,,,2017_Jan_23_1300,59.4134445401,spr_backupper,001,Mo13,
,landen,Stimmung,wir,Packung,schmutziger,immer,Fahrer,dauerhaftem,man,den,richtige,"Delikte,",aus,Fahrer,vierte,die,Stadt,Farbe,immer,Blut,jetzt,mit,wurden,"wertvollem,",viel,mit,schmutzige,bei,ich,schon,36,schönen,den,wir,man,ich,aus,36,man,auf,"minimalem,",sind,"trug,",ich,schönen,dem,alten,ein,uns,"reichlichem,",mit,alten,sprudelndes,"sämtlichem,",man,"Japan,",das,mit,Farbe,Wohnung,obwohl,bekannten,dauerte,Büschel,solchen,die,Neuwahlen,viel,"Delikte,",Büschel,Packung,nicht,bei,dank,solch,Kilowattstunden,die,Bluts,warmem,Stadt,ich,einen,wurden,gelegentlich,war,sind,Wohnung,auf,obschon,"regelmäßigem,","üblichem,",ein,ausreichendem,"nicht,",landen,bekannten,Kilowattstunden,sprudelnden,,,,,,,,,,,,,,,,,,,,,,,4,0,4,0,0,4,4,4,,,,,,,,space,0.550014019012,,,,,,2017_Jan_23_1300,59.4134445401,spr_backupper,001,Mo13,
,im,ziemlich,von,salziger,Wäsche.,350,wurden,feinem,der,roten,"Zeit,",derer,feinem,wurden,Bundespräsident.,Tiere,liegen,geschleudert.,350,hat,"nachgewiesen,",einem,serviert.,klassischen,Lärm,zusätzlichem,Wäsche.,minimalem,leider,immer,hätten,Wetter,roten,um,eine,mehr,seltenem,würden,eine,noch,sauberen,auf,war,leider,Wetters,Mann,Kram,Glas,die,purem,einem,Krams,Trinkwasser.,künftigem,den,die,Auto,"reichem,",geschleudert.,des,sie,Skandals,ungefähr,frisches,unzureichenden,Störenfriede,vor,Lärm,deren,frischen,salzige,am,"frischem,",täglichem,unzureichenden,elektrischer,Störenfriede,hat,weichem,liegen,mehr,gelegentlichen,serviert.,einen,die,auf,des,noch,sie,kaltem,harten,Glas,monatlichem,was,im,Skandal,elektrische,Trinkwassers.,,,,,,,,,,,,,,,,,,,,,,,4,0,4,0,0,5,5,5,,,,,,,,space,0.493955850601,,,,,,2017_Jan_23_1300,59.4134445401,spr_backupper,001,Mo13,
,Müll.,"vermiest,",den,Wurst,nan,ml,verschrottet.,Kunsteis,Soldaten,Planeten,um,sie,dichten,verschrottet.,nan,artgerecht,die,nan,ml,den,dass,Esslöffel,nan,Schmuck,um,schwarzem,nan,täglichen,nichts,ruhig,seiner,die,Planet,die,große,als,dichten,seiner,große,eine,Kraftstoff,jeden,aus,nichts,die,mehr,aus,köstlicher,Stimmung,Alkohol,Esslöffel,aus,nan,Einkommen,Soldaten,er,mehr,goldenen,nan,Herrn,defekt,wiedergewählt.,drei,Gras,Helmen,jeden.,Dezember,um,sie,Grases,Wurst,Hauptbahnhof.,kaltem,grünen,Helmen,Energie.,jeden.,den,Untergrund,die,als,Besucher.,nan,Besucher.,Flut,jeden,Herrn,eine,defekt,Abduschen,Schaumstoff,köstlichen,Taschengeld,Tupperware,Müll.,wiedergewählt.,Energie.,nan,,,,,,,,,,,,,,,,,,,,,,,4,0,4,0,0,6,6,6,,,,,,,,space,0.527075052261,,,,,,2017_Jan_23_1300,59.4134445401,spr_backupper,001,Mo13,
,nan,dass,Problemen,mit,nan,warme,nan,eingesprüht.,des,ganz,Nadelhölzer,überführt,Stoff,nan,nan,gehalten.,Slums.,nan,warmer,Boden,das,warmen,nan,umgearbeitet.,jede,Kaffee,nan,Einsatz,mitbringen.,diskutiert.,Frau,Wohnung.,ganz,Probleme,Menge,einmal,Gewebe,Frau,Menge,Sammlung,fahren.,Fall,Japan.,mitbringen.,Wohnung.,als,dem,Wein,ziemlich,verdünnt.,warmem,dem,nan,haftbar.,des,trug.,als,Besatz,nan,Gantenbeins.,war.,nan,Tage.,zwängen.,zur,nan,stattfinden.,jede,überführt,zwängen.,mit,nan,Saft,Tee,zur,nan,nan,Boden,liegen.,Slums.,einmal,nan,nan,nan,zurückgekehrt.,Fall,Gantenbein.,Sammlung,war.,gehärtet.,gefertigt.,Weins,selber,ist.,nan,nan,nan,nan,,,,,,,,,,,,,,,,,,,,,,,4,0,4,0,0,7,7,7,,,,,,,,space,0.939604997635,,,,,,2017_Jan_23_1300,59.4134445401,spr_backupper,001,Mo13,
,nan,es,im,an,nan,Milch.,nan,nan,zweiten,deutlich.,umzusetzen.,wurden.,gefertigt.,nan,nan,nan,nan,nan,Milch.,berührt.,Medikament,Honigs,nan,nan,Menge,wiederbelebt.,nan,sinken.,nan,nan,gepasst.,nan,deutlich.,im,dunkler,Rilke.,wiederhergestellt.,gepasst,dunkle,dumme,nan,genug.,nan,nan,nan,gerne.,Haus,schon,vermiest.,nan,Honig,Haus,nan,nan,zweiten,nan,gerne.,rekonstruiert.,nan,nan,nan,nan,nan,nan,Schule.,nan,nan,Menge,wurden.,nan,an,nan,besprochen.,wieder,Schule.,nan,nan,berührt.,nan,nan,Rilke,nan,nan,nan,nan,genug.,nan,dummer,nan,nan,nan,schon,kaufen.,nan,nan,nan,nan,nan,,,,,,,,,,,,,,,,,,,,,,,4,0,4,0,0,8,8,8,,,,,,,,space,1.11126184464,,,,,,2017_Jan_23_1300,59.4134445401,spr_backupper,001,Mo13,
,,,,,,,,,,,,,,,,,,,,,,,,,,,,,,,,,,,,,,,,,,,,,,,,,,,,,,,,,,,,,,,,,,,,,,,,,,,,,,,,,,,,,,,,,,,,,,,,,,,,,,,,,,,,,,,,,,,,,,,,,4,0,4,0,,,,,,,,,,,,,,None,j,3.00017309189,,,2017_Jan_23_1300,59.4134445401,spr_backupper,001,Mo13,
,Viele,Es,In,Ich,Dort,In,Die,Die,Bei,Im,Jetzt,Es,Er,Die,Walter,In,Am,Es,In,Nicht,In,Er,Beträchtliche,Die,Man,Die,Dort,Ihr,Außer,Fernab,Die,Sie,Im,In,Mit,In,Danach,Die,Mit,Sie,Wir,100,Die,Außer,Sie,Wir,Wir,Bei,Dass,Die,Er,Wir,Sie,Manche,Bei,Die,Wir,Das,Es,Die,Die,Er,Der,Wir,Die,Außer,Unter,Man,Es,Wir,Ich,Die,Sie,Ich,Die,Die,Außer,Nicht,Jungtiere,Am,In,Wir,Beträchtliche,Wir,Als,100,Die,Sie,Die,Die,Alle,Bei,Jugendliche,Die,Viele,Er,Die,Sie,,,,,,,,,,,,,,,,,,,,,,,5,0,5,0,0,0,0,0,,,,,,,space,space,0.534506082535,,,,0.80517411232,,2017_Jan_23_1300,59.4134445401,spr_backupper,001,Mo13,
,Tonnen,hat,der,nehme,türmen,den,Autos,Eislaufbahnen,der,Fernrohr,ist,waren,hat,Autos,Scheel,diesem,äußeren,wurden,den,ein,einer,stellt,Stücke,Stücke,machte,müden,türmen,Blutdruck,das,des,Schuhe,verlassen,Fernrohr,der,dieser,meinem,wurde,Schuhe,dieser,hatte,konnten,g,"Uhr,",dem,verlassen,übergaben,haben,unserer,es,Lösung,stellt,haben,verbrauchen,Kreditnehmer,der,Uhr,übergaben,Tuch,wurden,Gäste,Uhr,wurde,Flug,mussten,Kinder,den,keinen,machte,waren,mussten,nehme,Linie,haben,wurde,Kinder,Schule,dem,ein,sollten,äußersten,meinem,hatten,Stücke,hatten,die,g,Gäste,hatte,Uhr,Formen,Betten,unserer,können,Teilnehmerinnen,Tonnen,wurde,Schule,verbrauchen,,,,,,,,,,,,,,,,,,,,,,,5,0,5,0,0,1,1,1,,,,,,,,space,0.56769490242,,,,,,2017_Jan_23_1300,59.4134445401,spr_backupper,001,Mo13,
,gebrauchte,uns,Tat,eine,sich,Kakao,beider,wurden,Feier,sahen,genau,nur,ein,beider,war,Zirkus,Rand,Eimer,Kakao,Tropfen,Studie,die,saftiges,wurden,mal,Teilnehmer,sich,kann,Essen,Rummels,in,wegen,sahen,Tat,Methode,Studium,die,in,Methode,keine,dann,brauner,die,Essen,wegen,das,jede,Ankunft,"regnete,",wird,die,jede,60,sind,Feier,war,dem,wurde,Eimer,suchen,schlug,trotz,zum,uns,fuhren,Bürgermeister,Umständen,mal,nur,uns,eine,101,die,damals,fuhren,verbraucht,Bürgermeister,Tropfen,immer,Rand,Studium,in,saftigen,in,Sonne,braunen,suchen,keine,schlug,wurden,wurden,Ankunft,Kleidung,wussten,gebrauchter,trotz,verbraucht,60,,,,,,,,,,,,,,,,,,,,,,,5,0,5,0,0,2,2,2,,,,,,,,space,0.501806020737,,,,,,2017_Jan_23_1300,59.4134445401,spr_backupper,001,Mo13,
,Kleidung,die,wissen,große,Berge,gehören,beteiligten,mit,gedachte,wir,die,kleinere,Hemd,beteiligter,der,werden,der,rote,gehören,königliches,wurde,Masse,Fleisch,aus,wieder,wurden,Berge,schon,kann,wurde,Größe,dem,wir,wissen,kann,las,Leinwand,Größe,kann,Lust,mit,Zucker,er,kann,des,Auto,Menge,stand,hat,mit,Masse,Menge,Liter,mit,gedachte,aus,Mann,dann,roter,die,"sporadisch,",des,Mond,durch,mit,beschuldigten,können,wieder,kleinere,durch,große,hält,Erlebnisse,schnell,mit,260.000,beschuldigten,königlichen,auf,der,habe,Dänemark,Fleischs,Dänemark,"unterging,",Zuckers,die,Lust,"sporadisch,",unter,mit,stand,bei,überwiegend,Kleidung,dem,260.000,Liter,,,,,,,,,,,,,,,,,,,,,,,5,0,5,0,0,3,3,3,,,,,,,,space,0.392974853516,,,,,,2017_Jan_23_1300,59.4134445401,spr_backupper,001,Mo13,
,landen,Stimmung,wir,Packung,schmutziger,immer,Fahrer,dauerhaftem,man,den,richtige,"Delikte,",aus,Fahrer,vierte,die,Stadt,Farbe,immer,Blut,jetzt,mit,wurden,"wertvollem,",viel,mit,schmutzige,bei,ich,schon,36,schönen,den,wir,man,ich,aus,36,man,auf,"minimalem,",sind,"trug,",ich,schönen,dem,alten,ein,uns,"reichlichem,",mit,alten,sprudelndes,"sämtlichem,",man,"Japan,",das,mit,Farbe,Wohnung,obwohl,bekannten,dauerte,Büschel,solchen,die,Neuwahlen,viel,"Delikte,",Büschel,Packung,nicht,bei,dank,solch,Kilowattstunden,die,Bluts,warmem,Stadt,ich,einen,wurden,gelegentlich,war,sind,Wohnung,auf,obschon,"regelmäßigem,","üblichem,",ein,ausreichendem,"nicht,",landen,bekannten,Kilowattstunden,sprudelnden,,,,,,,,,,,,,,,,,,,,,,,5,0,5,0,0,4,4,4,,,,,,,,space,0.401912927628,,,,,,2017_Jan_23_1300,59.4134445401,spr_backupper,001,Mo13,
,im,ziemlich,von,salziger,Wäsche.,350,wurden,feinem,der,roten,"Zeit,",derer,feinem,wurden,Bundespräsident.,Tiere,liegen,geschleudert.,350,hat,"nachgewiesen,",einem,serviert.,klassischen,Lärm,zusätzlichem,Wäsche.,minimalem,leider,immer,hätten,Wetter,roten,um,eine,mehr,seltenem,würden,eine,noch,sauberen,auf,war,leider,Wetters,Mann,Kram,Glas,die,purem,einem,Krams,Trinkwasser.,künftigem,den,die,Auto,"reichem,",geschleudert.,des,sie,Skandals,ungefähr,frisches,unzureichenden,Störenfriede,vor,Lärm,deren,frischen,salzige,am,"frischem,",täglichem,unzureichenden,elektrischer,Störenfriede,hat,weichem,liegen,mehr,gelegentlichen,serviert.,einen,die,auf,des,noch,sie,kaltem,harten,Glas,monatlichem,was,im,Skandal,elektrische,Trinkwassers.,,,,,,,,,,,,,,,,,,,,,,,5,0,5,0,0,5,5,5,,,,,,,,space,0.504492998123,,,,,,2017_Jan_23_1300,59.4134445401,spr_backupper,001,Mo13,
,Müll.,"vermiest,",den,Wurst,nan,ml,verschrottet.,Kunsteis,Soldaten,Planeten,um,sie,dichten,verschrottet.,nan,artgerecht,die,nan,ml,den,dass,Esslöffel,nan,Schmuck,um,schwarzem,nan,täglichen,nichts,ruhig,seiner,die,Planet,die,große,als,dichten,seiner,große,eine,Kraftstoff,jeden,aus,nichts,die,mehr,aus,köstlicher,Stimmung,Alkohol,Esslöffel,aus,nan,Einkommen,Soldaten,er,mehr,goldenen,nan,Herrn,defekt,wiedergewählt.,drei,Gras,Helmen,jeden.,Dezember,um,sie,Grases,Wurst,Hauptbahnhof.,kaltem,grünen,Helmen,Energie.,jeden.,den,Untergrund,die,als,Besucher.,nan,Besucher.,Flut,jeden,Herrn,eine,defekt,Abduschen,Schaumstoff,köstlichen,Taschengeld,Tupperware,Müll.,wiedergewählt.,Energie.,nan,,,,,,,,,,,,,,,,,,,,,,,5,0,5,0,0,6,6,6,,,,,,,,space,0.829954147339,,,,,,2017_Jan_23_1300,59.4134445401,spr_backupper,001,Mo13,
,nan,dass,Problemen,mit,nan,warme,nan,eingesprüht.,des,ganz,Nadelhölzer,überführt,Stoff,nan,nan,gehalten.,Slums.,nan,warmer,Boden,das,warmen,nan,umgearbeitet.,jede,Kaffee,nan,Einsatz,mitbringen.,diskutiert.,Frau,Wohnung.,ganz,Probleme,Menge,einmal,Gewebe,Frau,Menge,Sammlung,fahren.,Fall,Japan.,mitbringen.,Wohnung.,als,dem,Wein,ziemlich,verdünnt.,warmem,dem,nan,haftbar.,des,trug.,als,Besatz,nan,Gantenbeins.,war.,nan,Tage.,zwängen.,zur,nan,stattfinden.,jede,überführt,zwängen.,mit,nan,Saft,Tee,zur,nan,nan,Boden,liegen.,Slums.,einmal,nan,nan,nan,zurückgekehrt.,Fall,Gantenbein.,Sammlung,war.,gehärtet.,gefertigt.,Weins,selber,ist.,nan,nan,nan,nan,,,,,,,,,,,,,,,,,,,,,,,5,0,5,0,0,7,7,7,,,,,,,,space,0.604617118835,,,,,,2017_Jan_23_1300,59.4134445401,spr_backupper,001,Mo13,
,nan,es,im,an,nan,Milch.,nan,nan,zweiten,deutlich.,umzusetzen.,wurden.,gefertigt.,nan,nan,nan,nan,nan,Milch.,berührt.,Medikament,Honigs,nan,nan,Menge,wiederbelebt.,nan,sinken.,nan,nan,gepasst.,nan,deutlich.,im,dunkler,Rilke.,wiederhergestellt.,gepasst,dunkle,dumme,nan,genug.,nan,nan,nan,gerne.,Haus,schon,vermiest.,nan,Honig,Haus,nan,nan,zweiten,nan,gerne.,rekonstruiert.,nan,nan,nan,nan,nan,nan,Schule.,nan,nan,Menge,wurden.,nan,an,nan,besprochen.,wieder,Schule.,nan,nan,berührt.,nan,nan,Rilke,nan,nan,nan,nan,genug.,nan,dummer,nan,nan,nan,schon,kaufen.,nan,nan,nan,nan,nan,,,,,,,,,,,,,,,,,,,,,,,5,0,5,0,0,8,8,8,,,,,,,,space,0.508470058441,,,,,,2017_Jan_23_1300,59.4134445401,spr_backupper,001,Mo13,
,,,,,,,,,,,,,,,,,,,,,,,,,,,,,,,,,,,,,,,,,,,,,,,,,,,,,,,,,,,,,,,,,,,,,,,,,,,,,,,,,,,,,,,,,,,,,,,,,,,,,,,,,,,,,,,,,,,,,,,,,5,0,5,0,,,,,,,,,,,,,,None,j,2.16145205498,,,2017_Jan_23_1300,59.4134445401,spr_backupper,001,Mo13,
,Viele,Es,In,Ich,Dort,In,Die,Die,Bei,Im,Jetzt,Es,Er,Die,Walter,In,Am,Es,In,Nicht,In,Er,Beträchtliche,Die,Man,Die,Dort,Ihr,Außer,Fernab,Die,Sie,Im,In,Mit,In,Danach,Die,Mit,Sie,Wir,100,Die,Außer,Sie,Wir,Wir,Bei,Dass,Die,Er,Wir,Sie,Manche,Bei,Die,Wir,Das,Es,Die,Die,Er,Der,Wir,Die,Außer,Unter,Man,Es,Wir,Ich,Die,Sie,Ich,Die,Die,Außer,Nicht,Jungtiere,Am,In,Wir,Beträchtliche,Wir,Als,100,Die,Sie,Die,Die,Alle,Bei,Jugendliche,Die,Viele,Er,Die,Sie,,,,,,,,,,,,,,,,,,,,,,,6,0,6,0,0,0,0,0,,,,,,,None,space,1.69543194771,,,,,,2017_Jan_23_1300,59.4134445401,spr_backupper,001,Mo13,
,Tonnen,hat,der,nehme,türmen,den,Autos,Eislaufbahnen,der,Fernrohr,ist,waren,hat,Autos,Scheel,diesem,äußeren,wurden,den,ein,einer,stellt,Stücke,Stücke,machte,müden,türmen,Blutdruck,das,des,Schuhe,verlassen,Fernrohr,der,dieser,meinem,wurde,Schuhe,dieser,hatte,konnten,g,"Uhr,",dem,verlassen,übergaben,haben,unserer,es,Lösung,stellt,haben,verbrauchen,Kreditnehmer,der,Uhr,übergaben,Tuch,wurden,Gäste,Uhr,wurde,Flug,mussten,Kinder,den,keinen,machte,waren,mussten,nehme,Linie,haben,wurde,Kinder,Schule,dem,ein,sollten,äußersten,meinem,hatten,Stücke,hatten,die,g,Gäste,hatte,Uhr,Formen,Betten,unserer,können,Teilnehmerinnen,Tonnen,wurde,Schule,verbrauchen,,,,,,,,,,,,,,,,,,,,,,,6,0,6,0,0,1,1,1,,,,,,,,space,0.508955955505,,,,,,2017_Jan_23_1300,59.4134445401,spr_backupper,001,Mo13,
,gebrauchte,uns,Tat,eine,sich,Kakao,beider,wurden,Feier,sahen,genau,nur,ein,beider,war,Zirkus,Rand,Eimer,Kakao,Tropfen,Studie,die,saftiges,wurden,mal,Teilnehmer,sich,kann,Essen,Rummels,in,wegen,sahen,Tat,Methode,Studium,die,in,Methode,keine,dann,brauner,die,Essen,wegen,das,jede,Ankunft,"regnete,",wird,die,jede,60,sind,Feier,war,dem,wurde,Eimer,suchen,schlug,trotz,zum,uns,fuhren,Bürgermeister,Umständen,mal,nur,uns,eine,101,die,damals,fuhren,verbraucht,Bürgermeister,Tropfen,immer,Rand,Studium,in,saftigen,in,Sonne,braunen,suchen,keine,schlug,wurden,wurden,Ankunft,Kleidung,wussten,gebrauchter,trotz,verbraucht,60,,,,,,,,,,,,,,,,,,,,,,,6,0,6,0,0,2,2,2,,,,,,,,space,0.638234138489,,,,,,2017_Jan_23_1300,59.4134445401,spr_backupper,001,Mo13,
,Kleidung,die,wissen,große,Berge,gehören,beteiligten,mit,gedachte,wir,die,kleinere,Hemd,beteiligter,der,werden,der,rote,gehören,königliches,wurde,Masse,Fleisch,aus,wieder,wurden,Berge,schon,kann,wurde,Größe,dem,wir,wissen,kann,las,Leinwand,Größe,kann,Lust,mit,Zucker,er,kann,des,Auto,Menge,stand,hat,mit,Masse,Menge,Liter,mit,gedachte,aus,Mann,dann,roter,die,"sporadisch,",des,Mond,durch,mit,beschuldigten,können,wieder,kleinere,durch,große,hält,Erlebnisse,schnell,mit,260.000,beschuldigten,königlichen,auf,der,habe,Dänemark,Fleischs,Dänemark,"unterging,",Zuckers,die,Lust,"sporadisch,",unter,mit,stand,bei,überwiegend,Kleidung,dem,260.000,Liter,,,,,,,,,,,,,,,,,,,,,,,6,0,6,0,0,3,3,3,,,,,,,,space,0.627668142319,,,,,,2017_Jan_23_1300,59.4134445401,spr_backupper,001,Mo13,
,landen,Stimmung,wir,Packung,schmutziger,immer,Fahrer,dauerhaftem,man,den,richtige,"Delikte,",aus,Fahrer,vierte,die,Stadt,Farbe,immer,Blut,jetzt,mit,wurden,"wertvollem,",viel,mit,schmutzige,bei,ich,schon,36,schönen,den,wir,man,ich,aus,36,man,auf,"minimalem,",sind,"trug,",ich,schönen,dem,alten,ein,uns,"reichlichem,",mit,alten,sprudelndes,"sämtlichem,",man,"Japan,",das,mit,Farbe,Wohnung,obwohl,bekannten,dauerte,Büschel,solchen,die,Neuwahlen,viel,"Delikte,",Büschel,Packung,nicht,bei,dank,solch,Kilowattstunden,die,Bluts,warmem,Stadt,ich,einen,wurden,gelegentlich,war,sind,Wohnung,auf,obschon,"regelmäßigem,","üblichem,",ein,ausreichendem,"nicht,",landen,bekannten,Kilowattstunden,sprudelnden,,,,,,,,,,,,,,,,,,,,,,,6,0,6,0,0,4,4,4,,,,,,,,space,0.560076951981,,,,,,2017_Jan_23_1300,59.4134445401,spr_backupper,001,Mo13,
,im,ziemlich,von,salziger,Wäsche.,350,wurden,feinem,der,roten,"Zeit,",derer,feinem,wurden,Bundespräsident.,Tiere,liegen,geschleudert.,350,hat,"nachgewiesen,",einem,serviert.,klassischen,Lärm,zusätzlichem,Wäsche.,minimalem,leider,immer,hätten,Wetter,roten,um,eine,mehr,seltenem,würden,eine,noch,sauberen,auf,war,leider,Wetters,Mann,Kram,Glas,die,purem,einem,Krams,Trinkwasser.,künftigem,den,die,Auto,"reichem,",geschleudert.,des,sie,Skandals,ungefähr,frisches,unzureichenden,Störenfriede,vor,Lärm,deren,frischen,salzige,am,"frischem,",täglichem,unzureichenden,elektrischer,Störenfriede,hat,weichem,liegen,mehr,gelegentlichen,serviert.,einen,die,auf,des,noch,sie,kaltem,harten,Glas,monatlichem,was,im,Skandal,elektrische,Trinkwassers.,,,,,,,,,,,,,,,,,,,,,,,6,0,6,0,0,5,5,5,,,,,,,,space,0.633450031281,,,,,,2017_Jan_23_1300,59.4134445401,spr_backupper,001,Mo13,
,Müll.,"vermiest,",den,Wurst,nan,ml,verschrottet.,Kunsteis,Soldaten,Planeten,um,sie,dichten,verschrottet.,nan,artgerecht,die,nan,ml,den,dass,Esslöffel,nan,Schmuck,um,schwarzem,nan,täglichen,nichts,ruhig,seiner,die,Planet,die,große,als,dichten,seiner,große,eine,Kraftstoff,jeden,aus,nichts,die,mehr,aus,köstlicher,Stimmung,Alkohol,Esslöffel,aus,nan,Einkommen,Soldaten,er,mehr,goldenen,nan,Herrn,defekt,wiedergewählt.,drei,Gras,Helmen,jeden.,Dezember,um,sie,Grases,Wurst,Hauptbahnhof.,kaltem,grünen,Helmen,Energie.,jeden.,den,Untergrund,die,als,Besucher.,nan,Besucher.,Flut,jeden,Herrn,eine,defekt,Abduschen,Schaumstoff,köstlichen,Taschengeld,Tupperware,Müll.,wiedergewählt.,Energie.,nan,,,,,,,,,,,,,,,,,,,,,,,6,0,6,0,0,6,6,6,,,,,,,,space,0.969472885132,,,,,,2017_Jan_23_1300,59.4134445401,spr_backupper,001,Mo13,
,nan,dass,Problemen,mit,nan,warme,nan,eingesprüht.,des,ganz,Nadelhölzer,überführt,Stoff,nan,nan,gehalten.,Slums.,nan,warmer,Boden,das,warmen,nan,umgearbeitet.,jede,Kaffee,nan,Einsatz,mitbringen.,diskutiert.,Frau,Wohnung.,ganz,Probleme,Menge,einmal,Gewebe,Frau,Menge,Sammlung,fahren.,Fall,Japan.,mitbringen.,Wohnung.,als,dem,Wein,ziemlich,verdünnt.,warmem,dem,nan,haftbar.,des,trug.,als,Besatz,nan,Gantenbeins.,war.,nan,Tage.,zwängen.,zur,nan,stattfinden.,jede,überführt,zwängen.,mit,nan,Saft,Tee,zur,nan,nan,Boden,liegen.,Slums.,einmal,nan,nan,nan,zurückgekehrt.,Fall,Gantenbein.,Sammlung,war.,gehärtet.,gefertigt.,Weins,selber,ist.,nan,nan,nan,nan,,,,,,,,,,,,,,,,,,,,,,,6,0,6,0,0,7,7,7,,,,,,,,space,0.563228130341,,,,,,2017_Jan_23_1300,59.4134445401,spr_backupper,001,Mo13,
,nan,es,im,an,nan,Milch.,nan,nan,zweiten,deutlich.,umzusetzen.,wurden.,gefertigt.,nan,nan,nan,nan,nan,Milch.,berührt.,Medikament,Honigs,nan,nan,Menge,wiederbelebt.,nan,sinken.,nan,nan,gepasst.,nan,deutlich.,im,dunkler,Rilke.,wiederhergestellt.,gepasst,dunkle,dumme,nan,genug.,nan,nan,nan,gerne.,Haus,schon,vermiest.,nan,Honig,Haus,nan,nan,zweiten,nan,gerne.,rekonstruiert.,nan,nan,nan,nan,nan,nan,Schule.,nan,nan,Menge,wurden.,nan,an,nan,besprochen.,wieder,Schule.,nan,nan,berührt.,nan,nan,Rilke,nan,nan,nan,nan,genug.,nan,dummer,nan,nan,nan,schon,kaufen.,nan,nan,nan,nan,nan,,,,,,,,,,,,,,,,,,,,,,,6,0,6,0,0,8,8,8,,,,,,,,space,0.525150060654,,,,,,2017_Jan_23_1300,59.4134445401,spr_backupper,001,Mo13,
,nan,regnete.,Landkreis.,den,nan,nan,nan,nan,Weltkriegs.,nan,nan,nan,nan,nan,nan,nan,nan,nan,nan,nan,nicht,her.,nan,nan,heißer,nan,nan,nan,nan,nan,nan,nan,nan,Landkreis.,Materie,nan,nan,haben.,Materie,Sprüche.,nan,nan,nan,nan,nan,nan,geschafft.,auf,nan,nan,her.,geschafft.,nan,nan,Weltkriegs.,nan,nan,nan,nan,nan,nan,nan,nan,nan,nan,nan,nan,heiße,nan,nan,den,nan,nan,fit.,nan,nan,nan,nan,nan,nan,gelesen.,nan,nan,nan,nan,nan,nan,Sprüche.,nan,nan,nan,auf,nan,nan,nan,nan,nan,nan,,,,,,,,,,,,,,,,,,,,,,,6,0,6,0,0,9,9,9,,,,,,,,space,0.562762022018,,,,,,2017_Jan_23_1300,59.4134445401,spr_backupper,001,Mo13,
,,,,,,,,,,,,,,,,,,,,,,,,,,,,,,,,,,,,,,,,,,,,,,,,,,,,,,,,,,,,,,,,,,,,,,,,,,,,,,,,,,,,,,,,,,,,,,,,,,,,,,,,,,,,,,,,,,,,,,,,,6,0,6,0,,,,,,,,,,,,,,None,j,10.4623889923,,,2017_Jan_23_1300,59.4134445401,spr_backupper,001,Mo13,
,Viele,Es,In,Ich,Dort,In,Die,Die,Bei,Im,Jetzt,Es,Er,Die,Walter,In,Am,Es,In,Nicht,In,Er,Beträchtliche,Die,Man,Die,Dort,Ihr,Außer,Fernab,Die,Sie,Im,In,Mit,In,Danach,Die,Mit,Sie,Wir,100,Die,Außer,Sie,Wir,Wir,Bei,Dass,Die,Er,Wir,Sie,Manche,Bei,Die,Wir,Das,Es,Die,Die,Er,Der,Wir,Die,Außer,Unter,Man,Es,Wir,Ich,Die,Sie,Ich,Die,Die,Außer,Nicht,Jungtiere,Am,In,Wir,Beträchtliche,Wir,Als,100,Die,Sie,Die,Die,Alle,Bei,Jugendliche,Die,Viele,Er,Die,Sie,,,,,,,,,,,,,,,,,,,,,,,7,0,7,0,0,0,0,0,,,,,,,space,space,0.821135044098,,,,0.435629844666,,2017_Jan_23_1300,59.4134445401,spr_backupper,001,Mo13,
,Tonnen,hat,der,nehme,türmen,den,Autos,Eislaufbahnen,der,Fernrohr,ist,waren,hat,Autos,Scheel,diesem,äußeren,wurden,den,ein,einer,stellt,Stücke,Stücke,machte,müden,türmen,Blutdruck,das,des,Schuhe,verlassen,Fernrohr,der,dieser,meinem,wurde,Schuhe,dieser,hatte,konnten,g,"Uhr,",dem,verlassen,übergaben,haben,unserer,es,Lösung,stellt,haben,verbrauchen,Kreditnehmer,der,Uhr,übergaben,Tuch,wurden,Gäste,Uhr,wurde,Flug,mussten,Kinder,den,keinen,machte,waren,mussten,nehme,Linie,haben,wurde,Kinder,Schule,dem,ein,sollten,äußersten,meinem,hatten,Stücke,hatten,die,g,Gäste,hatte,Uhr,Formen,Betten,unserer,können,Teilnehmerinnen,Tonnen,wurde,Schule,verbrauchen,,,,,,,,,,,,,,,,,,,,,,,7,0,7,0,0,1,1,1,,,,,,,,space,0.352099895477,,,,,,2017_Jan_23_1300,59.4134445401,spr_backupper,001,Mo13,
,gebrauchte,uns,Tat,eine,sich,Kakao,beider,wurden,Feier,sahen,genau,nur,ein,beider,war,Zirkus,Rand,Eimer,Kakao,Tropfen,Studie,die,saftiges,wurden,mal,Teilnehmer,sich,kann,Essen,Rummels,in,wegen,sahen,Tat,Methode,Studium,die,in,Methode,keine,dann,brauner,die,Essen,wegen,das,jede,Ankunft,"regnete,",wird,die,jede,60,sind,Feier,war,dem,wurde,Eimer,suchen,schlug,trotz,zum,uns,fuhren,Bürgermeister,Umständen,mal,nur,uns,eine,101,die,damals,fuhren,verbraucht,Bürgermeister,Tropfen,immer,Rand,Studium,in,saftigen,in,Sonne,braunen,suchen,keine,schlug,wurden,wurden,Ankunft,Kleidung,wussten,gebrauchter,trotz,verbraucht,60,,,,,,,,,,,,,,,,,,,,,,,7,0,7,0,0,2,2,2,,,,,,,,space,0.378221988678,,,,,,2017_Jan_23_1300,59.4134445401,spr_backupper,001,Mo13,
,Kleidung,die,wissen,große,Berge,gehören,beteiligten,mit,gedachte,wir,die,kleinere,Hemd,beteiligter,der,werden,der,rote,gehören,königliches,wurde,Masse,Fleisch,aus,wieder,wurden,Berge,schon,kann,wurde,Größe,dem,wir,wissen,kann,las,Leinwand,Größe,kann,Lust,mit,Zucker,er,kann,des,Auto,Menge,stand,hat,mit,Masse,Menge,Liter,mit,gedachte,aus,Mann,dann,roter,die,"sporadisch,",des,Mond,durch,mit,beschuldigten,können,wieder,kleinere,durch,große,hält,Erlebnisse,schnell,mit,260.000,beschuldigten,königlichen,auf,der,habe,Dänemark,Fleischs,Dänemark,"unterging,",Zuckers,die,Lust,"sporadisch,",unter,mit,stand,bei,überwiegend,Kleidung,dem,260.000,Liter,,,,,,,,,,,,,,,,,,,,,,,7,0,7,0,0,3,3,3,,,,,,,,space,0.435611009598,,,,,,2017_Jan_23_1300,59.4134445401,spr_backupper,001,Mo13,
,landen,Stimmung,wir,Packung,schmutziger,immer,Fahrer,dauerhaftem,man,den,richtige,"Delikte,",aus,Fahrer,vierte,die,Stadt,Farbe,immer,Blut,jetzt,mit,wurden,"wertvollem,",viel,mit,schmutzige,bei,ich,schon,36,schönen,den,wir,man,ich,aus,36,man,auf,"minimalem,",sind,"trug,",ich,schönen,dem,alten,ein,uns,"reichlichem,",mit,alten,sprudelndes,"sämtlichem,",man,"Japan,",das,mit,Farbe,Wohnung,obwohl,bekannten,dauerte,Büschel,solchen,die,Neuwahlen,viel,"Delikte,",Büschel,Packung,nicht,bei,dank,solch,Kilowattstunden,die,Bluts,warmem,Stadt,ich,einen,wurden,gelegentlich,war,sind,Wohnung,auf,obschon,"regelmäßigem,","üblichem,",ein,ausreichendem,"nicht,",landen,bekannten,Kilowattstunden,sprudelnden,,,,,,,,,,,,,,,,,,,,,,,7,0,7,0,0,4,4,4,,,,,,,,space,0.368808984756,,,,,,2017_Jan_23_1300,59.4134445401,spr_backupper,001,Mo13,
,im,ziemlich,von,salziger,Wäsche.,350,wurden,feinem,der,roten,"Zeit,",derer,feinem,wurden,Bundespräsident.,Tiere,liegen,geschleudert.,350,hat,"nachgewiesen,",einem,serviert.,klassischen,Lärm,zusätzlichem,Wäsche.,minimalem,leider,immer,hätten,Wetter,roten,um,eine,mehr,seltenem,würden,eine,noch,sauberen,auf,war,leider,Wetters,Mann,Kram,Glas,die,purem,einem,Krams,Trinkwasser.,künftigem,den,die,Auto,"reichem,",geschleudert.,des,sie,Skandals,ungefähr,frisches,unzureichenden,Störenfriede,vor,Lärm,deren,frischen,salzige,am,"frischem,",täglichem,unzureichenden,elektrischer,Störenfriede,hat,weichem,liegen,mehr,gelegentlichen,serviert.,einen,die,auf,des,noch,sie,kaltem,harten,Glas,monatlichem,was,im,Skandal,elektrische,Trinkwassers.,,,,,,,,,,,,,,,,,,,,,,,7,0,7,0,0,5,5,5,,,,,,,,space,0.33646607399,,,,,,2017_Jan_23_1300,59.4134445401,spr_backupper,001,Mo13,
,Müll.,"vermiest,",den,Wurst,nan,ml,verschrottet.,Kunsteis,Soldaten,Planeten,um,sie,dichten,verschrottet.,nan,artgerecht,die,nan,ml,den,dass,Esslöffel,nan,Schmuck,um,schwarzem,nan,täglichen,nichts,ruhig,seiner,die,Planet,die,große,als,dichten,seiner,große,eine,Kraftstoff,jeden,aus,nichts,die,mehr,aus,köstlicher,Stimmung,Alkohol,Esslöffel,aus,nan,Einkommen,Soldaten,er,mehr,goldenen,nan,Herrn,defekt,wiedergewählt.,drei,Gras,Helmen,jeden.,Dezember,um,sie,Grases,Wurst,Hauptbahnhof.,kaltem,grünen,Helmen,Energie.,jeden.,den,Untergrund,die,als,Besucher.,nan,Besucher.,Flut,jeden,Herrn,eine,defekt,Abduschen,Schaumstoff,köstlichen,Taschengeld,Tupperware,Müll.,wiedergewählt.,Energie.,nan,,,,,,,,,,,,,,,,,,,,,,,7,0,7,0,0,6,6,6,,,,,,,,space,0.351842164993,,,,,,2017_Jan_23_1300,59.4134445401,spr_backupper,001,Mo13,
,nan,dass,Problemen,mit,nan,warme,nan,eingesprüht.,des,ganz,Nadelhölzer,überführt,Stoff,nan,nan,gehalten.,Slums.,nan,warmer,Boden,das,warmen,nan,umgearbeitet.,jede,Kaffee,nan,Einsatz,mitbringen.,diskutiert.,Frau,Wohnung.,ganz,Probleme,Menge,einmal,Gewebe,Frau,Menge,Sammlung,fahren.,Fall,Japan.,mitbringen.,Wohnung.,als,dem,Wein,ziemlich,verdünnt.,warmem,dem,nan,haftbar.,des,trug.,als,Besatz,nan,Gantenbeins.,war.,nan,Tage.,zwängen.,zur,nan,stattfinden.,jede,überführt,zwängen.,mit,nan,Saft,Tee,zur,nan,nan,Boden,liegen.,Slums.,einmal,nan,nan,nan,zurückgekehrt.,Fall,Gantenbein.,Sammlung,war.,gehärtet.,gefertigt.,Weins,selber,ist.,nan,nan,nan,nan,,,,,,,,,,,,,,,,,,,,,,,7,0,7,0,0,7,7,7,,,,,,,,space,0.705086946487,,,,,,2017_Jan_23_1300,59.4134445401,spr_backupper,001,Mo13,
,nan,es,im,an,nan,Milch.,nan,nan,zweiten,deutlich.,umzusetzen.,wurden.,gefertigt.,nan,nan,nan,nan,nan,Milch.,berührt.,Medikament,Honigs,nan,nan,Menge,wiederbelebt.,nan,sinken.,nan,nan,gepasst.,nan,deutlich.,im,dunkler,Rilke.,wiederhergestellt.,gepasst,dunkle,dumme,nan,genug.,nan,nan,nan,gerne.,Haus,schon,vermiest.,nan,Honig,Haus,nan,nan,zweiten,nan,gerne.,rekonstruiert.,nan,nan,nan,nan,nan,nan,Schule.,nan,nan,Menge,wurden.,nan,an,nan,besprochen.,wieder,Schule.,nan,nan,berührt.,nan,nan,Rilke,nan,nan,nan,nan,genug.,nan,dummer,nan,nan,nan,schon,kaufen.,nan,nan,nan,nan,nan,,,,,,,,,,,,,,,,,,,,,,,7,0,7,0,0,8,8,8,,,,,,,,space,0.466414928436,,,,,,2017_Jan_23_1300,59.4134445401,spr_backupper,001,Mo13,
,nan,regnete.,Landkreis.,den,nan,nan,nan,nan,Weltkriegs.,nan,nan,nan,nan,nan,nan,nan,nan,nan,nan,nan,nicht,her.,nan,nan,heißer,nan,nan,nan,nan,nan,nan,nan,nan,Landkreis.,Materie,nan,nan,haben.,Materie,Sprüche.,nan,nan,nan,nan,nan,nan,geschafft.,auf,nan,nan,her.,geschafft.,nan,nan,Weltkriegs.,nan,nan,nan,nan,nan,nan,nan,nan,nan,nan,nan,nan,heiße,nan,nan,den,nan,nan,fit.,nan,nan,nan,nan,nan,nan,gelesen.,nan,nan,nan,nan,nan,nan,Sprüche.,nan,nan,nan,auf,nan,nan,nan,nan,nan,nan,,,,,,,,,,,,,,,,,,,,,,,7,0,7,0,0,9,9,9,,,,,,,,space,0.57594203949,,,,,,2017_Jan_23_1300,59.4134445401,spr_backupper,001,Mo13,
,,,,,,,,,,,,,,,,,,,,,,,,,,,,,,,,,,,,,,,,,,,,,,,,,,,,,,,,,,,,,,,,,,,,,,,,,,,,,,,,,,,,,,,,,,,,,,,,,,,,,,,,,,,,,,,,,,,,,,,,,7,0,7,0,,,,,,,,,,,,,,None,j,1.45812702179,,,2017_Jan_23_1300,59.4134445401,spr_backupper,001,Mo13,
,Viele,Es,In,Ich,Dort,In,Die,Die,Bei,Im,Jetzt,Es,Er,Die,Walter,In,Am,Es,In,Nicht,In,Er,Beträchtliche,Die,Man,Die,Dort,Ihr,Außer,Fernab,Die,Sie,Im,In,Mit,In,Danach,Die,Mit,Sie,Wir,100,Die,Außer,Sie,Wir,Wir,Bei,Dass,Die,Er,Wir,Sie,Manche,Bei,Die,Wir,Das,Es,Die,Die,Er,Der,Wir,Die,Außer,Unter,Man,Es,Wir,Ich,Die,Sie,Ich,Die,Die,Außer,Nicht,Jungtiere,Am,In,Wir,Beträchtliche,Wir,Als,100,Die,Sie,Die,Die,Alle,Bei,Jugendliche,Die,Viele,Er,Die,Sie,,,,,,,,,,,,,,,,,,,,,,,8,0,8,0,0,0,0,0,,,,,,,space,space,0.970160961151,,,,0.553472042084,,2017_Jan_23_1300,59.4134445401,spr_backupper,001,Mo13,
,Tonnen,hat,der,nehme,türmen,den,Autos,Eislaufbahnen,der,Fernrohr,ist,waren,hat,Autos,Scheel,diesem,äußeren,wurden,den,ein,einer,stellt,Stücke,Stücke,machte,müden,türmen,Blutdruck,das,des,Schuhe,verlassen,Fernrohr,der,dieser,meinem,wurde,Schuhe,dieser,hatte,konnten,g,"Uhr,",dem,verlassen,übergaben,haben,unserer,es,Lösung,stellt,haben,verbrauchen,Kreditnehmer,der,Uhr,übergaben,Tuch,wurden,Gäste,Uhr,wurde,Flug,mussten,Kinder,den,keinen,machte,waren,mussten,nehme,Linie,haben,wurde,Kinder,Schule,dem,ein,sollten,äußersten,meinem,hatten,Stücke,hatten,die,g,Gäste,hatte,Uhr,Formen,Betten,unserer,können,Teilnehmerinnen,Tonnen,wurde,Schule,verbrauchen,,,,,,,,,,,,,,,,,,,,,,,8,0,8,0,0,1,1,1,,,,,,,,space,0.351623058319,,,,,,2017_Jan_23_1300,59.4134445401,spr_backupper,001,Mo13,
,gebrauchte,uns,Tat,eine,sich,Kakao,beider,wurden,Feier,sahen,genau,nur,ein,beider,war,Zirkus,Rand,Eimer,Kakao,Tropfen,Studie,die,saftiges,wurden,mal,Teilnehmer,sich,kann,Essen,Rummels,in,wegen,sahen,Tat,Methode,Studium,die,in,Methode,keine,dann,brauner,die,Essen,wegen,das,jede,Ankunft,"regnete,",wird,die,jede,60,sind,Feier,war,dem,wurde,Eimer,suchen,schlug,trotz,zum,uns,fuhren,Bürgermeister,Umständen,mal,nur,uns,eine,101,die,damals,fuhren,verbraucht,Bürgermeister,Tropfen,immer,Rand,Studium,in,saftigen,in,Sonne,braunen,suchen,keine,schlug,wurden,wurden,Ankunft,Kleidung,wussten,gebrauchter,trotz,verbraucht,60,,,,,,,,,,,,,,,,,,,,,,,8,0,8,0,0,2,2,2,,,,,,,,space,0.385846853256,,,,,,2017_Jan_23_1300,59.4134445401,spr_backupper,001,Mo13,
,Kleidung,die,wissen,große,Berge,gehören,beteiligten,mit,gedachte,wir,die,kleinere,Hemd,beteiligter,der,werden,der,rote,gehören,königliches,wurde,Masse,Fleisch,aus,wieder,wurden,Berge,schon,kann,wurde,Größe,dem,wir,wissen,kann,las,Leinwand,Größe,kann,Lust,mit,Zucker,er,kann,des,Auto,Menge,stand,hat,mit,Masse,Menge,Liter,mit,gedachte,aus,Mann,dann,roter,die,"sporadisch,",des,Mond,durch,mit,beschuldigten,können,wieder,kleinere,durch,große,hält,Erlebnisse,schnell,mit,260.000,beschuldigten,königlichen,auf,der,habe,Dänemark,Fleischs,Dänemark,"unterging,",Zuckers,die,Lust,"sporadisch,",unter,mit,stand,bei,überwiegend,Kleidung,dem,260.000,Liter,,,,,,,,,,,,,,,,,,,,,,,8,0,8,0,0,3,3,3,,,,,,,,space,0.385520935059,,,,,,2017_Jan_23_1300,59.4134445401,spr_backupper,001,Mo13,
,landen,Stimmung,wir,Packung,schmutziger,immer,Fahrer,dauerhaftem,man,den,richtige,"Delikte,",aus,Fahrer,vierte,die,Stadt,Farbe,immer,Blut,jetzt,mit,wurden,"wertvollem,",viel,mit,schmutzige,bei,ich,schon,36,schönen,den,wir,man,ich,aus,36,man,auf,"minimalem,",sind,"trug,",ich,schönen,dem,alten,ein,uns,"reichlichem,",mit,alten,sprudelndes,"sämtlichem,",man,"Japan,",das,mit,Farbe,Wohnung,obwohl,bekannten,dauerte,Büschel,solchen,die,Neuwahlen,viel,"Delikte,",Büschel,Packung,nicht,bei,dank,solch,Kilowattstunden,die,Bluts,warmem,Stadt,ich,einen,wurden,gelegentlich,war,sind,Wohnung,auf,obschon,"regelmäßigem,","üblichem,",ein,ausreichendem,"nicht,",landen,bekannten,Kilowattstunden,sprudelnden,,,,,,,,,,,,,,,,,,,,,,,8,0,8,0,0,4,4,4,,,,,,,,space,0.704967975616,,,,,,2017_Jan_23_1300,59.4134445401,spr_backupper,001,Mo13,
,im,ziemlich,von,salziger,Wäsche.,350,wurden,feinem,der,roten,"Zeit,",derer,feinem,wurden,Bundespräsident.,Tiere,liegen,geschleudert.,350,hat,"nachgewiesen,",einem,serviert.,klassischen,Lärm,zusätzlichem,Wäsche.,minimalem,leider,immer,hätten,Wetter,roten,um,eine,mehr,seltenem,würden,eine,noch,sauberen,auf,war,leider,Wetters,Mann,Kram,Glas,die,purem,einem,Krams,Trinkwasser.,künftigem,den,die,Auto,"reichem,",geschleudert.,des,sie,Skandals,ungefähr,frisches,unzureichenden,Störenfriede,vor,Lärm,deren,frischen,salzige,am,"frischem,",täglichem,unzureichenden,elektrischer,Störenfriede,hat,weichem,liegen,mehr,gelegentlichen,serviert.,einen,die,auf,des,noch,sie,kaltem,harten,Glas,monatlichem,was,im,Skandal,elektrische,Trinkwassers.,,,,,,,,,,,,,,,,,,,,,,,8,0,8,0,0,5,5,5,,,,,,,,space,0.637567043304,,,,,,2017_Jan_23_1300,59.4134445401,spr_backupper,001,Mo13,
,Müll.,"vermiest,",den,Wurst,nan,ml,verschrottet.,Kunsteis,Soldaten,Planeten,um,sie,dichten,verschrottet.,nan,artgerecht,die,nan,ml,den,dass,Esslöffel,nan,Schmuck,um,schwarzem,nan,täglichen,nichts,ruhig,seiner,die,Planet,die,große,als,dichten,seiner,große,eine,Kraftstoff,jeden,aus,nichts,die,mehr,aus,köstlicher,Stimmung,Alkohol,Esslöffel,aus,nan,Einkommen,Soldaten,er,mehr,goldenen,nan,Herrn,defekt,wiedergewählt.,drei,Gras,Helmen,jeden.,Dezember,um,sie,Grases,Wurst,Hauptbahnhof.,kaltem,grünen,Helmen,Energie.,jeden.,den,Untergrund,die,als,Besucher.,nan,Besucher.,Flut,jeden,Herrn,eine,defekt,Abduschen,Schaumstoff,köstlichen,Taschengeld,Tupperware,Müll.,wiedergewählt.,Energie.,nan,,,,,,,,,,,,,,,,,,,,,,,8,0,8,0,0,6,6,6,,,,,,,,space,0.751186847687,,,,,,2017_Jan_23_1300,59.4134445401,spr_backupper,001,Mo13,
,nan,dass,Problemen,mit,nan,warme,nan,eingesprüht.,des,ganz,Nadelhölzer,überführt,Stoff,nan,nan,gehalten.,Slums.,nan,warmer,Boden,das,warmen,nan,umgearbeitet.,jede,Kaffee,nan,Einsatz,mitbringen.,diskutiert.,Frau,Wohnung.,ganz,Probleme,Menge,einmal,Gewebe,Frau,Menge,Sammlung,fahren.,Fall,Japan.,mitbringen.,Wohnung.,als,dem,Wein,ziemlich,verdünnt.,warmem,dem,nan,haftbar.,des,trug.,als,Besatz,nan,Gantenbeins.,war.,nan,Tage.,zwängen.,zur,nan,stattfinden.,jede,überführt,zwängen.,mit,nan,Saft,Tee,zur,nan,nan,Boden,liegen.,Slums.,einmal,nan,nan,nan,zurückgekehrt.,Fall,Gantenbein.,Sammlung,war.,gehärtet.,gefertigt.,Weins,selber,ist.,nan,nan,nan,nan,,,,,,,,,,,,,,,,,,,,,,,8,0,8,0,0,7,7,7,,,,,,,,space,0.678071022034,,,,,,2017_Jan_23_1300,59.4134445401,spr_backupper,001,Mo13,
,nan,es,im,an,nan,Milch.,nan,nan,zweiten,deutlich.,umzusetzen.,wurden.,gefertigt.,nan,nan,nan,nan,nan,Milch.,berührt.,Medikament,Honigs,nan,nan,Menge,wiederbelebt.,nan,sinken.,nan,nan,gepasst.,nan,deutlich.,im,dunkler,Rilke.,wiederhergestellt.,gepasst,dunkle,dumme,nan,genug.,nan,nan,nan,gerne.,Haus,schon,vermiest.,nan,Honig,Haus,nan,nan,zweiten,nan,gerne.,rekonstruiert.,nan,nan,nan,nan,nan,nan,Schule.,nan,nan,Menge,wurden.,nan,an,nan,besprochen.,wieder,Schule.,nan,nan,berührt.,nan,nan,Rilke,nan,nan,nan,nan,genug.,nan,dummer,nan,nan,nan,schon,kaufen.,nan,nan,nan,nan,nan,,,,,,,,,,,,,,,,,,,,,,,8,0,8,0,0,8,8,8,,,,,,,,space,0.805083990097,,,,,,2017_Jan_23_1300,59.4134445401,spr_backupper,001,Mo13,
,nan,regnete.,Landkreis.,den,nan,nan,nan,nan,Weltkriegs.,nan,nan,nan,nan,nan,nan,nan,nan,nan,nan,nan,nicht,her.,nan,nan,heißer,nan,nan,nan,nan,nan,nan,nan,nan,Landkreis.,Materie,nan,nan,haben.,Materie,Sprüche.,nan,nan,nan,nan,nan,nan,geschafft.,auf,nan,nan,her.,geschafft.,nan,nan,Weltkriegs.,nan,nan,nan,nan,nan,nan,nan,nan,nan,nan,nan,nan,heiße,nan,nan,den,nan,nan,fit.,nan,nan,nan,nan,nan,nan,gelesen.,nan,nan,nan,nan,nan,nan,Sprüche.,nan,nan,nan,auf,nan,nan,nan,nan,nan,nan,,,,,,,,,,,,,,,,,,,,,,,8,0,8,0,0,9,9,9,,,,,,,,space,1.38050103188,,,,,,2017_Jan_23_1300,59.4134445401,spr_backupper,001,Mo13,
,,,,,,,,,,,,,,,,,,,,,,,,,,,,,,,,,,,,,,,,,,,,,,,,,,,,,,,,,,,,,,,,,,,,,,,,,,,,,,,,,,,,,,,,,,,,,,,,,,,,,,,,,,,,,,,,,,,,,,,,,8,0,8,0,,,,,,,,,,,,,,None,j,1.5090918541,,,2017_Jan_23_1300,59.4134445401,spr_backupper,001,Mo13,
,Viele,Es,In,Ich,Dort,In,Die,Die,Bei,Im,Jetzt,Es,Er,Die,Walter,In,Am,Es,In,Nicht,In,Er,Beträchtliche,Die,Man,Die,Dort,Ihr,Außer,Fernab,Die,Sie,Im,In,Mit,In,Danach,Die,Mit,Sie,Wir,100,Die,Außer,Sie,Wir,Wir,Bei,Dass,Die,Er,Wir,Sie,Manche,Bei,Die,Wir,Das,Es,Die,Die,Er,Der,Wir,Die,Außer,Unter,Man,Es,Wir,Ich,Die,Sie,Ich,Die,Die,Außer,Nicht,Jungtiere,Am,In,Wir,Beträchtliche,Wir,Als,100,Die,Sie,Die,Die,Alle,Bei,Jugendliche,Die,Viele,Er,Die,Sie,,,,,,,,,,,,,,,,,,,,,,,9,0,9,0,0,0,0,0,,,,,,,space,space,0.7572889328,,,,1.20719599724,,2017_Jan_23_1300,59.4134445401,spr_backupper,001,Mo13,
,Tonnen,hat,der,nehme,türmen,den,Autos,Eislaufbahnen,der,Fernrohr,ist,waren,hat,Autos,Scheel,diesem,äußeren,wurden,den,ein,einer,stellt,Stücke,Stücke,machte,müden,türmen,Blutdruck,das,des,Schuhe,verlassen,Fernrohr,der,dieser,meinem,wurde,Schuhe,dieser,hatte,konnten,g,"Uhr,",dem,verlassen,übergaben,haben,unserer,es,Lösung,stellt,haben,verbrauchen,Kreditnehmer,der,Uhr,übergaben,Tuch,wurden,Gäste,Uhr,wurde,Flug,mussten,Kinder,den,keinen,machte,waren,mussten,nehme,Linie,haben,wurde,Kinder,Schule,dem,ein,sollten,äußersten,meinem,hatten,Stücke,hatten,die,g,Gäste,hatte,Uhr,Formen,Betten,unserer,können,Teilnehmerinnen,Tonnen,wurde,Schule,verbrauchen,,,,,,,,,,,,,,,,,,,,,,,9,0,9,0,0,1,1,1,,,,,,,,space,0.602366924286,,,,,,2017_Jan_23_1300,59.4134445401,spr_backupper,001,Mo13,
,gebrauchte,uns,Tat,eine,sich,Kakao,beider,wurden,Feier,sahen,genau,nur,ein,beider,war,Zirkus,Rand,Eimer,Kakao,Tropfen,Studie,die,saftiges,wurden,mal,Teilnehmer,sich,kann,Essen,Rummels,in,wegen,sahen,Tat,Methode,Studium,die,in,Methode,keine,dann,brauner,die,Essen,wegen,das,jede,Ankunft,"regnete,",wird,die,jede,60,sind,Feier,war,dem,wurde,Eimer,suchen,schlug,trotz,zum,uns,fuhren,Bürgermeister,Umständen,mal,nur,uns,eine,101,die,damals,fuhren,verbraucht,Bürgermeister,Tropfen,immer,Rand,Studium,in,saftigen,in,Sonne,braunen,suchen,keine,schlug,wurden,wurden,Ankunft,Kleidung,wussten,gebrauchter,trotz,verbraucht,60,,,,,,,,,,,,,,,,,,,,,,,9,0,9,0,0,2,2,2,,,,,,,,space,0.574715852737,,,,,,2017_Jan_23_1300,59.4134445401,spr_backupper,001,Mo13,
,Kleidung,die,wissen,große,Berge,gehören,beteiligten,mit,gedachte,wir,die,kleinere,Hemd,beteiligter,der,werden,der,rote,gehören,königliches,wurde,Masse,Fleisch,aus,wieder,wurden,Berge,schon,kann,wurde,Größe,dem,wir,wissen,kann,las,Leinwand,Größe,kann,Lust,mit,Zucker,er,kann,des,Auto,Menge,stand,hat,mit,Masse,Menge,Liter,mit,gedachte,aus,Mann,dann,roter,die,"sporadisch,",des,Mond,durch,mit,beschuldigten,können,wieder,kleinere,durch,große,hält,Erlebnisse,schnell,mit,260.000,beschuldigten,königlichen,auf,der,habe,Dänemark,Fleischs,Dänemark,"unterging,",Zuckers,die,Lust,"sporadisch,",unter,mit,stand,bei,überwiegend,Kleidung,dem,260.000,Liter,,,,,,,,,,,,,,,,,,,,,,,9,0,9,0,0,3,3,3,,,,,,,,space,0.469660997391,,,,,,2017_Jan_23_1300,59.4134445401,spr_backupper,001,Mo13,
,landen,Stimmung,wir,Packung,schmutziger,immer,Fahrer,dauerhaftem,man,den,richtige,"Delikte,",aus,Fahrer,vierte,die,Stadt,Farbe,immer,Blut,jetzt,mit,wurden,"wertvollem,",viel,mit,schmutzige,bei,ich,schon,36,schönen,den,wir,man,ich,aus,36,man,auf,"minimalem,",sind,"trug,",ich,schönen,dem,alten,ein,uns,"reichlichem,",mit,alten,sprudelndes,"sämtlichem,",man,"Japan,",das,mit,Farbe,Wohnung,obwohl,bekannten,dauerte,Büschel,solchen,die,Neuwahlen,viel,"Delikte,",Büschel,Packung,nicht,bei,dank,solch,Kilowattstunden,die,Bluts,warmem,Stadt,ich,einen,wurden,gelegentlich,war,sind,Wohnung,auf,obschon,"regelmäßigem,","üblichem,",ein,ausreichendem,"nicht,",landen,bekannten,Kilowattstunden,sprudelnden,,,,,,,,,,,,,,,,,,,,,,,9,0,9,0,0,4,4,4,,,,,,,,space,0.669080972672,,,,,,2017_Jan_23_1300,59.4134445401,spr_backupper,001,Mo13,
,im,ziemlich,von,salziger,Wäsche.,350,wurden,feinem,der,roten,"Zeit,",derer,feinem,wurden,Bundespräsident.,Tiere,liegen,geschleudert.,350,hat,"nachgewiesen,",einem,serviert.,klassischen,Lärm,zusätzlichem,Wäsche.,minimalem,leider,immer,hätten,Wetter,roten,um,eine,mehr,seltenem,würden,eine,noch,sauberen,auf,war,leider,Wetters,Mann,Kram,Glas,die,purem,einem,Krams,Trinkwasser.,künftigem,den,die,Auto,"reichem,",geschleudert.,des,sie,Skandals,ungefähr,frisches,unzureichenden,Störenfriede,vor,Lärm,deren,frischen,salzige,am,"frischem,",täglichem,unzureichenden,elektrischer,Störenfriede,hat,weichem,liegen,mehr,gelegentlichen,serviert.,einen,die,auf,des,noch,sie,kaltem,harten,Glas,monatlichem,was,im,Skandal,elektrische,Trinkwassers.,,,,,,,,,,,,,,,,,,,,,,,9,0,9,0,0,5,5,5,,,,,,,,space,0.574773073196,,,,,,2017_Jan_23_1300,59.4134445401,spr_backupper,001,Mo13,
,Müll.,"vermiest,",den,Wurst,nan,ml,verschrottet.,Kunsteis,Soldaten,Planeten,um,sie,dichten,verschrottet.,nan,artgerecht,die,nan,ml,den,dass,Esslöffel,nan,Schmuck,um,schwarzem,nan,täglichen,nichts,ruhig,seiner,die,Planet,die,große,als,dichten,seiner,große,eine,Kraftstoff,jeden,aus,nichts,die,mehr,aus,köstlicher,Stimmung,Alkohol,Esslöffel,aus,nan,Einkommen,Soldaten,er,mehr,goldenen,nan,Herrn,defekt,wiedergewählt.,drei,Gras,Helmen,jeden.,Dezember,um,sie,Grases,Wurst,Hauptbahnhof.,kaltem,grünen,Helmen,Energie.,jeden.,den,Untergrund,die,als,Besucher.,nan,Besucher.,Flut,jeden,Herrn,eine,defekt,Abduschen,Schaumstoff,köstlichen,Taschengeld,Tupperware,Müll.,wiedergewählt.,Energie.,nan,,,,,,,,,,,,,,,,,,,,,,,9,0,9,0,0,6,6,6,,,,,,,,space,0.794236898422,,,,,,2017_Jan_23_1300,59.4134445401,spr_backupper,001,Mo13,
,nan,dass,Problemen,mit,nan,warme,nan,eingesprüht.,des,ganz,Nadelhölzer,überführt,Stoff,nan,nan,gehalten.,Slums.,nan,warmer,Boden,das,warmen,nan,umgearbeitet.,jede,Kaffee,nan,Einsatz,mitbringen.,diskutiert.,Frau,Wohnung.,ganz,Probleme,Menge,einmal,Gewebe,Frau,Menge,Sammlung,fahren.,Fall,Japan.,mitbringen.,Wohnung.,als,dem,Wein,ziemlich,verdünnt.,warmem,dem,nan,haftbar.,des,trug.,als,Besatz,nan,Gantenbeins.,war.,nan,Tage.,zwängen.,zur,nan,stattfinden.,jede,überführt,zwängen.,mit,nan,Saft,Tee,zur,nan,nan,Boden,liegen.,Slums.,einmal,nan,nan,nan,zurückgekehrt.,Fall,Gantenbein.,Sammlung,war.,gehärtet.,gefertigt.,Weins,selber,ist.,nan,nan,nan,nan,,,,,,,,,,,,,,,,,,,,,,,9,0,9,0,0,7,7,7,,,,,,,,space,1.49020600319,,,,,,2017_Jan_23_1300,59.4134445401,spr_backupper,001,Mo13,
,,,,,,,,,,,,,,,,,,,,,,,,,,,,,,,,,,,,,,,,,,,,,,,,,,,,,,,,,,,,,,,,,,,,,,,,,,,,,,,,,,,,,,,,,,,,,,,,,,,,,,,,,,,,,,,,,,,,,,,,,9,0,9,0,,,,,,,,,,,,,,None,j,1.66685819626,,,2017_Jan_23_1300,59.4134445401,spr_backupper,001,Mo13,
,Viele,Es,In,Ich,Dort,In,Die,Die,Bei,Im,Jetzt,Es,Er,Die,Walter,In,Am,Es,In,Nicht,In,Er,Beträchtliche,Die,Man,Die,Dort,Ihr,Außer,Fernab,Die,Sie,Im,In,Mit,In,Danach,Die,Mit,Sie,Wir,100,Die,Außer,Sie,Wir,Wir,Bei,Dass,Die,Er,Wir,Sie,Manche,Bei,Die,Wir,Das,Es,Die,Die,Er,Der,Wir,Die,Außer,Unter,Man,Es,Wir,Ich,Die,Sie,Ich,Die,Die,Außer,Nicht,Jungtiere,Am,In,Wir,Beträchtliche,Wir,Als,100,Die,Sie,Die,Die,Alle,Bei,Jugendliche,Die,Viele,Er,Die,Sie,,,,,,,,,,,,,,,,,,,,,,,10,0,10,0,0,0,0,0,,,,,,,None,space,3.17086219788,,,,,,2017_Jan_23_1300,59.4134445401,spr_backupper,001,Mo13,
,Tonnen,hat,der,nehme,türmen,den,Autos,Eislaufbahnen,der,Fernrohr,ist,waren,hat,Autos,Scheel,diesem,äußeren,wurden,den,ein,einer,stellt,Stücke,Stücke,machte,müden,türmen,Blutdruck,das,des,Schuhe,verlassen,Fernrohr,der,dieser,meinem,wurde,Schuhe,dieser,hatte,konnten,g,"Uhr,",dem,verlassen,übergaben,haben,unserer,es,Lösung,stellt,haben,verbrauchen,Kreditnehmer,der,Uhr,übergaben,Tuch,wurden,Gäste,Uhr,wurde,Flug,mussten,Kinder,den,keinen,machte,waren,mussten,nehme,Linie,haben,wurde,Kinder,Schule,dem,ein,sollten,äußersten,meinem,hatten,Stücke,hatten,die,g,Gäste,hatte,Uhr,Formen,Betten,unserer,können,Teilnehmerinnen,Tonnen,wurde,Schule,verbrauchen,,,,,,,,,,,,,,,,,,,,,,,10,0,10,0,0,1,1,1,,,,,,,,space,1.07332611084,,,,,,2017_Jan_23_1300,59.4134445401,spr_backupper,001,Mo13,
,gebrauchte,uns,Tat,eine,sich,Kakao,beider,wurden,Feier,sahen,genau,nur,ein,beider,war,Zirkus,Rand,Eimer,Kakao,Tropfen,Studie,die,saftiges,wurden,mal,Teilnehmer,sich,kann,Essen,Rummels,in,wegen,sahen,Tat,Methode,Studium,die,in,Methode,keine,dann,brauner,die,Essen,wegen,das,jede,Ankunft,"regnete,",wird,die,jede,60,sind,Feier,war,dem,wurde,Eimer,suchen,schlug,trotz,zum,uns,fuhren,Bürgermeister,Umständen,mal,nur,uns,eine,101,die,damals,fuhren,verbraucht,Bürgermeister,Tropfen,immer,Rand,Studium,in,saftigen,in,Sonne,braunen,suchen,keine,schlug,wurden,wurden,Ankunft,Kleidung,wussten,gebrauchter,trotz,verbraucht,60,,,,,,,,,,,,,,,,,,,,,,,10,0,10,0,0,2,2,2,,,,,,,,space,0.996387958527,,,,,,2017_Jan_23_1300,59.4134445401,spr_backupper,001,Mo13,
,Kleidung,die,wissen,große,Berge,gehören,beteiligten,mit,gedachte,wir,die,kleinere,Hemd,beteiligter,der,werden,der,rote,gehören,königliches,wurde,Masse,Fleisch,aus,wieder,wurden,Berge,schon,kann,wurde,Größe,dem,wir,wissen,kann,las,Leinwand,Größe,kann,Lust,mit,Zucker,er,kann,des,Auto,Menge,stand,hat,mit,Masse,Menge,Liter,mit,gedachte,aus,Mann,dann,roter,die,"sporadisch,",des,Mond,durch,mit,beschuldigten,können,wieder,kleinere,durch,große,hält,Erlebnisse,schnell,mit,260.000,beschuldigten,königlichen,auf,der,habe,Dänemark,Fleischs,Dänemark,"unterging,",Zuckers,die,Lust,"sporadisch,",unter,mit,stand,bei,überwiegend,Kleidung,dem,260.000,Liter,,,,,,,,,,,,,,,,,,,,,,,10,0,10,0,0,3,3,3,,,,,,,,space,1.02104711533,,,,,,2017_Jan_23_1300,59.4134445401,spr_backupper,001,Mo13,
,landen,Stimmung,wir,Packung,schmutziger,immer,Fahrer,dauerhaftem,man,den,richtige,"Delikte,",aus,Fahrer,vierte,die,Stadt,Farbe,immer,Blut,jetzt,mit,wurden,"wertvollem,",viel,mit,schmutzige,bei,ich,schon,36,schönen,den,wir,man,ich,aus,36,man,auf,"minimalem,",sind,"trug,",ich,schönen,dem,alten,ein,uns,"reichlichem,",mit,alten,sprudelndes,"sämtlichem,",man,"Japan,",das,mit,Farbe,Wohnung,obwohl,bekannten,dauerte,Büschel,solchen,die,Neuwahlen,viel,"Delikte,",Büschel,Packung,nicht,bei,dank,solch,Kilowattstunden,die,Bluts,warmem,Stadt,ich,einen,wurden,gelegentlich,war,sind,Wohnung,auf,obschon,"regelmäßigem,","üblichem,",ein,ausreichendem,"nicht,",landen,bekannten,Kilowattstunden,sprudelnden,,,,,,,,,,,,,,,,,,,,,,,10,0,10,0,0,4,4,4,,,,,,,,space,0.451726198196,,,,,,2017_Jan_23_1300,59.4134445401,spr_backupper,001,Mo13,
,im,ziemlich,von,salziger,Wäsche.,350,wurden,feinem,der,roten,"Zeit,",derer,feinem,wurden,Bundespräsident.,Tiere,liegen,geschleudert.,350,hat,"nachgewiesen,",einem,serviert.,klassischen,Lärm,zusätzlichem,Wäsche.,minimalem,leider,immer,hätten,Wetter,roten,um,eine,mehr,seltenem,würden,eine,noch,sauberen,auf,war,leider,Wetters,Mann,Kram,Glas,die,purem,einem,Krams,Trinkwasser.,künftigem,den,die,Auto,"reichem,",geschleudert.,des,sie,Skandals,ungefähr,frisches,unzureichenden,Störenfriede,vor,Lärm,deren,frischen,salzige,am,"frischem,",täglichem,unzureichenden,elektrischer,Störenfriede,hat,weichem,liegen,mehr,gelegentlichen,serviert.,einen,die,auf,des,noch,sie,kaltem,harten,Glas,monatlichem,was,im,Skandal,elektrische,Trinkwassers.,,,,,,,,,,,,,,,,,,,,,,,10,0,10,0,0,5,5,5,,,,,,,,space,0.906894922256,,,,,,2017_Jan_23_1300,59.4134445401,spr_backupper,001,Mo13,
,,,,,,,,,,,,,,,,,,,,,,,,,,,,,,,,,,,,,,,,,,,,,,,,,,,,,,,,,,,,,,,,,,,,,,,,,,,,,,,,,,,,,,,,,,,,,,,,,,,,,,,,,,,,,,,,,,,,,,,,,10,0,10,0,,,,,,,,,,,,,,None,n,1.8778450489,,,2017_Jan_23_1300,59.4134445401,spr_backupper,001,Mo13,
,Viele,Es,In,Ich,Dort,In,Die,Die,Bei,Im,Jetzt,Es,Er,Die,Walter,In,Am,Es,In,Nicht,In,Er,Beträchtliche,Die,Man,Die,Dort,Ihr,Außer,Fernab,Die,Sie,Im,In,Mit,In,Danach,Die,Mit,Sie,Wir,100,Die,Außer,Sie,Wir,Wir,Bei,Dass,Die,Er,Wir,Sie,Manche,Bei,Die,Wir,Das,Es,Die,Die,Er,Der,Wir,Die,Außer,Unter,Man,Es,Wir,Ich,Die,Sie,Ich,Die,Die,Außer,Nicht,Jungtiere,Am,In,Wir,Beträchtliche,Wir,Als,100,Die,Sie,Die,Die,Alle,Bei,Jugendliche,Die,Viele,Er,Die,Sie,,,,,,,,,,,,,,,,,,,,,,,11,0,11,0,0,0,0,0,,,,,,,space,space,0.708851099014,,,,0.822247028351,,2017_Jan_23_1300,59.4134445401,spr_backupper,001,Mo13,
,Tonnen,hat,der,nehme,türmen,den,Autos,Eislaufbahnen,der,Fernrohr,ist,waren,hat,Autos,Scheel,diesem,äußeren,wurden,den,ein,einer,stellt,Stücke,Stücke,machte,müden,türmen,Blutdruck,das,des,Schuhe,verlassen,Fernrohr,der,dieser,meinem,wurde,Schuhe,dieser,hatte,konnten,g,"Uhr,",dem,verlassen,übergaben,haben,unserer,es,Lösung,stellt,haben,verbrauchen,Kreditnehmer,der,Uhr,übergaben,Tuch,wurden,Gäste,Uhr,wurde,Flug,mussten,Kinder,den,keinen,machte,waren,mussten,nehme,Linie,haben,wurde,Kinder,Schule,dem,ein,sollten,äußersten,meinem,hatten,Stücke,hatten,die,g,Gäste,hatte,Uhr,Formen,Betten,unserer,können,Teilnehmerinnen,Tonnen,wurde,Schule,verbrauchen,,,,,,,,,,,,,,,,,,,,,,,11,0,11,0,0,1,1,1,,,,,,,,space,0.485118865967,,,,,,2017_Jan_23_1300,59.4134445401,spr_backupper,001,Mo13,
,gebrauchte,uns,Tat,eine,sich,Kakao,beider,wurden,Feier,sahen,genau,nur,ein,beider,war,Zirkus,Rand,Eimer,Kakao,Tropfen,Studie,die,saftiges,wurden,mal,Teilnehmer,sich,kann,Essen,Rummels,in,wegen,sahen,Tat,Methode,Studium,die,in,Methode,keine,dann,brauner,die,Essen,wegen,das,jede,Ankunft,"regnete,",wird,die,jede,60,sind,Feier,war,dem,wurde,Eimer,suchen,schlug,trotz,zum,uns,fuhren,Bürgermeister,Umständen,mal,nur,uns,eine,101,die,damals,fuhren,verbraucht,Bürgermeister,Tropfen,immer,Rand,Studium,in,saftigen,in,Sonne,braunen,suchen,keine,schlug,wurden,wurden,Ankunft,Kleidung,wussten,gebrauchter,trotz,verbraucht,60,,,,,,,,,,,,,,,,,,,,,,,11,0,11,0,0,2,2,2,,,,,,,,space,0.464770078659,,,,,,2017_Jan_23_1300,59.4134445401,spr_backupper,001,Mo13,
,Kleidung,die,wissen,große,Berge,gehören,beteiligten,mit,gedachte,wir,die,kleinere,Hemd,beteiligter,der,werden,der,rote,gehören,königliches,wurde,Masse,Fleisch,aus,wieder,wurden,Berge,schon,kann,wurde,Größe,dem,wir,wissen,kann,las,Leinwand,Größe,kann,Lust,mit,Zucker,er,kann,des,Auto,Menge,stand,hat,mit,Masse,Menge,Liter,mit,gedachte,aus,Mann,dann,roter,die,"sporadisch,",des,Mond,durch,mit,beschuldigten,können,wieder,kleinere,durch,große,hält,Erlebnisse,schnell,mit,260.000,beschuldigten,königlichen,auf,der,habe,Dänemark,Fleischs,Dänemark,"unterging,",Zuckers,die,Lust,"sporadisch,",unter,mit,stand,bei,überwiegend,Kleidung,dem,260.000,Liter,,,,,,,,,,,,,,,,,,,,,,,11,0,11,0,0,3,3,3,,,,,,,,space,0.538400888443,,,,,,2017_Jan_23_1300,59.4134445401,spr_backupper,001,Mo13,
,landen,Stimmung,wir,Packung,schmutziger,immer,Fahrer,dauerhaftem,man,den,richtige,"Delikte,",aus,Fahrer,vierte,die,Stadt,Farbe,immer,Blut,jetzt,mit,wurden,"wertvollem,",viel,mit,schmutzige,bei,ich,schon,36,schönen,den,wir,man,ich,aus,36,man,auf,"minimalem,",sind,"trug,",ich,schönen,dem,alten,ein,uns,"reichlichem,",mit,alten,sprudelndes,"sämtlichem,",man,"Japan,",das,mit,Farbe,Wohnung,obwohl,bekannten,dauerte,Büschel,solchen,die,Neuwahlen,viel,"Delikte,",Büschel,Packung,nicht,bei,dank,solch,Kilowattstunden,die,Bluts,warmem,Stadt,ich,einen,wurden,gelegentlich,war,sind,Wohnung,auf,obschon,"regelmäßigem,","üblichem,",ein,ausreichendem,"nicht,",landen,bekannten,Kilowattstunden,sprudelnden,,,,,,,,,,,,,,,,,,,,,,,11,0,11,0,0,4,4,4,,,,,,,,space,0.510847806931,,,,,,2017_Jan_23_1300,59.4134445401,spr_backupper,001,Mo13,
,im,ziemlich,von,salziger,Wäsche.,350,wurden,feinem,der,roten,"Zeit,",derer,feinem,wurden,Bundespräsident.,Tiere,liegen,geschleudert.,350,hat,"nachgewiesen,",einem,serviert.,klassischen,Lärm,zusätzlichem,Wäsche.,minimalem,leider,immer,hätten,Wetter,roten,um,eine,mehr,seltenem,würden,eine,noch,sauberen,auf,war,leider,Wetters,Mann,Kram,Glas,die,purem,einem,Krams,Trinkwasser.,künftigem,den,die,Auto,"reichem,",geschleudert.,des,sie,Skandals,ungefähr,frisches,unzureichenden,Störenfriede,vor,Lärm,deren,frischen,salzige,am,"frischem,",täglichem,unzureichenden,elektrischer,Störenfriede,hat,weichem,liegen,mehr,gelegentlichen,serviert.,einen,die,auf,des,noch,sie,kaltem,harten,Glas,monatlichem,was,im,Skandal,elektrische,Trinkwassers.,,,,,,,,,,,,,,,,,,,,,,,11,0,11,0,0,5,5,5,,,,,,,,space,0.518471956253,,,,,,2017_Jan_23_1300,59.4134445401,spr_backupper,001,Mo13,
,Müll.,"vermiest,",den,Wurst,nan,ml,verschrottet.,Kunsteis,Soldaten,Planeten,um,sie,dichten,verschrottet.,nan,artgerecht,die,nan,ml,den,dass,Esslöffel,nan,Schmuck,um,schwarzem,nan,täglichen,nichts,ruhig,seiner,die,Planet,die,große,als,dichten,seiner,große,eine,Kraftstoff,jeden,aus,nichts,die,mehr,aus,köstlicher,Stimmung,Alkohol,Esslöffel,aus,nan,Einkommen,Soldaten,er,mehr,goldenen,nan,Herrn,defekt,wiedergewählt.,drei,Gras,Helmen,jeden.,Dezember,um,sie,Grases,Wurst,Hauptbahnhof.,kaltem,grünen,Helmen,Energie.,jeden.,den,Untergrund,die,als,Besucher.,nan,Besucher.,Flut,jeden,Herrn,eine,defekt,Abduschen,Schaumstoff,köstlichen,Taschengeld,Tupperware,Müll.,wiedergewählt.,Energie.,nan,,,,,,,,,,,,,,,,,,,,,,,11,0,11,0,0,6,6,6,,,,,,,,space,0.922549962997,,,,,,2017_Jan_23_1300,59.4134445401,spr_backupper,001,Mo13,
,nan,dass,Problemen,mit,nan,warme,nan,eingesprüht.,des,ganz,Nadelhölzer,überführt,Stoff,nan,nan,gehalten.,Slums.,nan,warmer,Boden,das,warmen,nan,umgearbeitet.,jede,Kaffee,nan,Einsatz,mitbringen.,diskutiert.,Frau,Wohnung.,ganz,Probleme,Menge,einmal,Gewebe,Frau,Menge,Sammlung,fahren.,Fall,Japan.,mitbringen.,Wohnung.,als,dem,Wein,ziemlich,verdünnt.,warmem,dem,nan,haftbar.,des,trug.,als,Besatz,nan,Gantenbeins.,war.,nan,Tage.,zwängen.,zur,nan,stattfinden.,jede,überführt,zwängen.,mit,nan,Saft,Tee,zur,nan,nan,Boden,liegen.,Slums.,einmal,nan,nan,nan,zurückgekehrt.,Fall,Gantenbein.,Sammlung,war.,gehärtet.,gefertigt.,Weins,selber,ist.,nan,nan,nan,nan,,,,,,,,,,,,,,,,,,,,,,,11,0,11,0,0,7,7,7,,,,,,,,space,1.22089910507,,,,,,2017_Jan_23_1300,59.4134445401,spr_backupper,001,Mo13,
,nan,es,im,an,nan,Milch.,nan,nan,zweiten,deutlich.,umzusetzen.,wurden.,gefertigt.,nan,nan,nan,nan,nan,Milch.,berührt.,Medikament,Honigs,nan,nan,Menge,wiederbelebt.,nan,sinken.,nan,nan,gepasst.,nan,deutlich.,im,dunkler,Rilke.,wiederhergestellt.,gepasst,dunkle,dumme,nan,genug.,nan,nan,nan,gerne.,Haus,schon,vermiest.,nan,Honig,Haus,nan,nan,zweiten,nan,gerne.,rekonstruiert.,nan,nan,nan,nan,nan,nan,Schule.,nan,nan,Menge,wurden.,nan,an,nan,besprochen.,wieder,Schule.,nan,nan,berührt.,nan,nan,Rilke,nan,nan,nan,nan,genug.,nan,dummer,nan,nan,nan,schon,kaufen.,nan,nan,nan,nan,nan,,,,,,,,,,,,,,,,,,,,,,,11,0,11,0,0,8,8,8,,,,,,,,space,0.538587808609,,,,,,2017_Jan_23_1300,59.4134445401,spr_backupper,001,Mo13,
,nan,regnete.,Landkreis.,den,nan,nan,nan,nan,Weltkriegs.,nan,nan,nan,nan,nan,nan,nan,nan,nan,nan,nan,nicht,her.,nan,nan,heißer,nan,nan,nan,nan,nan,nan,nan,nan,Landkreis.,Materie,nan,nan,haben.,Materie,Sprüche.,nan,nan,nan,nan,nan,nan,geschafft.,auf,nan,nan,her.,geschafft.,nan,nan,Weltkriegs.,nan,nan,nan,nan,nan,nan,nan,nan,nan,nan,nan,nan,heiße,nan,nan,den,nan,nan,fit.,nan,nan,nan,nan,nan,nan,gelesen.,nan,nan,nan,nan,nan,nan,Sprüche.,nan,nan,nan,auf,nan,nan,nan,nan,nan,nan,,,,,,,,,,,,,,,,,,,,,,,11,0,11,0,0,9,9,9,,,,,,,,space,1.56724095345,,,,,,2017_Jan_23_1300,59.4134445401,spr_backupper,001,Mo13,
,,,,,,,,,,,,,,,,,,,,,,,,,,,,,,,,,,,,,,,,,,,,,,,,,,,,,,,,,,,,,,,,,,,,,,,,,,,,,,,,,,,,,,,,,,,,,,,,,,,,,,,,,,,,,,,,,,,,,,,,,11,0,11,0,,,,,,,,,,,,,,None,n,7.08878993988,,,2017_Jan_23_1300,59.4134445401,spr_backupper,001,Mo13,
,Viele,Es,In,Ich,Dort,In,Die,Die,Bei,Im,Jetzt,Es,Er,Die,Walter,In,Am,Es,In,Nicht,In,Er,Beträchtliche,Die,Man,Die,Dort,Ihr,Außer,Fernab,Die,Sie,Im,In,Mit,In,Danach,Die,Mit,Sie,Wir,100,Die,Außer,Sie,Wir,Wir,Bei,Dass,Die,Er,Wir,Sie,Manche,Bei,Die,Wir,Das,Es,Die,Die,Er,Der,Wir,Die,Außer,Unter,Man,Es,Wir,Ich,Die,Sie,Ich,Die,Die,Außer,Nicht,Jungtiere,Am,In,Wir,Beträchtliche,Wir,Als,100,Die,Sie,Die,Die,Alle,Bei,Jugendliche,Die,Viele,Er,Die,Sie,,,,,,,,,,,,,,,,,,,,,,,12,0,12,0,0,0,0,0,,,,,,,None,space,1.14214992523,,,,,,2017_Jan_23_1300,59.4134445401,spr_backupper,001,Mo13,
,Tonnen,hat,der,nehme,türmen,den,Autos,Eislaufbahnen,der,Fernrohr,ist,waren,hat,Autos,Scheel,diesem,äußeren,wurden,den,ein,einer,stellt,Stücke,Stücke,machte,müden,türmen,Blutdruck,das,des,Schuhe,verlassen,Fernrohr,der,dieser,meinem,wurde,Schuhe,dieser,hatte,konnten,g,"Uhr,",dem,verlassen,übergaben,haben,unserer,es,Lösung,stellt,haben,verbrauchen,Kreditnehmer,der,Uhr,übergaben,Tuch,wurden,Gäste,Uhr,wurde,Flug,mussten,Kinder,den,keinen,machte,waren,mussten,nehme,Linie,haben,wurde,Kinder,Schule,dem,ein,sollten,äußersten,meinem,hatten,Stücke,hatten,die,g,Gäste,hatte,Uhr,Formen,Betten,unserer,können,Teilnehmerinnen,Tonnen,wurde,Schule,verbrauchen,,,,,,,,,,,,,,,,,,,,,,,12,0,12,0,0,1,1,1,,,,,,,,space,0.423792123795,,,,,,2017_Jan_23_1300,59.4134445401,spr_backupper,001,Mo13,
,gebrauchte,uns,Tat,eine,sich,Kakao,beider,wurden,Feier,sahen,genau,nur,ein,beider,war,Zirkus,Rand,Eimer,Kakao,Tropfen,Studie,die,saftiges,wurden,mal,Teilnehmer,sich,kann,Essen,Rummels,in,wegen,sahen,Tat,Methode,Studium,die,in,Methode,keine,dann,brauner,die,Essen,wegen,das,jede,Ankunft,"regnete,",wird,die,jede,60,sind,Feier,war,dem,wurde,Eimer,suchen,schlug,trotz,zum,uns,fuhren,Bürgermeister,Umständen,mal,nur,uns,eine,101,die,damals,fuhren,verbraucht,Bürgermeister,Tropfen,immer,Rand,Studium,in,saftigen,in,Sonne,braunen,suchen,keine,schlug,wurden,wurden,Ankunft,Kleidung,wussten,gebrauchter,trotz,verbraucht,60,,,,,,,,,,,,,,,,,,,,,,,12,0,12,0,0,2,2,2,,,,,,,,space,0.458031892776,,,,,,2017_Jan_23_1300,59.4134445401,spr_backupper,001,Mo13,
,Kleidung,die,wissen,große,Berge,gehören,beteiligten,mit,gedachte,wir,die,kleinere,Hemd,beteiligter,der,werden,der,rote,gehören,königliches,wurde,Masse,Fleisch,aus,wieder,wurden,Berge,schon,kann,wurde,Größe,dem,wir,wissen,kann,las,Leinwand,Größe,kann,Lust,mit,Zucker,er,kann,des,Auto,Menge,stand,hat,mit,Masse,Menge,Liter,mit,gedachte,aus,Mann,dann,roter,die,"sporadisch,",des,Mond,durch,mit,beschuldigten,können,wieder,kleinere,durch,große,hält,Erlebnisse,schnell,mit,260.000,beschuldigten,königlichen,auf,der,habe,Dänemark,Fleischs,Dänemark,"unterging,",Zuckers,die,Lust,"sporadisch,",unter,mit,stand,bei,überwiegend,Kleidung,dem,260.000,Liter,,,,,,,,,,,,,,,,,,,,,,,12,0,12,0,0,3,3,3,,,,,,,,space,0.420596122742,,,,,,2017_Jan_23_1300,59.4134445401,spr_backupper,001,Mo13,
,landen,Stimmung,wir,Packung,schmutziger,immer,Fahrer,dauerhaftem,man,den,richtige,"Delikte,",aus,Fahrer,vierte,die,Stadt,Farbe,immer,Blut,jetzt,mit,wurden,"wertvollem,",viel,mit,schmutzige,bei,ich,schon,36,schönen,den,wir,man,ich,aus,36,man,auf,"minimalem,",sind,"trug,",ich,schönen,dem,alten,ein,uns,"reichlichem,",mit,alten,sprudelndes,"sämtlichem,",man,"Japan,",das,mit,Farbe,Wohnung,obwohl,bekannten,dauerte,Büschel,solchen,die,Neuwahlen,viel,"Delikte,",Büschel,Packung,nicht,bei,dank,solch,Kilowattstunden,die,Bluts,warmem,Stadt,ich,einen,wurden,gelegentlich,war,sind,Wohnung,auf,obschon,"regelmäßigem,","üblichem,",ein,ausreichendem,"nicht,",landen,bekannten,Kilowattstunden,sprudelnden,,,,,,,,,,,,,,,,,,,,,,,12,0,12,0,0,4,4,4,,,,,,,,space,0.362933158875,,,,,,2017_Jan_23_1300,59.4134445401,spr_backupper,001,Mo13,
,im,ziemlich,von,salziger,Wäsche.,350,wurden,feinem,der,roten,"Zeit,",derer,feinem,wurden,Bundespräsident.,Tiere,liegen,geschleudert.,350,hat,"nachgewiesen,",einem,serviert.,klassischen,Lärm,zusätzlichem,Wäsche.,minimalem,leider,immer,hätten,Wetter,roten,um,eine,mehr,seltenem,würden,eine,noch,sauberen,auf,war,leider,Wetters,Mann,Kram,Glas,die,purem,einem,Krams,Trinkwasser.,künftigem,den,die,Auto,"reichem,",geschleudert.,des,sie,Skandals,ungefähr,frisches,unzureichenden,Störenfriede,vor,Lärm,deren,frischen,salzige,am,"frischem,",täglichem,unzureichenden,elektrischer,Störenfriede,hat,weichem,liegen,mehr,gelegentlichen,serviert.,einen,die,auf,des,noch,sie,kaltem,harten,Glas,monatlichem,was,im,Skandal,elektrische,Trinkwassers.,,,,,,,,,,,,,,,,,,,,,,,12,0,12,0,0,5,5,5,,,,,,,,space,0.570166826248,,,,,,2017_Jan_23_1300,59.4134445401,spr_backupper,001,Mo13,
,Müll.,"vermiest,",den,Wurst,nan,ml,verschrottet.,Kunsteis,Soldaten,Planeten,um,sie,dichten,verschrottet.,nan,artgerecht,die,nan,ml,den,dass,Esslöffel,nan,Schmuck,um,schwarzem,nan,täglichen,nichts,ruhig,seiner,die,Planet,die,große,als,dichten,seiner,große,eine,Kraftstoff,jeden,aus,nichts,die,mehr,aus,köstlicher,Stimmung,Alkohol,Esslöffel,aus,nan,Einkommen,Soldaten,er,mehr,goldenen,nan,Herrn,defekt,wiedergewählt.,drei,Gras,Helmen,jeden.,Dezember,um,sie,Grases,Wurst,Hauptbahnhof.,kaltem,grünen,Helmen,Energie.,jeden.,den,Untergrund,die,als,Besucher.,nan,Besucher.,Flut,jeden,Herrn,eine,defekt,Abduschen,Schaumstoff,köstlichen,Taschengeld,Tupperware,Müll.,wiedergewählt.,Energie.,nan,,,,,,,,,,,,,,,,,,,,,,,12,0,12,0,0,6,6,6,,,,,,,,space,0.487459182739,,,,,,2017_Jan_23_1300,59.4134445401,spr_backupper,001,Mo13,
,nan,dass,Problemen,mit,nan,warme,nan,eingesprüht.,des,ganz,Nadelhölzer,überführt,Stoff,nan,nan,gehalten.,Slums.,nan,warmer,Boden,das,warmen,nan,umgearbeitet.,jede,Kaffee,nan,Einsatz,mitbringen.,diskutiert.,Frau,Wohnung.,ganz,Probleme,Menge,einmal,Gewebe,Frau,Menge,Sammlung,fahren.,Fall,Japan.,mitbringen.,Wohnung.,als,dem,Wein,ziemlich,verdünnt.,warmem,dem,nan,haftbar.,des,trug.,als,Besatz,nan,Gantenbeins.,war.,nan,Tage.,zwängen.,zur,nan,stattfinden.,jede,überführt,zwängen.,mit,nan,Saft,Tee,zur,nan,nan,Boden,liegen.,Slums.,einmal,nan,nan,nan,zurückgekehrt.,Fall,Gantenbein.,Sammlung,war.,gehärtet.,gefertigt.,Weins,selber,ist.,nan,nan,nan,nan,,,,,,,,,,,,,,,,,,,,,,,12,0,12,0,0,7,7,7,,,,,,,,space,0.41330909729,,,,,,2017_Jan_23_1300,59.4134445401,spr_backupper,001,Mo13,
,nan,es,im,an,nan,Milch.,nan,nan,zweiten,deutlich.,umzusetzen.,wurden.,gefertigt.,nan,nan,nan,nan,nan,Milch.,berührt.,Medikament,Honigs,nan,nan,Menge,wiederbelebt.,nan,sinken.,nan,nan,gepasst.,nan,deutlich.,im,dunkler,Rilke.,wiederhergestellt.,gepasst,dunkle,dumme,nan,genug.,nan,nan,nan,gerne.,Haus,schon,vermiest.,nan,Honig,Haus,nan,nan,zweiten,nan,gerne.,rekonstruiert.,nan,nan,nan,nan,nan,nan,Schule.,nan,nan,Menge,wurden.,nan,an,nan,besprochen.,wieder,Schule.,nan,nan,berührt.,nan,nan,Rilke,nan,nan,nan,nan,genug.,nan,dummer,nan,nan,nan,schon,kaufen.,nan,nan,nan,nan,nan,,,,,,,,,,,,,,,,,,,,,,,12,0,12,0,0,8,8,8,,,,,,,,space,0.566256999969,,,,,,2017_Jan_23_1300,59.4134445401,spr_backupper,001,Mo13,
,nan,regnete.,Landkreis.,den,nan,nan,nan,nan,Weltkriegs.,nan,nan,nan,nan,nan,nan,nan,nan,nan,nan,nan,nicht,her.,nan,nan,heißer,nan,nan,nan,nan,nan,nan,nan,nan,Landkreis.,Materie,nan,nan,haben.,Materie,Sprüche.,nan,nan,nan,nan,nan,nan,geschafft.,auf,nan,nan,her.,geschafft.,nan,nan,Weltkriegs.,nan,nan,nan,nan,nan,nan,nan,nan,nan,nan,nan,nan,heiße,nan,nan,den,nan,nan,fit.,nan,nan,nan,nan,nan,nan,gelesen.,nan,nan,nan,nan,nan,nan,Sprüche.,nan,nan,nan,auf,nan,nan,nan,nan,nan,nan,,,,,,,,,,,,,,,,,,,,,,,12,0,12,0,0,9,9,9,,,,,,,,space,0.571036100388,,,,,,2017_Jan_23_1300,59.4134445401,spr_backupper,001,Mo13,
,nan,nan,nan,See.,nan,nan,nan,nan,nan,nan,nan,nan,nan,nan,nan,nan,nan,nan,nan,nan,wirkt.,nan,nan,nan,Luft.,nan,nan,nan,nan,nan,nan,nan,nan,nan,erzeugen.,nan,nan,nan,erzeugen.,nan,nan,nan,nan,nan,nan,nan,nan,dem,nan,nan,nan,nan,nan,nan,nan,nan,nan,nan,nan,nan,nan,nan,nan,nan,nan,nan,nan,Luft.,nan,nan,See.,nan,nan,nan,nan,nan,nan,nan,nan,nan,nan,nan,nan,nan,nan,nan,nan,nan,nan,nan,nan,dem,nan,nan,nan,nan,nan,nan,,,,,,,,,,,,,,,,,,,,,,,12,0,12,0,0,10,10,10,,,,,,,,space,0.636111974716,,,,,,2017_Jan_23_1300,59.4134445401,spr_backupper,001,Mo13,
,,,,,,,,,,,,,,,,,,,,,,,,,,,,,,,,,,,,,,,,,,,,,,,,,,,,,,,,,,,,,,,,,,,,,,,,,,,,,,,,,,,,,,,,,,,,,,,,,,,,,,,,,,,,,,,,,,,,,,,,,12,0,12,0,,,,,,,,,,,,,,None,n,1.95193386078,,,2017_Jan_23_1300,59.4134445401,spr_backupper,001,Mo13,
,Viele,Es,In,Ich,Dort,In,Die,Die,Bei,Im,Jetzt,Es,Er,Die,Walter,In,Am,Es,In,Nicht,In,Er,Beträchtliche,Die,Man,Die,Dort,Ihr,Außer,Fernab,Die,Sie,Im,In,Mit,In,Danach,Die,Mit,Sie,Wir,100,Die,Außer,Sie,Wir,Wir,Bei,Dass,Die,Er,Wir,Sie,Manche,Bei,Die,Wir,Das,Es,Die,Die,Er,Der,Wir,Die,Außer,Unter,Man,Es,Wir,Ich,Die,Sie,Ich,Die,Die,Außer,Nicht,Jungtiere,Am,In,Wir,Beträchtliche,Wir,Als,100,Die,Sie,Die,Die,Alle,Bei,Jugendliche,Die,Viele,Er,Die,Sie,,,,,,,,,,,,,,,,,,,,,,,13,0,13,0,0,0,0,0,,,,,,,None,space,1.47461390495,,,,,,2017_Jan_23_1300,59.4134445401,spr_backupper,001,Mo13,
,Tonnen,hat,der,nehme,türmen,den,Autos,Eislaufbahnen,der,Fernrohr,ist,waren,hat,Autos,Scheel,diesem,äußeren,wurden,den,ein,einer,stellt,Stücke,Stücke,machte,müden,türmen,Blutdruck,das,des,Schuhe,verlassen,Fernrohr,der,dieser,meinem,wurde,Schuhe,dieser,hatte,konnten,g,"Uhr,",dem,verlassen,übergaben,haben,unserer,es,Lösung,stellt,haben,verbrauchen,Kreditnehmer,der,Uhr,übergaben,Tuch,wurden,Gäste,Uhr,wurde,Flug,mussten,Kinder,den,keinen,machte,waren,mussten,nehme,Linie,haben,wurde,Kinder,Schule,dem,ein,sollten,äußersten,meinem,hatten,Stücke,hatten,die,g,Gäste,hatte,Uhr,Formen,Betten,unserer,können,Teilnehmerinnen,Tonnen,wurde,Schule,verbrauchen,,,,,,,,,,,,,,,,,,,,,,,13,0,13,0,0,1,1,1,,,,,,,,space,1.13865995407,,,,,,2017_Jan_23_1300,59.4134445401,spr_backupper,001,Mo13,
,gebrauchte,uns,Tat,eine,sich,Kakao,beider,wurden,Feier,sahen,genau,nur,ein,beider,war,Zirkus,Rand,Eimer,Kakao,Tropfen,Studie,die,saftiges,wurden,mal,Teilnehmer,sich,kann,Essen,Rummels,in,wegen,sahen,Tat,Methode,Studium,die,in,Methode,keine,dann,brauner,die,Essen,wegen,das,jede,Ankunft,"regnete,",wird,die,jede,60,sind,Feier,war,dem,wurde,Eimer,suchen,schlug,trotz,zum,uns,fuhren,Bürgermeister,Umständen,mal,nur,uns,eine,101,die,damals,fuhren,verbraucht,Bürgermeister,Tropfen,immer,Rand,Studium,in,saftigen,in,Sonne,braunen,suchen,keine,schlug,wurden,wurden,Ankunft,Kleidung,wussten,gebrauchter,trotz,verbraucht,60,,,,,,,,,,,,,,,,,,,,,,,13,0,13,0,0,2,2,2,,,,,,,,space,0.754017114639,,,,,,2017_Jan_23_1300,59.4134445401,spr_backupper,001,Mo13,
,Kleidung,die,wissen,große,Berge,gehören,beteiligten,mit,gedachte,wir,die,kleinere,Hemd,beteiligter,der,werden,der,rote,gehören,königliches,wurde,Masse,Fleisch,aus,wieder,wurden,Berge,schon,kann,wurde,Größe,dem,wir,wissen,kann,las,Leinwand,Größe,kann,Lust,mit,Zucker,er,kann,des,Auto,Menge,stand,hat,mit,Masse,Menge,Liter,mit,gedachte,aus,Mann,dann,roter,die,"sporadisch,",des,Mond,durch,mit,beschuldigten,können,wieder,kleinere,durch,große,hält,Erlebnisse,schnell,mit,260.000,beschuldigten,königlichen,auf,der,habe,Dänemark,Fleischs,Dänemark,"unterging,",Zuckers,die,Lust,"sporadisch,",unter,mit,stand,bei,überwiegend,Kleidung,dem,260.000,Liter,,,,,,,,,,,,,,,,,,,,,,,13,0,13,0,0,3,3,3,,,,,,,,space,0.399484157562,,,,,,2017_Jan_23_1300,59.4134445401,spr_backupper,001,Mo13,
,landen,Stimmung,wir,Packung,schmutziger,immer,Fahrer,dauerhaftem,man,den,richtige,"Delikte,",aus,Fahrer,vierte,die,Stadt,Farbe,immer,Blut,jetzt,mit,wurden,"wertvollem,",viel,mit,schmutzige,bei,ich,schon,36,schönen,den,wir,man,ich,aus,36,man,auf,"minimalem,",sind,"trug,",ich,schönen,dem,alten,ein,uns,"reichlichem,",mit,alten,sprudelndes,"sämtlichem,",man,"Japan,",das,mit,Farbe,Wohnung,obwohl,bekannten,dauerte,Büschel,solchen,die,Neuwahlen,viel,"Delikte,",Büschel,Packung,nicht,bei,dank,solch,Kilowattstunden,die,Bluts,warmem,Stadt,ich,einen,wurden,gelegentlich,war,sind,Wohnung,auf,obschon,"regelmäßigem,","üblichem,",ein,ausreichendem,"nicht,",landen,bekannten,Kilowattstunden,sprudelnden,,,,,,,,,,,,,,,,,,,,,,,13,0,13,0,0,4,4,4,,,,,,,,space,0.855480909348,,,,,,2017_Jan_23_1300,59.4134445401,spr_backupper,001,Mo13,
,im,ziemlich,von,salziger,Wäsche.,350,wurden,feinem,der,roten,"Zeit,",derer,feinem,wurden,Bundespräsident.,Tiere,liegen,geschleudert.,350,hat,"nachgewiesen,",einem,serviert.,klassischen,Lärm,zusätzlichem,Wäsche.,minimalem,leider,immer,hätten,Wetter,roten,um,eine,mehr,seltenem,würden,eine,noch,sauberen,auf,war,leider,Wetters,Mann,Kram,Glas,die,purem,einem,Krams,Trinkwasser.,künftigem,den,die,Auto,"reichem,",geschleudert.,des,sie,Skandals,ungefähr,frisches,unzureichenden,Störenfriede,vor,Lärm,deren,frischen,salzige,am,"frischem,",täglichem,unzureichenden,elektrischer,Störenfriede,hat,weichem,liegen,mehr,gelegentlichen,serviert.,einen,die,auf,des,noch,sie,kaltem,harten,Glas,monatlichem,was,im,Skandal,elektrische,Trinkwassers.,,,,,,,,,,,,,,,,,,,,,,,13,0,13,0,0,5,5,5,,,,,,,,space,1.14080691338,,,,,,2017_Jan_23_1300,59.4134445401,spr_backupper,001,Mo13,
