text,sent48,sent9,sent8,sent15,sent3,sent2,sent1,sent14,sent7,sent6,sent5,sent4,sent57,sent56,sent55,sent54,sent53,sent52,sent51,sent50,sent13,sent12,sent11,sent10,sent17,sent16,sent59,sent58,sent93,sent92,sent91,sent90,sent97,sent96,sent95,sent94,sent98,sent22,sent23,sent20,sent21,sent26,sent27,sent24,sent25,sent28,sent29,sent68,sent69,sent66,sent67,sent64,sent65,sent62,sent63,sent60,sent61,sent31,sent30,sent33,sent32,sent35,sent34,sent37,sent36,sent39,sent38,sent79,sent78,sent75,sent74,sent77,sent76,sent71,sent70,sent73,sent72,sent19,sent49,sent18,sent44,sent45,sent84,sent85,sent86,sent87,sent80,sent81,sent82,sent83,sent40,sent41,sent42,sent43,sent88,sent89,sent46,sent47,intros.thisRepN,intros.thisTrialN,intros.thisN,intros.thisIndex,trials.thisRepN,trials.thisTrialN,trials.thisN,trials.thisIndex,testWords.thisRepN,testWords.thisTrialN,testWords.thisN,testWords.thisIndex,test1,test3,test2,test5,test4,test7,test6,test9,test8,test10,realTrials.thisRepN,realTrials.thisTrialN,realTrials.thisN,realTrials.thisIndex,words.thisRepN,words.thisTrialN,words.thisN,words.thisIndex,key_resp_3.keys,key_resp_3.rt,key_resp_8.keys,key_resp_10.keys,key_resp_10.rt,key_resp_6.keys,wordRead.keys,wordRead.rt,key_resp_5.keys,questAnswer.keys,questAnswer.rt,key_resp_6.rt,date,frameRate,expName,session,participant,
"Vielen Dank, dass Sie an diesem Experiment teilnehmen. Vor dem eigentlichen Experiment sehen Sie nun zuerst eine kurze Erläuterung, und Sie absolvieren ein kurze Übungsphase.

Das Experiment dauert insgesamt nicht mehr als 45 Minuten.",,,,,,,,,,,,,,,,,,,,,,,,,,,,,,,,,,,,,,,,,,,,,,,,,,,,,,,,,,,,,,,,,,,,,,,,,,,,,,,,,,,,,,,,,,,,,,,,,,,0,0,0,0,,,,,,,,,,,,,,,,,,,,,,,,,,,,,,,,,,,,,,,2017_Jan_31_1506,59.8515947853,spr_backupper,001,Mo14,
"In diesem Experiment lesen Sie deutsche Sätze, indem Sie sich von Wort zu Wort mit der Leertaste durch den Satz klicken.",,,,,,,,,,,,,,,,,,,,,,,,,,,,,,,,,,,,,,,,,,,,,,,,,,,,,,,,,,,,,,,,,,,,,,,,,,,,,,,,,,,,,,,,,,,,,,,,,,,0,1,1,1,,,,,,,,,,,,,,,,,,,,,,,,,,,,,,,,,,,,,,,2017_Jan_31_1506,59.8515947853,spr_backupper,001,Mo14,
"Sie sehen dabei immer nur das aktuelle Wort. Die Lesegeschwindigkeit bestimmen Sie vollständig selber. Vor jedem Satz sehen Sie in der Bildschirmmitte für zwei Sekunden ein + an der Stelle, an der dann die Wörter erscheinen.",,,,,,,,,,,,,,,,,,,,,,,,,,,,,,,,,,,,,,,,,,,,,,,,,,,,,,,,,,,,,,,,,,,,,,,,,,,,,,,,,,,,,,,,,,,,,,,,,,,0,2,2,2,,,,,,,,,,,,,,,,,,,,,,,,,,,,,,,,,,,,,,,2017_Jan_31_1506,59.8515947853,spr_backupper,001,Mo14,
"Nach jedem Satz wird Ihnen eine Ja/Nein-Verständnisfrage zum zuvor gelesenen Satz gestellt, die Sie mit der J-Taste für "Ja" und der N-Taste für "Nein" beantworten. Antworten Sie möglichst spontan und ohne lange Nachzudenken.",,,,,,,,,,,,,,,,,,,,,,,,,,,,,,,,,,,,,,,,,,,,,,,,,,,,,,,,,,,,,,,,,,,,,,,,,,,,,,,,,,,,,,,,,,,,,,,,,,,0,3,3,3,,,,,,,,,,,,,,,,,,,,,,,,,,,,,,,,,,,,,,,2017_Jan_31_1506,59.8515947853,spr_backupper,001,Mo14,
"Unterbrechen Sie das Experiment bitte auf keinen Fall, stellen Sie den ExperimentatorInnen nach dem Experimentbeginn keine Fragen, und lassen Sie sich nicht durch Umgebungsgeräusche ablenken.",,,,,,,,,,,,,,,,,,,,,,,,,,,,,,,,,,,,,,,,,,,,,,,,,,,,,,,,,,,,,,,,,,,,,,,,,,,,,,,,,,,,,,,,,,,,,,,,,,,0,4,4,4,,,,,,,,,,,,,,,,,,,,,,,,,,,,,,,,,,,,,,,2017_Jan_31_1506,59.8515947853,spr_backupper,001,Mo14,
"Im nächsten Schritt beantworten Sie bitte eine Frage zu Ihren Deutschkenntnissen. Danach beginnt eine Übungseinheit, mit der Sie sich an die Art der Durchführung dieses Experiments gewöhnen können.",,,,,,,,,,,,,,,,,,,,,,,,,,,,,,,,,,,,,,,,,,,,,,,,,,,,,,,,,,,,,,,,,,,,,,,,,,,,,,,,,,,,,,,,,,,,,,,,,,,0,5,5,5,,,,,,,,,,,,,,,,,,,,,,,,,,,,,,,,,,,,,,,2017_Jan_31_1506,59.8515947853,spr_backupper,001,Mo14,
,,,,,,,,,,,,,,,,,,,,,,,,,,,,,,,,,,,,,,,,,,,,,,,,,,,,,,,,,,,,,,,,,,,,,,,,,,,,,,,,,,,,,,,,,,,,,,,,,,,,,,,,,,,,,,,,,,,,,,,,,,,,,,,,,j,6.08716511726,,,,,,,,,,,2017_Jan_31_1506,59.8515947853,spr_backupper,001,Mo14,
,,,,,,,,,,,,,,,,,,,,,,,,,,,,,,,,,,,,,,,,,,,,,,,,,,,,,,,,,,,,,,,,,,,,,,,,,,,,,,,,,,,,,,,,,,,,,,,,,,,,,,,0,0,0,0,,,,,,,,,,,,,,,,,,,,,,,,,None,,,,,,,,,,2017_Jan_31_1506,59.8515947853,spr_backupper,001,Mo14,
,,,,,,,,,,,,,,,,,,,,,,,,,,,,,,,,,,,,,,,,,,,,,,,,,,,,,,,,,,,,,,,,,,,,,,,,,,,,,,,,,,,,,,,,,,,,,,,,,,,,,,,1,0,1,0,,,,,,,,,,,,,,,,,,,,,,,,,None,,,,,,,,,,2017_Jan_31_1506,59.8515947853,spr_backupper,001,Mo14,
,,,,,,,,,,,,,,,,,,,,,,,,,,,,,,,,,,,,,,,,,,,,,,,,,,,,,,,,,,,,,,,,,,,,,,,,,,,,,,,,,,,,,,,,,,,,,,,,,,,,,,,2,0,2,0,,,,,,,,,,,,,,,,,,,,,,,,,None,,,,,,,,,,2017_Jan_31_1506,59.8515947853,spr_backupper,001,Mo14,
,,,,,,,,,,,,,,,,,,,,,,,,,,,,,,,,,,,,,,,,,,,,,,,,,,,,,,,,,,,,,,,,,,,,,,,,,,,,,,,,,,,,,,,,,,,,,,,,,,,,,,,3,0,3,0,,,,,,,,,,,,,,,,,,,,,,,,,None,,,,,,,,,,2017_Jan_31_1506,59.8515947853,spr_backupper,001,Mo14,
,,,,,,,,,,,,,,,,,,,,,,,,,,,,,,,,,,,,,,,,,,,,,,,,,,,,,,,,,,,,,,,,,,,,,,,,,,,,,,,,,,,,,,,,,,,,,,,,,,,,,,,4,0,4,0,,,,,,,,,,,,,,,,,,,,,,,,,None,,,,,,,,,,2017_Jan_31_1506,59.8515947853,spr_backupper,001,Mo14,
,,,,,,,,,,,,,,,,,,,,,,,,,,,,,,,,,,,,,,,,,,,,,,,,,,,,,,,,,,,,,,,,,,,,,,,,,,,,,,,,,,,,,,,,,,,,,,,,,,,,,,,5,0,5,0,,,,,,,,,,,,,,,,,,,,,,,,,None,,,,,,,,,,2017_Jan_31_1506,59.8515947853,spr_backupper,001,Mo14,
,,,,,,,,,,,,,,,,,,,,,,,,,,,,,,,,,,,,,,,,,,,,,,,,,,,,,,,,,,,,,,,,,,,,,,,,,,,,,,,,,,,,,,,,,,,,,,,,,,,,,,,6,0,6,0,,,,,,,,,,,,,,,,,,,,,,,,,None,,,,,,,,,,2017_Jan_31_1506,59.8515947853,spr_backupper,001,Mo14,
,,,,,,,,,,,,,,,,,,,,,,,,,,,,,,,,,,,,,,,,,,,,,,,,,,,,,,,,,,,,,,,,,,,,,,,,,,,,,,,,,,,,,,,,,,,,,,,,,,,,,,,7,0,7,0,,,,,,,,,,,,,,,,,,,,,,,,,None,,,,,,,,,,2017_Jan_31_1506,59.8515947853,spr_backupper,001,Mo14,
,,,,,,,,,,,,,,,,,,,,,,,,,,,,,,,,,,,,,,,,,,,,,,,,,,,,,,,,,,,,,,,,,,,,,,,,,,,,,,,,,,,,,,,,,,,,,,,,,,,,,,,8,0,8,0,,,,,,,,,,,,,,,,,,,,,,,,,None,,,,,,,,,,2017_Jan_31_1506,59.8515947853,spr_backupper,001,Mo14,
,,,,,,,,,,,,,,,,,,,,,,,,,,,,,,,,,,,,,,,,,,,,,,,,,,,,,,,,,,,,,,,,,,,,,,,,,,,,,,,,,,,,,,,,,,,,,,,,,,,,,,,9,0,9,0,,,,,,,,,,,,,,,,,,,,,,,,,None,,,,,,,,,,2017_Jan_31_1506,59.8515947853,spr_backupper,001,Mo14,
,,,,,,,,,,,,,,,,,,,,,,,,,,,,,,,,,,,,,,,,,,,,,,,,,,,,,,,,,,,,,,,,,,,,,,,,,,,,,,,,,,,,,,,,,,,,,,,,,,,,,,,,,,,,,,,,,,,,,,,,,,,,,,,,,,,,space,14.506155014,,,,,,,,2017_Jan_31_1506,59.8515947853,spr_backupper,001,Mo14,
,Sie,Die,Die,Sie,Walter,Die,Er,Die,Bei,Bei,Wir,Sie,In,Ich,100,Beträchtliche,Wir,Alle,Außer,Die,Es,Im,Beträchtliche,Ihr,Die,Wir,Es,Wir,Die,Bei,Sie,Jungtiere,Er,Außer,Er,Man,Die,100,Am,Ich,In,In,Nicht,Er,Man,Wir,Fernab,Bei,In,In,Die,Das,Die,Nicht,Unter,Wir,Die,Dort,Außer,Er,Außer,Die,Die,Als,Ich,Viele,Die,Sie,Viele,Die,Im,Die,Die,Die,Wir,Wir,Mit,Die,Die,Danach,In,Dass,Dort,In,Jetzt,Es,Am,Jugendliche,Sie,Der,Wir,Sie,Es,Mit,Es,Die,In,Manche,,,,,,,,,,,,,,,,,,,,,,,0,0,0,0,0,0,0,0,,,,,,None,space,2.48196101189,,,,,2017_Jan_31_1506,59.8515947853,spr_backupper,001,Mo14,
,hatte,Gäste,Lösung,verlassen,Scheel,Schuhe,stellt,Schule,unserer,der,haben,verbrauchen,einer,nehme,g,Stücke,konnten,Betten,den,"Uhr,",wurden,Fernrohr,Stücke,Blutdruck,Uhr,mussten,waren,übergaben,Eislaufbahnen,der,verbrauchen,sollten,stellt,dem,wurde,machte,Schuhe,g,äußeren,wurde,den,meinem,ein,wurde,machte,hatten,des,unserer,der,den,Stücke,Tuch,Uhr,ein,keinen,hatten,Teilnehmerinnen,türmen,das,hat,dem,Autos,Linie,die,nehme,Tonnen,Formen,verlassen,Tonnen,Schule,Fernrohr,Kinder,Autos,Gäste,mussten,haben,dieser,Kinder,Uhr,wurde,diesem,es,türmen,meinem,ist,hat,äußersten,können,hatte,Flug,übergaben,haben,waren,dieser,wurden,müden,der,Kreditnehmer,,,,,,,,,,,,,,,,,,,,,,,0,0,0,0,0,1,1,1,,,,,,,space,0.658525943756,,,,,2017_Jan_31_1506,59.8515947853,spr_backupper,001,Mo14,
,keine,suchen,wird,wegen,war,in,die,verbraucht,Ankunft,Feier,jede,60,Studie,eine,brauner,saftiges,dann,wurden,Bürgermeister,die,Eimer,sahen,saftigen,kann,war,uns,nur,das,wurden,Feier,60,immer,die,Essen,trotz,mal,in,braunen,Rand,damals,Kakao,Studium,Tropfen,trotz,mal,in,Rummels,Ankunft,Tat,Kakao,wurden,wurde,schlug,Tropfen,Umständen,in,wussten,sich,Essen,ein,Bürgermeister,beider,101,Sonne,eine,gebrauchter,wurden,wegen,gebrauchte,verbraucht,sahen,fuhren,beider,suchen,uns,jede,Methode,fuhren,schlug,die,Zirkus,"regnete,",sich,Studium,genau,uns,Rand,Kleidung,keine,zum,dem,die,nur,Methode,Eimer,Teilnehmer,Tat,sind,,,,,,,,,,,,,,,,,,,,,,,0,0,0,0,0,2,2,2,,,,,,,space,0.586905956268,,,,,2017_Jan_31_1506,59.8515947853,spr_backupper,001,Mo14,
,Lust,die,mit,dem,der,Größe,Masse,260.000,stand,gedachte,Menge,Liter,wurde,große,Zucker,Fleisch,mit,mit,beschuldigten,er,rote,wir,Fleischs,schon,aus,durch,kleinere,Auto,mit,gedachte,Liter,auf,Masse,kann,des,wieder,Größe,Zuckers,der,schnell,gehören,las,königliches,dem,wieder,Dänemark,wurde,stand,wissen,gehören,aus,dann,"sporadisch,",königlichen,können,Dänemark,überwiegend,Berge,kann,Hemd,beschuldigten,beteiligter,hält,"unterging,",große,Kleidung,unter,des,Kleidung,260.000,wir,mit,beteiligten,die,durch,Menge,kann,mit,"sporadisch,",Leinwand,werden,hat,Berge,habe,die,die,der,bei,Lust,Mond,Mann,Erlebnisse,kleinere,kann,roter,wurden,wissen,mit,,,,,,,,,,,,,,,,,,,,,,,0,0,0,0,0,3,3,3,,,,,,,space,0.576591968536,,,,,2017_Jan_31_1506,59.8515947853,spr_backupper,001,Mo14,
,auf,Wohnung,"reichlichem,",schönen,vierte,36,mit,Kilowattstunden,ein,man,alten,sprudelndes,jetzt,Packung,sind,wurden,"minimalem,","üblichem,",die,"trug,",Farbe,den,wurden,bei,"Japan,",Büschel,"Delikte,",dem,dauerhaftem,man,sprudelnden,warmem,mit,ich,bekannten,viel,36,sind,Stadt,dank,immer,ich,Blut,bekannten,viel,gelegentlich,schon,ein,wir,immer,"wertvollem,",mit,obwohl,Bluts,Neuwahlen,einen,"nicht,",schmutzige,ich,aus,die,Fahrer,nicht,war,Packung,landen,"regelmäßigem,",schönen,landen,Kilowattstunden,den,solchen,Fahrer,Wohnung,Büschel,alten,man,solch,obschon,aus,die,uns,schmutziger,ich,richtige,Stimmung,Stadt,ausreichendem,auf,dauerte,das,bei,"Delikte,",man,Farbe,mit,wir,"sämtlichem,",,,,,,,,,,,,,,,,,,,,,,,0,0,0,0,0,4,4,4,,,,,,,space,0.638663053513,,,,,2017_Jan_31_1506,59.8515947853,spr_backupper,001,Mo14,
,noch,des,purem,Wetter,Bundespräsident.,hätten,einem,elektrischer,Glas,den,Krams,Trinkwasser.,"nachgewiesen,",salziger,auf,serviert.,sauberen,harten,Störenfriede,war,geschleudert.,roten,serviert.,minimalem,die,frischen,derer,Mann,feinem,der,Trinkwassers.,weichem,einem,leider,Skandals,Lärm,würden,auf,liegen,täglichem,350,mehr,hat,Skandal,Lärm,einen,immer,Glas,von,350,klassischen,"reichem,",sie,hat,vor,gelegentlichen,was,Wäsche.,leider,feinem,Störenfriede,wurden,am,die,salzige,im,kaltem,Wetters,im,elektrische,roten,unzureichenden,wurden,des,frisches,Kram,eine,unzureichenden,sie,seltenem,Tiere,die,Wäsche.,mehr,"Zeit,",ziemlich,liegen,monatlichem,noch,ungefähr,Auto,"frischem,",deren,eine,geschleudert.,zusätzlichem,um,künftigem,,,,,,,,,,,,,,,,,,,,,,,0,0,0,0,0,5,5,5,,,,,,,space,0.835802078247,,,,,2017_Jan_31_1506,59.8515947853,spr_backupper,001,Mo14,
,eine,Herrn,Alkohol,die,nan,seiner,Esslöffel,Energie.,köstlicher,Soldaten,aus,nan,dass,Wurst,jeden,nan,Kraftstoff,Schaumstoff,jeden.,aus,nan,Planet,nan,täglichen,er,Grases,sie,mehr,Kunsteis,Soldaten,nan,Untergrund,Esslöffel,nichts,wiedergewählt.,um,seiner,jeden,die,grünen,ml,als,den,wiedergewählt.,um,Besucher.,ruhig,köstlichen,den,ml,Schmuck,goldenen,defekt,den,Dezember,Besucher.,Tupperware,nan,nichts,dichten,jeden.,verschrottet.,Hauptbahnhof.,Flut,Wurst,Müll.,Abduschen,die,Müll.,Energie.,Planeten,Helmen,verschrottet.,Herrn,Gras,aus,große,Helmen,defekt,dichten,artgerecht,Stimmung,nan,als,um,"vermiest,",die,Taschengeld,eine,drei,mehr,kaltem,sie,große,nan,schwarzem,die,Einkommen,,,,,,,,,,,,,,,,,,,,,,,0,0,0,0,0,6,6,6,,,,,,,space,0.638136863708,,,,,2017_Jan_31_1506,59.8515947853,spr_backupper,001,Mo14,
,Sammlung,Gantenbein.,verdünnt.,Wohnung.,nan,Frau,warmem,nan,Wein,des,dem,nan,das,mit,Fall,nan,fahren.,gefertigt.,nan,Japan.,nan,ganz,nan,Einsatz,trug.,zwängen.,überführt,als,eingesprüht.,des,nan,liegen.,warmen,mitbringen.,nan,jede,Frau,Fall,Slums.,Tee,warmer,einmal,Boden,nan,jede,nan,diskutiert.,Weins,Problemen,warme,umgearbeitet.,Besatz,war.,Boden,stattfinden.,nan,ist.,nan,mitbringen.,Stoff,nan,nan,nan,zurückgekehrt.,mit,nan,gehärtet.,Wohnung.,nan,nan,ganz,zur,nan,Gantenbeins.,zwängen.,dem,Menge,zur,war.,Gewebe,gehalten.,ziemlich,nan,einmal,Nadelhölzer,dass,Slums.,selber,Sammlung,Tage.,als,Saft,überführt,Menge,nan,Kaffee,Probleme,haftbar.,,,,,,,,,,,,,,,,,,,,,,,0,0,0,0,0,7,7,7,,,,,,,space,2.25348591805,,,,,2017_Jan_31_1506,59.8515947853,spr_backupper,001,Mo14,
,dummer,nan,nan,nan,nan,gepasst.,Honig,nan,schon,zweiten,Haus,nan,Medikament,an,genug.,nan,nan,nan,nan,nan,nan,deutlich.,nan,sinken.,nan,nan,wurden.,gerne.,nan,zweiten,nan,nan,Honigs,nan,nan,Menge,gepasst,genug.,nan,wieder,Milch.,Rilke.,berührt.,nan,Menge,nan,nan,schon,im,Milch.,nan,rekonstruiert.,nan,berührt.,nan,nan,nan,nan,nan,gefertigt.,nan,nan,nan,nan,an,nan,nan,nan,nan,nan,deutlich.,Schule.,nan,nan,nan,Haus,dunkle,Schule.,nan,wiederhergestellt.,nan,vermiest.,nan,Rilke,umzusetzen.,es,nan,kaufen.,dumme,nan,gerne.,besprochen.,wurden.,dunkler,nan,wiederbelebt.,im,nan,,,,,,,,,,,,,,,,,,,,,,,0,0,0,0,0,8,8,8,,,,,,,space,0.676841020584,,,,,2017_Jan_31_1506,59.8515947853,spr_backupper,001,Mo14,
,Sprüche.,nan,nan,nan,nan,nan,her.,nan,auf,Weltkriegs.,geschafft.,nan,nicht,den,nan,nan,nan,nan,nan,nan,nan,nan,nan,nan,nan,nan,nan,nan,nan,Weltkriegs.,nan,nan,her.,nan,nan,heißer,haben.,nan,nan,fit.,nan,nan,nan,nan,heiße,nan,nan,auf,Landkreis.,nan,nan,nan,nan,nan,nan,nan,nan,nan,nan,nan,nan,nan,nan,nan,den,nan,nan,nan,nan,nan,nan,nan,nan,nan,nan,geschafft.,Materie,nan,nan,nan,nan,nan,nan,gelesen.,nan,regnete.,nan,nan,Sprüche.,nan,nan,nan,nan,Materie,nan,nan,Landkreis.,nan,,,,,,,,,,,,,,,,,,,,,,,0,0,0,0,0,9,9,9,,,,,,,space,1.1565618515,,,,,2017_Jan_31_1506,59.8515947853,spr_backupper,001,Mo14,
,,,,,,,,,,,,,,,,,,,,,,,,,,,,,,,,,,,,,,,,,,,,,,,,,,,,,,,,,,,,,,,,,,,,,,,,,,,,,,,,,,,,,,,,,,,,,,,,,,,,,,,,,,,,,,,,,,,,,,,,,0,0,0,0,,,,,,,,,,,,,None,n,4.86337614059,,2017_Jan_31_1506,59.8515947853,spr_backupper,001,Mo14,
,Sie,Die,Die,Sie,Walter,Die,Er,Die,Bei,Bei,Wir,Sie,In,Ich,100,Beträchtliche,Wir,Alle,Außer,Die,Es,Im,Beträchtliche,Ihr,Die,Wir,Es,Wir,Die,Bei,Sie,Jungtiere,Er,Außer,Er,Man,Die,100,Am,Ich,In,In,Nicht,Er,Man,Wir,Fernab,Bei,In,In,Die,Das,Die,Nicht,Unter,Wir,Die,Dort,Außer,Er,Außer,Die,Die,Als,Ich,Viele,Die,Sie,Viele,Die,Im,Die,Die,Die,Wir,Wir,Mit,Die,Die,Danach,In,Dass,Dort,In,Jetzt,Es,Am,Jugendliche,Sie,Der,Wir,Sie,Es,Mit,Es,Die,In,Manche,,,,,,,,,,,,,,,,,,,,,,,1,0,1,0,0,0,0,0,,,,,,None,space,2.38357496262,,,,,2017_Jan_31_1506,59.8515947853,spr_backupper,001,Mo14,
,hatte,Gäste,Lösung,verlassen,Scheel,Schuhe,stellt,Schule,unserer,der,haben,verbrauchen,einer,nehme,g,Stücke,konnten,Betten,den,"Uhr,",wurden,Fernrohr,Stücke,Blutdruck,Uhr,mussten,waren,übergaben,Eislaufbahnen,der,verbrauchen,sollten,stellt,dem,wurde,machte,Schuhe,g,äußeren,wurde,den,meinem,ein,wurde,machte,hatten,des,unserer,der,den,Stücke,Tuch,Uhr,ein,keinen,hatten,Teilnehmerinnen,türmen,das,hat,dem,Autos,Linie,die,nehme,Tonnen,Formen,verlassen,Tonnen,Schule,Fernrohr,Kinder,Autos,Gäste,mussten,haben,dieser,Kinder,Uhr,wurde,diesem,es,türmen,meinem,ist,hat,äußersten,können,hatte,Flug,übergaben,haben,waren,dieser,wurden,müden,der,Kreditnehmer,,,,,,,,,,,,,,,,,,,,,,,1,0,1,0,0,1,1,1,,,,,,,space,0.554717063904,,,,,2017_Jan_31_1506,59.8515947853,spr_backupper,001,Mo14,
,keine,suchen,wird,wegen,war,in,die,verbraucht,Ankunft,Feier,jede,60,Studie,eine,brauner,saftiges,dann,wurden,Bürgermeister,die,Eimer,sahen,saftigen,kann,war,uns,nur,das,wurden,Feier,60,immer,die,Essen,trotz,mal,in,braunen,Rand,damals,Kakao,Studium,Tropfen,trotz,mal,in,Rummels,Ankunft,Tat,Kakao,wurden,wurde,schlug,Tropfen,Umständen,in,wussten,sich,Essen,ein,Bürgermeister,beider,101,Sonne,eine,gebrauchter,wurden,wegen,gebrauchte,verbraucht,sahen,fuhren,beider,suchen,uns,jede,Methode,fuhren,schlug,die,Zirkus,"regnete,",sich,Studium,genau,uns,Rand,Kleidung,keine,zum,dem,die,nur,Methode,Eimer,Teilnehmer,Tat,sind,,,,,,,,,,,,,,,,,,,,,,,1,0,1,0,0,2,2,2,,,,,,,space,0.536748886108,,,,,2017_Jan_31_1506,59.8515947853,spr_backupper,001,Mo14,
,Lust,die,mit,dem,der,Größe,Masse,260.000,stand,gedachte,Menge,Liter,wurde,große,Zucker,Fleisch,mit,mit,beschuldigten,er,rote,wir,Fleischs,schon,aus,durch,kleinere,Auto,mit,gedachte,Liter,auf,Masse,kann,des,wieder,Größe,Zuckers,der,schnell,gehören,las,königliches,dem,wieder,Dänemark,wurde,stand,wissen,gehören,aus,dann,"sporadisch,",königlichen,können,Dänemark,überwiegend,Berge,kann,Hemd,beschuldigten,beteiligter,hält,"unterging,",große,Kleidung,unter,des,Kleidung,260.000,wir,mit,beteiligten,die,durch,Menge,kann,mit,"sporadisch,",Leinwand,werden,hat,Berge,habe,die,die,der,bei,Lust,Mond,Mann,Erlebnisse,kleinere,kann,roter,wurden,wissen,mit,,,,,,,,,,,,,,,,,,,,,,,1,0,1,0,0,3,3,3,,,,,,,space,0.553451061249,,,,,2017_Jan_31_1506,59.8515947853,spr_backupper,001,Mo14,
,auf,Wohnung,"reichlichem,",schönen,vierte,36,mit,Kilowattstunden,ein,man,alten,sprudelndes,jetzt,Packung,sind,wurden,"minimalem,","üblichem,",die,"trug,",Farbe,den,wurden,bei,"Japan,",Büschel,"Delikte,",dem,dauerhaftem,man,sprudelnden,warmem,mit,ich,bekannten,viel,36,sind,Stadt,dank,immer,ich,Blut,bekannten,viel,gelegentlich,schon,ein,wir,immer,"wertvollem,",mit,obwohl,Bluts,Neuwahlen,einen,"nicht,",schmutzige,ich,aus,die,Fahrer,nicht,war,Packung,landen,"regelmäßigem,",schönen,landen,Kilowattstunden,den,solchen,Fahrer,Wohnung,Büschel,alten,man,solch,obschon,aus,die,uns,schmutziger,ich,richtige,Stimmung,Stadt,ausreichendem,auf,dauerte,das,bei,"Delikte,",man,Farbe,mit,wir,"sämtlichem,",,,,,,,,,,,,,,,,,,,,,,,1,0,1,0,0,4,4,4,,,,,,,space,0.454214811325,,,,,2017_Jan_31_1506,59.8515947853,spr_backupper,001,Mo14,
,noch,des,purem,Wetter,Bundespräsident.,hätten,einem,elektrischer,Glas,den,Krams,Trinkwasser.,"nachgewiesen,",salziger,auf,serviert.,sauberen,harten,Störenfriede,war,geschleudert.,roten,serviert.,minimalem,die,frischen,derer,Mann,feinem,der,Trinkwassers.,weichem,einem,leider,Skandals,Lärm,würden,auf,liegen,täglichem,350,mehr,hat,Skandal,Lärm,einen,immer,Glas,von,350,klassischen,"reichem,",sie,hat,vor,gelegentlichen,was,Wäsche.,leider,feinem,Störenfriede,wurden,am,die,salzige,im,kaltem,Wetters,im,elektrische,roten,unzureichenden,wurden,des,frisches,Kram,eine,unzureichenden,sie,seltenem,Tiere,die,Wäsche.,mehr,"Zeit,",ziemlich,liegen,monatlichem,noch,ungefähr,Auto,"frischem,",deren,eine,geschleudert.,zusätzlichem,um,künftigem,,,,,,,,,,,,,,,,,,,,,,,1,0,1,0,0,5,5,5,,,,,,,space,0.544534921646,,,,,2017_Jan_31_1506,59.8515947853,spr_backupper,001,Mo14,
,eine,Herrn,Alkohol,die,nan,seiner,Esslöffel,Energie.,köstlicher,Soldaten,aus,nan,dass,Wurst,jeden,nan,Kraftstoff,Schaumstoff,jeden.,aus,nan,Planet,nan,täglichen,er,Grases,sie,mehr,Kunsteis,Soldaten,nan,Untergrund,Esslöffel,nichts,wiedergewählt.,um,seiner,jeden,die,grünen,ml,als,den,wiedergewählt.,um,Besucher.,ruhig,köstlichen,den,ml,Schmuck,goldenen,defekt,den,Dezember,Besucher.,Tupperware,nan,nichts,dichten,jeden.,verschrottet.,Hauptbahnhof.,Flut,Wurst,Müll.,Abduschen,die,Müll.,Energie.,Planeten,Helmen,verschrottet.,Herrn,Gras,aus,große,Helmen,defekt,dichten,artgerecht,Stimmung,nan,als,um,"vermiest,",die,Taschengeld,eine,drei,mehr,kaltem,sie,große,nan,schwarzem,die,Einkommen,,,,,,,,,,,,,,,,,,,,,,,1,0,1,0,0,6,6,6,,,,,,,space,0.827825069427,,,,,2017_Jan_31_1506,59.8515947853,spr_backupper,001,Mo14,
,Sammlung,Gantenbein.,verdünnt.,Wohnung.,nan,Frau,warmem,nan,Wein,des,dem,nan,das,mit,Fall,nan,fahren.,gefertigt.,nan,Japan.,nan,ganz,nan,Einsatz,trug.,zwängen.,überführt,als,eingesprüht.,des,nan,liegen.,warmen,mitbringen.,nan,jede,Frau,Fall,Slums.,Tee,warmer,einmal,Boden,nan,jede,nan,diskutiert.,Weins,Problemen,warme,umgearbeitet.,Besatz,war.,Boden,stattfinden.,nan,ist.,nan,mitbringen.,Stoff,nan,nan,nan,zurückgekehrt.,mit,nan,gehärtet.,Wohnung.,nan,nan,ganz,zur,nan,Gantenbeins.,zwängen.,dem,Menge,zur,war.,Gewebe,gehalten.,ziemlich,nan,einmal,Nadelhölzer,dass,Slums.,selber,Sammlung,Tage.,als,Saft,überführt,Menge,nan,Kaffee,Probleme,haftbar.,,,,,,,,,,,,,,,,,,,,,,,1,0,1,0,0,7,7,7,,,,,,,space,0.645260095596,,,,,2017_Jan_31_1506,59.8515947853,spr_backupper,001,Mo14,
,dummer,nan,nan,nan,nan,gepasst.,Honig,nan,schon,zweiten,Haus,nan,Medikament,an,genug.,nan,nan,nan,nan,nan,nan,deutlich.,nan,sinken.,nan,nan,wurden.,gerne.,nan,zweiten,nan,nan,Honigs,nan,nan,Menge,gepasst,genug.,nan,wieder,Milch.,Rilke.,berührt.,nan,Menge,nan,nan,schon,im,Milch.,nan,rekonstruiert.,nan,berührt.,nan,nan,nan,nan,nan,gefertigt.,nan,nan,nan,nan,an,nan,nan,nan,nan,nan,deutlich.,Schule.,nan,nan,nan,Haus,dunkle,Schule.,nan,wiederhergestellt.,nan,vermiest.,nan,Rilke,umzusetzen.,es,nan,kaufen.,dumme,nan,gerne.,besprochen.,wurden.,dunkler,nan,wiederbelebt.,im,nan,,,,,,,,,,,,,,,,,,,,,,,1,0,1,0,0,8,8,8,,,,,,,space,1.43440389633,,,,,2017_Jan_31_1506,59.8515947853,spr_backupper,001,Mo14,
,,,,,,,,,,,,,,,,,,,,,,,,,,,,,,,,,,,,,,,,,,,,,,,,,,,,,,,,,,,,,,,,,,,,,,,,,,,,,,,,,,,,,,,,,,,,,,,,,,,,,,,,,,,,,,,,,,,,,,,,,1,0,1,0,,,,,,,,,,,,,None,j,2.26642608643,,2017_Jan_31_1506,59.8515947853,spr_backupper,001,Mo14,
,Sie,Die,Die,Sie,Walter,Die,Er,Die,Bei,Bei,Wir,Sie,In,Ich,100,Beträchtliche,Wir,Alle,Außer,Die,Es,Im,Beträchtliche,Ihr,Die,Wir,Es,Wir,Die,Bei,Sie,Jungtiere,Er,Außer,Er,Man,Die,100,Am,Ich,In,In,Nicht,Er,Man,Wir,Fernab,Bei,In,In,Die,Das,Die,Nicht,Unter,Wir,Die,Dort,Außer,Er,Außer,Die,Die,Als,Ich,Viele,Die,Sie,Viele,Die,Im,Die,Die,Die,Wir,Wir,Mit,Die,Die,Danach,In,Dass,Dort,In,Jetzt,Es,Am,Jugendliche,Sie,Der,Wir,Sie,Es,Mit,Es,Die,In,Manche,,,,,,,,,,,,,,,,,,,,,,,2,0,2,0,0,0,0,0,,,,,,None,space,1.55664587021,,,,,2017_Jan_31_1506,59.8515947853,spr_backupper,001,Mo14,
,hatte,Gäste,Lösung,verlassen,Scheel,Schuhe,stellt,Schule,unserer,der,haben,verbrauchen,einer,nehme,g,Stücke,konnten,Betten,den,"Uhr,",wurden,Fernrohr,Stücke,Blutdruck,Uhr,mussten,waren,übergaben,Eislaufbahnen,der,verbrauchen,sollten,stellt,dem,wurde,machte,Schuhe,g,äußeren,wurde,den,meinem,ein,wurde,machte,hatten,des,unserer,der,den,Stücke,Tuch,Uhr,ein,keinen,hatten,Teilnehmerinnen,türmen,das,hat,dem,Autos,Linie,die,nehme,Tonnen,Formen,verlassen,Tonnen,Schule,Fernrohr,Kinder,Autos,Gäste,mussten,haben,dieser,Kinder,Uhr,wurde,diesem,es,türmen,meinem,ist,hat,äußersten,können,hatte,Flug,übergaben,haben,waren,dieser,wurden,müden,der,Kreditnehmer,,,,,,,,,,,,,,,,,,,,,,,2,0,2,0,0,1,1,1,,,,,,,space,0.63785815239,,,,,2017_Jan_31_1506,59.8515947853,spr_backupper,001,Mo14,
,keine,suchen,wird,wegen,war,in,die,verbraucht,Ankunft,Feier,jede,60,Studie,eine,brauner,saftiges,dann,wurden,Bürgermeister,die,Eimer,sahen,saftigen,kann,war,uns,nur,das,wurden,Feier,60,immer,die,Essen,trotz,mal,in,braunen,Rand,damals,Kakao,Studium,Tropfen,trotz,mal,in,Rummels,Ankunft,Tat,Kakao,wurden,wurde,schlug,Tropfen,Umständen,in,wussten,sich,Essen,ein,Bürgermeister,beider,101,Sonne,eine,gebrauchter,wurden,wegen,gebrauchte,verbraucht,sahen,fuhren,beider,suchen,uns,jede,Methode,fuhren,schlug,die,Zirkus,"regnete,",sich,Studium,genau,uns,Rand,Kleidung,keine,zum,dem,die,nur,Methode,Eimer,Teilnehmer,Tat,sind,,,,,,,,,,,,,,,,,,,,,,,2,0,2,0,0,2,2,2,,,,,,,space,0.687961101532,,,,,2017_Jan_31_1506,59.8515947853,spr_backupper,001,Mo14,
,Lust,die,mit,dem,der,Größe,Masse,260.000,stand,gedachte,Menge,Liter,wurde,große,Zucker,Fleisch,mit,mit,beschuldigten,er,rote,wir,Fleischs,schon,aus,durch,kleinere,Auto,mit,gedachte,Liter,auf,Masse,kann,des,wieder,Größe,Zuckers,der,schnell,gehören,las,königliches,dem,wieder,Dänemark,wurde,stand,wissen,gehören,aus,dann,"sporadisch,",königlichen,können,Dänemark,überwiegend,Berge,kann,Hemd,beschuldigten,beteiligter,hält,"unterging,",große,Kleidung,unter,des,Kleidung,260.000,wir,mit,beteiligten,die,durch,Menge,kann,mit,"sporadisch,",Leinwand,werden,hat,Berge,habe,die,die,der,bei,Lust,Mond,Mann,Erlebnisse,kleinere,kann,roter,wurden,wissen,mit,,,,,,,,,,,,,,,,,,,,,,,2,0,2,0,0,3,3,3,,,,,,,space,0.586632013321,,,,,2017_Jan_31_1506,59.8515947853,spr_backupper,001,Mo14,
,auf,Wohnung,"reichlichem,",schönen,vierte,36,mit,Kilowattstunden,ein,man,alten,sprudelndes,jetzt,Packung,sind,wurden,"minimalem,","üblichem,",die,"trug,",Farbe,den,wurden,bei,"Japan,",Büschel,"Delikte,",dem,dauerhaftem,man,sprudelnden,warmem,mit,ich,bekannten,viel,36,sind,Stadt,dank,immer,ich,Blut,bekannten,viel,gelegentlich,schon,ein,wir,immer,"wertvollem,",mit,obwohl,Bluts,Neuwahlen,einen,"nicht,",schmutzige,ich,aus,die,Fahrer,nicht,war,Packung,landen,"regelmäßigem,",schönen,landen,Kilowattstunden,den,solchen,Fahrer,Wohnung,Büschel,alten,man,solch,obschon,aus,die,uns,schmutziger,ich,richtige,Stimmung,Stadt,ausreichendem,auf,dauerte,das,bei,"Delikte,",man,Farbe,mit,wir,"sämtlichem,",,,,,,,,,,,,,,,,,,,,,,,2,0,2,0,0,4,4,4,,,,,,,space,0.95641708374,,,,,2017_Jan_31_1506,59.8515947853,spr_backupper,001,Mo14,
,noch,des,purem,Wetter,Bundespräsident.,hätten,einem,elektrischer,Glas,den,Krams,Trinkwasser.,"nachgewiesen,",salziger,auf,serviert.,sauberen,harten,Störenfriede,war,geschleudert.,roten,serviert.,minimalem,die,frischen,derer,Mann,feinem,der,Trinkwassers.,weichem,einem,leider,Skandals,Lärm,würden,auf,liegen,täglichem,350,mehr,hat,Skandal,Lärm,einen,immer,Glas,von,350,klassischen,"reichem,",sie,hat,vor,gelegentlichen,was,Wäsche.,leider,feinem,Störenfriede,wurden,am,die,salzige,im,kaltem,Wetters,im,elektrische,roten,unzureichenden,wurden,des,frisches,Kram,eine,unzureichenden,sie,seltenem,Tiere,die,Wäsche.,mehr,"Zeit,",ziemlich,liegen,monatlichem,noch,ungefähr,Auto,"frischem,",deren,eine,geschleudert.,zusätzlichem,um,künftigem,,,,,,,,,,,,,,,,,,,,,,,2,0,2,0,0,5,5,5,,,,,,,space,0.598793983459,,,,,2017_Jan_31_1506,59.8515947853,spr_backupper,001,Mo14,
,,,,,,,,,,,,,,,,,,,,,,,,,,,,,,,,,,,,,,,,,,,,,,,,,,,,,,,,,,,,,,,,,,,,,,,,,,,,,,,,,,,,,,,,,,,,,,,,,,,,,,,,,,,,,,,,,,,,,,,,,2,0,2,0,,,,,,,,,,,,,None,n,2.53520607948,,2017_Jan_31_1506,59.8515947853,spr_backupper,001,Mo14,
,Sie,Die,Die,Sie,Walter,Die,Er,Die,Bei,Bei,Wir,Sie,In,Ich,100,Beträchtliche,Wir,Alle,Außer,Die,Es,Im,Beträchtliche,Ihr,Die,Wir,Es,Wir,Die,Bei,Sie,Jungtiere,Er,Außer,Er,Man,Die,100,Am,Ich,In,In,Nicht,Er,Man,Wir,Fernab,Bei,In,In,Die,Das,Die,Nicht,Unter,Wir,Die,Dort,Außer,Er,Außer,Die,Die,Als,Ich,Viele,Die,Sie,Viele,Die,Im,Die,Die,Die,Wir,Wir,Mit,Die,Die,Danach,In,Dass,Dort,In,Jetzt,Es,Am,Jugendliche,Sie,Der,Wir,Sie,Es,Mit,Es,Die,In,Manche,,,,,,,,,,,,,,,,,,,,,,,3,0,3,0,0,0,0,0,,,,,,None,space,1.82800912857,,,,,2017_Jan_31_1506,59.8515947853,spr_backupper,001,Mo14,
,hatte,Gäste,Lösung,verlassen,Scheel,Schuhe,stellt,Schule,unserer,der,haben,verbrauchen,einer,nehme,g,Stücke,konnten,Betten,den,"Uhr,",wurden,Fernrohr,Stücke,Blutdruck,Uhr,mussten,waren,übergaben,Eislaufbahnen,der,verbrauchen,sollten,stellt,dem,wurde,machte,Schuhe,g,äußeren,wurde,den,meinem,ein,wurde,machte,hatten,des,unserer,der,den,Stücke,Tuch,Uhr,ein,keinen,hatten,Teilnehmerinnen,türmen,das,hat,dem,Autos,Linie,die,nehme,Tonnen,Formen,verlassen,Tonnen,Schule,Fernrohr,Kinder,Autos,Gäste,mussten,haben,dieser,Kinder,Uhr,wurde,diesem,es,türmen,meinem,ist,hat,äußersten,können,hatte,Flug,übergaben,haben,waren,dieser,wurden,müden,der,Kreditnehmer,,,,,,,,,,,,,,,,,,,,,,,3,0,3,0,0,1,1,1,,,,,,,space,0.621374845505,,,,,2017_Jan_31_1506,59.8515947853,spr_backupper,001,Mo14,
,keine,suchen,wird,wegen,war,in,die,verbraucht,Ankunft,Feier,jede,60,Studie,eine,brauner,saftiges,dann,wurden,Bürgermeister,die,Eimer,sahen,saftigen,kann,war,uns,nur,das,wurden,Feier,60,immer,die,Essen,trotz,mal,in,braunen,Rand,damals,Kakao,Studium,Tropfen,trotz,mal,in,Rummels,Ankunft,Tat,Kakao,wurden,wurde,schlug,Tropfen,Umständen,in,wussten,sich,Essen,ein,Bürgermeister,beider,101,Sonne,eine,gebrauchter,wurden,wegen,gebrauchte,verbraucht,sahen,fuhren,beider,suchen,uns,jede,Methode,fuhren,schlug,die,Zirkus,"regnete,",sich,Studium,genau,uns,Rand,Kleidung,keine,zum,dem,die,nur,Methode,Eimer,Teilnehmer,Tat,sind,,,,,,,,,,,,,,,,,,,,,,,3,0,3,0,0,2,2,2,,,,,,,space,0.671658992767,,,,,2017_Jan_31_1506,59.8515947853,spr_backupper,001,Mo14,
,Lust,die,mit,dem,der,Größe,Masse,260.000,stand,gedachte,Menge,Liter,wurde,große,Zucker,Fleisch,mit,mit,beschuldigten,er,rote,wir,Fleischs,schon,aus,durch,kleinere,Auto,mit,gedachte,Liter,auf,Masse,kann,des,wieder,Größe,Zuckers,der,schnell,gehören,las,königliches,dem,wieder,Dänemark,wurde,stand,wissen,gehören,aus,dann,"sporadisch,",königlichen,können,Dänemark,überwiegend,Berge,kann,Hemd,beschuldigten,beteiligter,hält,"unterging,",große,Kleidung,unter,des,Kleidung,260.000,wir,mit,beteiligten,die,durch,Menge,kann,mit,"sporadisch,",Leinwand,werden,hat,Berge,habe,die,die,der,bei,Lust,Mond,Mann,Erlebnisse,kleinere,kann,roter,wurden,wissen,mit,,,,,,,,,,,,,,,,,,,,,,,3,0,3,0,0,3,3,3,,,,,,,space,0.850552082062,,,,,2017_Jan_31_1506,59.8515947853,spr_backupper,001,Mo14,
,auf,Wohnung,"reichlichem,",schönen,vierte,36,mit,Kilowattstunden,ein,man,alten,sprudelndes,jetzt,Packung,sind,wurden,"minimalem,","üblichem,",die,"trug,",Farbe,den,wurden,bei,"Japan,",Büschel,"Delikte,",dem,dauerhaftem,man,sprudelnden,warmem,mit,ich,bekannten,viel,36,sind,Stadt,dank,immer,ich,Blut,bekannten,viel,gelegentlich,schon,ein,wir,immer,"wertvollem,",mit,obwohl,Bluts,Neuwahlen,einen,"nicht,",schmutzige,ich,aus,die,Fahrer,nicht,war,Packung,landen,"regelmäßigem,",schönen,landen,Kilowattstunden,den,solchen,Fahrer,Wohnung,Büschel,alten,man,solch,obschon,aus,die,uns,schmutziger,ich,richtige,Stimmung,Stadt,ausreichendem,auf,dauerte,das,bei,"Delikte,",man,Farbe,mit,wir,"sämtlichem,",,,,,,,,,,,,,,,,,,,,,,,3,0,3,0,0,4,4,4,,,,,,,space,1.01113510132,,,,,2017_Jan_31_1506,59.8515947853,spr_backupper,001,Mo14,
,noch,des,purem,Wetter,Bundespräsident.,hätten,einem,elektrischer,Glas,den,Krams,Trinkwasser.,"nachgewiesen,",salziger,auf,serviert.,sauberen,harten,Störenfriede,war,geschleudert.,roten,serviert.,minimalem,die,frischen,derer,Mann,feinem,der,Trinkwassers.,weichem,einem,leider,Skandals,Lärm,würden,auf,liegen,täglichem,350,mehr,hat,Skandal,Lärm,einen,immer,Glas,von,350,klassischen,"reichem,",sie,hat,vor,gelegentlichen,was,Wäsche.,leider,feinem,Störenfriede,wurden,am,die,salzige,im,kaltem,Wetters,im,elektrische,roten,unzureichenden,wurden,des,frisches,Kram,eine,unzureichenden,sie,seltenem,Tiere,die,Wäsche.,mehr,"Zeit,",ziemlich,liegen,monatlichem,noch,ungefähr,Auto,"frischem,",deren,eine,geschleudert.,zusätzlichem,um,künftigem,,,,,,,,,,,,,,,,,,,,,,,3,0,3,0,0,5,5,5,,,,,,,space,2.19706201553,,,,,2017_Jan_31_1506,59.8515947853,spr_backupper,001,Mo14,
,,,,,,,,,,,,,,,,,,,,,,,,,,,,,,,,,,,,,,,,,,,,,,,,,,,,,,,,,,,,,,,,,,,,,,,,,,,,,,,,,,,,,,,,,,,,,,,,,,,,,,,,,,,,,,,,,,,,,,,,,3,0,3,0,,,,,,,,,,,,,None,j,4.6447160244,,2017_Jan_31_1506,59.8515947853,spr_backupper,001,Mo14,
,Sie,Die,Die,Sie,Walter,Die,Er,Die,Bei,Bei,Wir,Sie,In,Ich,100,Beträchtliche,Wir,Alle,Außer,Die,Es,Im,Beträchtliche,Ihr,Die,Wir,Es,Wir,Die,Bei,Sie,Jungtiere,Er,Außer,Er,Man,Die,100,Am,Ich,In,In,Nicht,Er,Man,Wir,Fernab,Bei,In,In,Die,Das,Die,Nicht,Unter,Wir,Die,Dort,Außer,Er,Außer,Die,Die,Als,Ich,Viele,Die,Sie,Viele,Die,Im,Die,Die,Die,Wir,Wir,Mit,Die,Die,Danach,In,Dass,Dort,In,Jetzt,Es,Am,Jugendliche,Sie,Der,Wir,Sie,Es,Mit,Es,Die,In,Manche,,,,,,,,,,,,,,,,,,,,,,,4,0,4,0,0,0,0,0,,,,,,None,space,3.30528712273,,,,,2017_Jan_31_1506,59.8515947853,spr_backupper,001,Mo14,
,hatte,Gäste,Lösung,verlassen,Scheel,Schuhe,stellt,Schule,unserer,der,haben,verbrauchen,einer,nehme,g,Stücke,konnten,Betten,den,"Uhr,",wurden,Fernrohr,Stücke,Blutdruck,Uhr,mussten,waren,übergaben,Eislaufbahnen,der,verbrauchen,sollten,stellt,dem,wurde,machte,Schuhe,g,äußeren,wurde,den,meinem,ein,wurde,machte,hatten,des,unserer,der,den,Stücke,Tuch,Uhr,ein,keinen,hatten,Teilnehmerinnen,türmen,das,hat,dem,Autos,Linie,die,nehme,Tonnen,Formen,verlassen,Tonnen,Schule,Fernrohr,Kinder,Autos,Gäste,mussten,haben,dieser,Kinder,Uhr,wurde,diesem,es,türmen,meinem,ist,hat,äußersten,können,hatte,Flug,übergaben,haben,waren,dieser,wurden,müden,der,Kreditnehmer,,,,,,,,,,,,,,,,,,,,,,,4,0,4,0,0,1,1,1,,,,,,,space,0.451703071594,,,,,2017_Jan_31_1506,59.8515947853,spr_backupper,001,Mo14,
,keine,suchen,wird,wegen,war,in,die,verbraucht,Ankunft,Feier,jede,60,Studie,eine,brauner,saftiges,dann,wurden,Bürgermeister,die,Eimer,sahen,saftigen,kann,war,uns,nur,das,wurden,Feier,60,immer,die,Essen,trotz,mal,in,braunen,Rand,damals,Kakao,Studium,Tropfen,trotz,mal,in,Rummels,Ankunft,Tat,Kakao,wurden,wurde,schlug,Tropfen,Umständen,in,wussten,sich,Essen,ein,Bürgermeister,beider,101,Sonne,eine,gebrauchter,wurden,wegen,gebrauchte,verbraucht,sahen,fuhren,beider,suchen,uns,jede,Methode,fuhren,schlug,die,Zirkus,"regnete,",sich,Studium,genau,uns,Rand,Kleidung,keine,zum,dem,die,nur,Methode,Eimer,Teilnehmer,Tat,sind,,,,,,,,,,,,,,,,,,,,,,,4,0,4,0,0,2,2,2,,,,,,,space,0.493601083755,,,,,2017_Jan_31_1506,59.8515947853,spr_backupper,001,Mo14,
,Lust,die,mit,dem,der,Größe,Masse,260.000,stand,gedachte,Menge,Liter,wurde,große,Zucker,Fleisch,mit,mit,beschuldigten,er,rote,wir,Fleischs,schon,aus,durch,kleinere,Auto,mit,gedachte,Liter,auf,Masse,kann,des,wieder,Größe,Zuckers,der,schnell,gehören,las,königliches,dem,wieder,Dänemark,wurde,stand,wissen,gehören,aus,dann,"sporadisch,",königlichen,können,Dänemark,überwiegend,Berge,kann,Hemd,beschuldigten,beteiligter,hält,"unterging,",große,Kleidung,unter,des,Kleidung,260.000,wir,mit,beteiligten,die,durch,Menge,kann,mit,"sporadisch,",Leinwand,werden,hat,Berge,habe,die,die,der,bei,Lust,Mond,Mann,Erlebnisse,kleinere,kann,roter,wurden,wissen,mit,,,,,,,,,,,,,,,,,,,,,,,4,0,4,0,0,3,3,3,,,,,,,space,0.710680007935,,,,,2017_Jan_31_1506,59.8515947853,spr_backupper,001,Mo14,
,auf,Wohnung,"reichlichem,",schönen,vierte,36,mit,Kilowattstunden,ein,man,alten,sprudelndes,jetzt,Packung,sind,wurden,"minimalem,","üblichem,",die,"trug,",Farbe,den,wurden,bei,"Japan,",Büschel,"Delikte,",dem,dauerhaftem,man,sprudelnden,warmem,mit,ich,bekannten,viel,36,sind,Stadt,dank,immer,ich,Blut,bekannten,viel,gelegentlich,schon,ein,wir,immer,"wertvollem,",mit,obwohl,Bluts,Neuwahlen,einen,"nicht,",schmutzige,ich,aus,die,Fahrer,nicht,war,Packung,landen,"regelmäßigem,",schönen,landen,Kilowattstunden,den,solchen,Fahrer,Wohnung,Büschel,alten,man,solch,obschon,aus,die,uns,schmutziger,ich,richtige,Stimmung,Stadt,ausreichendem,auf,dauerte,das,bei,"Delikte,",man,Farbe,mit,wir,"sämtlichem,",,,,,,,,,,,,,,,,,,,,,,,4,0,4,0,0,4,4,4,,,,,,,space,0.470580101013,,,,,2017_Jan_31_1506,59.8515947853,spr_backupper,001,Mo14,
,noch,des,purem,Wetter,Bundespräsident.,hätten,einem,elektrischer,Glas,den,Krams,Trinkwasser.,"nachgewiesen,",salziger,auf,serviert.,sauberen,harten,Störenfriede,war,geschleudert.,roten,serviert.,minimalem,die,frischen,derer,Mann,feinem,der,Trinkwassers.,weichem,einem,leider,Skandals,Lärm,würden,auf,liegen,täglichem,350,mehr,hat,Skandal,Lärm,einen,immer,Glas,von,350,klassischen,"reichem,",sie,hat,vor,gelegentlichen,was,Wäsche.,leider,feinem,Störenfriede,wurden,am,die,salzige,im,kaltem,Wetters,im,elektrische,roten,unzureichenden,wurden,des,frisches,Kram,eine,unzureichenden,sie,seltenem,Tiere,die,Wäsche.,mehr,"Zeit,",ziemlich,liegen,monatlichem,noch,ungefähr,Auto,"frischem,",deren,eine,geschleudert.,zusätzlichem,um,künftigem,,,,,,,,,,,,,,,,,,,,,,,4,0,4,0,0,5,5,5,,,,,,,space,0.68831205368,,,,,2017_Jan_31_1506,59.8515947853,spr_backupper,001,Mo14,
,eine,Herrn,Alkohol,die,nan,seiner,Esslöffel,Energie.,köstlicher,Soldaten,aus,nan,dass,Wurst,jeden,nan,Kraftstoff,Schaumstoff,jeden.,aus,nan,Planet,nan,täglichen,er,Grases,sie,mehr,Kunsteis,Soldaten,nan,Untergrund,Esslöffel,nichts,wiedergewählt.,um,seiner,jeden,die,grünen,ml,als,den,wiedergewählt.,um,Besucher.,ruhig,köstlichen,den,ml,Schmuck,goldenen,defekt,den,Dezember,Besucher.,Tupperware,nan,nichts,dichten,jeden.,verschrottet.,Hauptbahnhof.,Flut,Wurst,Müll.,Abduschen,die,Müll.,Energie.,Planeten,Helmen,verschrottet.,Herrn,Gras,aus,große,Helmen,defekt,dichten,artgerecht,Stimmung,nan,als,um,"vermiest,",die,Taschengeld,eine,drei,mehr,kaltem,sie,große,nan,schwarzem,die,Einkommen,,,,,,,,,,,,,,,,,,,,,,,4,0,4,0,0,6,6,6,,,,,,,space,0.517925977707,,,,,2017_Jan_31_1506,59.8515947853,spr_backupper,001,Mo14,
,Sammlung,Gantenbein.,verdünnt.,Wohnung.,nan,Frau,warmem,nan,Wein,des,dem,nan,das,mit,Fall,nan,fahren.,gefertigt.,nan,Japan.,nan,ganz,nan,Einsatz,trug.,zwängen.,überführt,als,eingesprüht.,des,nan,liegen.,warmen,mitbringen.,nan,jede,Frau,Fall,Slums.,Tee,warmer,einmal,Boden,nan,jede,nan,diskutiert.,Weins,Problemen,warme,umgearbeitet.,Besatz,war.,Boden,stattfinden.,nan,ist.,nan,mitbringen.,Stoff,nan,nan,nan,zurückgekehrt.,mit,nan,gehärtet.,Wohnung.,nan,nan,ganz,zur,nan,Gantenbeins.,zwängen.,dem,Menge,zur,war.,Gewebe,gehalten.,ziemlich,nan,einmal,Nadelhölzer,dass,Slums.,selber,Sammlung,Tage.,als,Saft,überführt,Menge,nan,Kaffee,Probleme,haftbar.,,,,,,,,,,,,,,,,,,,,,,,4,0,4,0,0,7,7,7,,,,,,,space,0.469390869141,,,,,2017_Jan_31_1506,59.8515947853,spr_backupper,001,Mo14,
,dummer,nan,nan,nan,nan,gepasst.,Honig,nan,schon,zweiten,Haus,nan,Medikament,an,genug.,nan,nan,nan,nan,nan,nan,deutlich.,nan,sinken.,nan,nan,wurden.,gerne.,nan,zweiten,nan,nan,Honigs,nan,nan,Menge,gepasst,genug.,nan,wieder,Milch.,Rilke.,berührt.,nan,Menge,nan,nan,schon,im,Milch.,nan,rekonstruiert.,nan,berührt.,nan,nan,nan,nan,nan,gefertigt.,nan,nan,nan,nan,an,nan,nan,nan,nan,nan,deutlich.,Schule.,nan,nan,nan,Haus,dunkle,Schule.,nan,wiederhergestellt.,nan,vermiest.,nan,Rilke,umzusetzen.,es,nan,kaufen.,dumme,nan,gerne.,besprochen.,wurden.,dunkler,nan,wiederbelebt.,im,nan,,,,,,,,,,,,,,,,,,,,,,,4,0,4,0,0,8,8,8,,,,,,,space,0.738767147064,,,,,2017_Jan_31_1506,59.8515947853,spr_backupper,001,Mo14,
,Sprüche.,nan,nan,nan,nan,nan,her.,nan,auf,Weltkriegs.,geschafft.,nan,nicht,den,nan,nan,nan,nan,nan,nan,nan,nan,nan,nan,nan,nan,nan,nan,nan,Weltkriegs.,nan,nan,her.,nan,nan,heißer,haben.,nan,nan,fit.,nan,nan,nan,nan,heiße,nan,nan,auf,Landkreis.,nan,nan,nan,nan,nan,nan,nan,nan,nan,nan,nan,nan,nan,nan,nan,den,nan,nan,nan,nan,nan,nan,nan,nan,nan,nan,geschafft.,Materie,nan,nan,nan,nan,nan,nan,gelesen.,nan,regnete.,nan,nan,Sprüche.,nan,nan,nan,nan,Materie,nan,nan,Landkreis.,nan,,,,,,,,,,,,,,,,,,,,,,,4,0,4,0,0,9,9,9,,,,,,,space,0.838052988052,,,,,2017_Jan_31_1506,59.8515947853,spr_backupper,001,Mo14,
,,,,,,,,,,,,,,,,,,,,,,,,,,,,,,,,,,,,,,,,,,,,,,,,,,,,,,,,,,,,,,,,,,,,,,,,,,,,,,,,,,,,,,,,,,,,,,,,,,,,,,,,,,,,,,,,,,,,,,,,,4,0,4,0,,,,,,,,,,,,,None,n,2.90131783485,,2017_Jan_31_1506,59.8515947853,spr_backupper,001,Mo14,
,Sie,Die,Die,Sie,Walter,Die,Er,Die,Bei,Bei,Wir,Sie,In,Ich,100,Beträchtliche,Wir,Alle,Außer,Die,Es,Im,Beträchtliche,Ihr,Die,Wir,Es,Wir,Die,Bei,Sie,Jungtiere,Er,Außer,Er,Man,Die,100,Am,Ich,In,In,Nicht,Er,Man,Wir,Fernab,Bei,In,In,Die,Das,Die,Nicht,Unter,Wir,Die,Dort,Außer,Er,Außer,Die,Die,Als,Ich,Viele,Die,Sie,Viele,Die,Im,Die,Die,Die,Wir,Wir,Mit,Die,Die,Danach,In,Dass,Dort,In,Jetzt,Es,Am,Jugendliche,Sie,Der,Wir,Sie,Es,Mit,Es,Die,In,Manche,,,,,,,,,,,,,,,,,,,,,,,5,0,5,0,0,0,0,0,,,,,,space,space,3.32021212578,,,,1.47566604614,2017_Jan_31_1506,59.8515947853,spr_backupper,001,Mo14,
,hatte,Gäste,Lösung,verlassen,Scheel,Schuhe,stellt,Schule,unserer,der,haben,verbrauchen,einer,nehme,g,Stücke,konnten,Betten,den,"Uhr,",wurden,Fernrohr,Stücke,Blutdruck,Uhr,mussten,waren,übergaben,Eislaufbahnen,der,verbrauchen,sollten,stellt,dem,wurde,machte,Schuhe,g,äußeren,wurde,den,meinem,ein,wurde,machte,hatten,des,unserer,der,den,Stücke,Tuch,Uhr,ein,keinen,hatten,Teilnehmerinnen,türmen,das,hat,dem,Autos,Linie,die,nehme,Tonnen,Formen,verlassen,Tonnen,Schule,Fernrohr,Kinder,Autos,Gäste,mussten,haben,dieser,Kinder,Uhr,wurde,diesem,es,türmen,meinem,ist,hat,äußersten,können,hatte,Flug,übergaben,haben,waren,dieser,wurden,müden,der,Kreditnehmer,,,,,,,,,,,,,,,,,,,,,,,5,0,5,0,0,1,1,1,,,,,,,space,0.391983032227,,,,,2017_Jan_31_1506,59.8515947853,spr_backupper,001,Mo14,
,keine,suchen,wird,wegen,war,in,die,verbraucht,Ankunft,Feier,jede,60,Studie,eine,brauner,saftiges,dann,wurden,Bürgermeister,die,Eimer,sahen,saftigen,kann,war,uns,nur,das,wurden,Feier,60,immer,die,Essen,trotz,mal,in,braunen,Rand,damals,Kakao,Studium,Tropfen,trotz,mal,in,Rummels,Ankunft,Tat,Kakao,wurden,wurde,schlug,Tropfen,Umständen,in,wussten,sich,Essen,ein,Bürgermeister,beider,101,Sonne,eine,gebrauchter,wurden,wegen,gebrauchte,verbraucht,sahen,fuhren,beider,suchen,uns,jede,Methode,fuhren,schlug,die,Zirkus,"regnete,",sich,Studium,genau,uns,Rand,Kleidung,keine,zum,dem,die,nur,Methode,Eimer,Teilnehmer,Tat,sind,,,,,,,,,,,,,,,,,,,,,,,5,0,5,0,0,2,2,2,,,,,,,space,0.553938865662,,,,,2017_Jan_31_1506,59.8515947853,spr_backupper,001,Mo14,
,Lust,die,mit,dem,der,Größe,Masse,260.000,stand,gedachte,Menge,Liter,wurde,große,Zucker,Fleisch,mit,mit,beschuldigten,er,rote,wir,Fleischs,schon,aus,durch,kleinere,Auto,mit,gedachte,Liter,auf,Masse,kann,des,wieder,Größe,Zuckers,der,schnell,gehören,las,königliches,dem,wieder,Dänemark,wurde,stand,wissen,gehören,aus,dann,"sporadisch,",königlichen,können,Dänemark,überwiegend,Berge,kann,Hemd,beschuldigten,beteiligter,hält,"unterging,",große,Kleidung,unter,des,Kleidung,260.000,wir,mit,beteiligten,die,durch,Menge,kann,mit,"sporadisch,",Leinwand,werden,hat,Berge,habe,die,die,der,bei,Lust,Mond,Mann,Erlebnisse,kleinere,kann,roter,wurden,wissen,mit,,,,,,,,,,,,,,,,,,,,,,,5,0,5,0,0,3,3,3,,,,,,,space,0.670378923416,,,,,2017_Jan_31_1506,59.8515947853,spr_backupper,001,Mo14,
,auf,Wohnung,"reichlichem,",schönen,vierte,36,mit,Kilowattstunden,ein,man,alten,sprudelndes,jetzt,Packung,sind,wurden,"minimalem,","üblichem,",die,"trug,",Farbe,den,wurden,bei,"Japan,",Büschel,"Delikte,",dem,dauerhaftem,man,sprudelnden,warmem,mit,ich,bekannten,viel,36,sind,Stadt,dank,immer,ich,Blut,bekannten,viel,gelegentlich,schon,ein,wir,immer,"wertvollem,",mit,obwohl,Bluts,Neuwahlen,einen,"nicht,",schmutzige,ich,aus,die,Fahrer,nicht,war,Packung,landen,"regelmäßigem,",schönen,landen,Kilowattstunden,den,solchen,Fahrer,Wohnung,Büschel,alten,man,solch,obschon,aus,die,uns,schmutziger,ich,richtige,Stimmung,Stadt,ausreichendem,auf,dauerte,das,bei,"Delikte,",man,Farbe,mit,wir,"sämtlichem,",,,,,,,,,,,,,,,,,,,,,,,5,0,5,0,0,4,4,4,,,,,,,space,0.449635982513,,,,,2017_Jan_31_1506,59.8515947853,spr_backupper,001,Mo14,
,noch,des,purem,Wetter,Bundespräsident.,hätten,einem,elektrischer,Glas,den,Krams,Trinkwasser.,"nachgewiesen,",salziger,auf,serviert.,sauberen,harten,Störenfriede,war,geschleudert.,roten,serviert.,minimalem,die,frischen,derer,Mann,feinem,der,Trinkwassers.,weichem,einem,leider,Skandals,Lärm,würden,auf,liegen,täglichem,350,mehr,hat,Skandal,Lärm,einen,immer,Glas,von,350,klassischen,"reichem,",sie,hat,vor,gelegentlichen,was,Wäsche.,leider,feinem,Störenfriede,wurden,am,die,salzige,im,kaltem,Wetters,im,elektrische,roten,unzureichenden,wurden,des,frisches,Kram,eine,unzureichenden,sie,seltenem,Tiere,die,Wäsche.,mehr,"Zeit,",ziemlich,liegen,monatlichem,noch,ungefähr,Auto,"frischem,",deren,eine,geschleudert.,zusätzlichem,um,künftigem,,,,,,,,,,,,,,,,,,,,,,,5,0,5,0,0,5,5,5,,,,,,,space,0.704581022263,,,,,2017_Jan_31_1506,59.8515947853,spr_backupper,001,Mo14,
,eine,Herrn,Alkohol,die,nan,seiner,Esslöffel,Energie.,köstlicher,Soldaten,aus,nan,dass,Wurst,jeden,nan,Kraftstoff,Schaumstoff,jeden.,aus,nan,Planet,nan,täglichen,er,Grases,sie,mehr,Kunsteis,Soldaten,nan,Untergrund,Esslöffel,nichts,wiedergewählt.,um,seiner,jeden,die,grünen,ml,als,den,wiedergewählt.,um,Besucher.,ruhig,köstlichen,den,ml,Schmuck,goldenen,defekt,den,Dezember,Besucher.,Tupperware,nan,nichts,dichten,jeden.,verschrottet.,Hauptbahnhof.,Flut,Wurst,Müll.,Abduschen,die,Müll.,Energie.,Planeten,Helmen,verschrottet.,Herrn,Gras,aus,große,Helmen,defekt,dichten,artgerecht,Stimmung,nan,als,um,"vermiest,",die,Taschengeld,eine,drei,mehr,kaltem,sie,große,nan,schwarzem,die,Einkommen,,,,,,,,,,,,,,,,,,,,,,,5,0,5,0,0,6,6,6,,,,,,,space,0.738183021545,,,,,2017_Jan_31_1506,59.8515947853,spr_backupper,001,Mo14,
,Sammlung,Gantenbein.,verdünnt.,Wohnung.,nan,Frau,warmem,nan,Wein,des,dem,nan,das,mit,Fall,nan,fahren.,gefertigt.,nan,Japan.,nan,ganz,nan,Einsatz,trug.,zwängen.,überführt,als,eingesprüht.,des,nan,liegen.,warmen,mitbringen.,nan,jede,Frau,Fall,Slums.,Tee,warmer,einmal,Boden,nan,jede,nan,diskutiert.,Weins,Problemen,warme,umgearbeitet.,Besatz,war.,Boden,stattfinden.,nan,ist.,nan,mitbringen.,Stoff,nan,nan,nan,zurückgekehrt.,mit,nan,gehärtet.,Wohnung.,nan,nan,ganz,zur,nan,Gantenbeins.,zwängen.,dem,Menge,zur,war.,Gewebe,gehalten.,ziemlich,nan,einmal,Nadelhölzer,dass,Slums.,selber,Sammlung,Tage.,als,Saft,überführt,Menge,nan,Kaffee,Probleme,haftbar.,,,,,,,,,,,,,,,,,,,,,,,5,0,5,0,0,7,7,7,,,,,,,space,0.452349185944,,,,,2017_Jan_31_1506,59.8515947853,spr_backupper,001,Mo14,
,dummer,nan,nan,nan,nan,gepasst.,Honig,nan,schon,zweiten,Haus,nan,Medikament,an,genug.,nan,nan,nan,nan,nan,nan,deutlich.,nan,sinken.,nan,nan,wurden.,gerne.,nan,zweiten,nan,nan,Honigs,nan,nan,Menge,gepasst,genug.,nan,wieder,Milch.,Rilke.,berührt.,nan,Menge,nan,nan,schon,im,Milch.,nan,rekonstruiert.,nan,berührt.,nan,nan,nan,nan,nan,gefertigt.,nan,nan,nan,nan,an,nan,nan,nan,nan,nan,deutlich.,Schule.,nan,nan,nan,Haus,dunkle,Schule.,nan,wiederhergestellt.,nan,vermiest.,nan,Rilke,umzusetzen.,es,nan,kaufen.,dumme,nan,gerne.,besprochen.,wurden.,dunkler,nan,wiederbelebt.,im,nan,,,,,,,,,,,,,,,,,,,,,,,5,0,5,0,0,8,8,8,,,,,,,space,0.527620077133,,,,,2017_Jan_31_1506,59.8515947853,spr_backupper,001,Mo14,
,Sprüche.,nan,nan,nan,nan,nan,her.,nan,auf,Weltkriegs.,geschafft.,nan,nicht,den,nan,nan,nan,nan,nan,nan,nan,nan,nan,nan,nan,nan,nan,nan,nan,Weltkriegs.,nan,nan,her.,nan,nan,heißer,haben.,nan,nan,fit.,nan,nan,nan,nan,heiße,nan,nan,auf,Landkreis.,nan,nan,nan,nan,nan,nan,nan,nan,nan,nan,nan,nan,nan,nan,nan,den,nan,nan,nan,nan,nan,nan,nan,nan,nan,nan,geschafft.,Materie,nan,nan,nan,nan,nan,nan,gelesen.,nan,regnete.,nan,nan,Sprüche.,nan,nan,nan,nan,Materie,nan,nan,Landkreis.,nan,,,,,,,,,,,,,,,,,,,,,,,5,0,5,0,0,9,9,9,,,,,,,space,0.849809169769,,,,,2017_Jan_31_1506,59.8515947853,spr_backupper,001,Mo14,
,,,,,,,,,,,,,,,,,,,,,,,,,,,,,,,,,,,,,,,,,,,,,,,,,,,,,,,,,,,,,,,,,,,,,,,,,,,,,,,,,,,,,,,,,,,,,,,,,,,,,,,,,,,,,,,,,,,,,,,,,5,0,5,0,,,,,,,,,,,,,None,j,1.94985294342,,2017_Jan_31_1506,59.8515947853,spr_backupper,001,Mo14,
,Sie,Die,Die,Sie,Walter,Die,Er,Die,Bei,Bei,Wir,Sie,In,Ich,100,Beträchtliche,Wir,Alle,Außer,Die,Es,Im,Beträchtliche,Ihr,Die,Wir,Es,Wir,Die,Bei,Sie,Jungtiere,Er,Außer,Er,Man,Die,100,Am,Ich,In,In,Nicht,Er,Man,Wir,Fernab,Bei,In,In,Die,Das,Die,Nicht,Unter,Wir,Die,Dort,Außer,Er,Außer,Die,Die,Als,Ich,Viele,Die,Sie,Viele,Die,Im,Die,Die,Die,Wir,Wir,Mit,Die,Die,Danach,In,Dass,Dort,In,Jetzt,Es,Am,Jugendliche,Sie,Der,Wir,Sie,Es,Mit,Es,Die,In,Manche,,,,,,,,,,,,,,,,,,,,,,,6,0,6,0,0,0,0,0,,,,,,None,space,3.5566380024,,,,,2017_Jan_31_1506,59.8515947853,spr_backupper,001,Mo14,
,hatte,Gäste,Lösung,verlassen,Scheel,Schuhe,stellt,Schule,unserer,der,haben,verbrauchen,einer,nehme,g,Stücke,konnten,Betten,den,"Uhr,",wurden,Fernrohr,Stücke,Blutdruck,Uhr,mussten,waren,übergaben,Eislaufbahnen,der,verbrauchen,sollten,stellt,dem,wurde,machte,Schuhe,g,äußeren,wurde,den,meinem,ein,wurde,machte,hatten,des,unserer,der,den,Stücke,Tuch,Uhr,ein,keinen,hatten,Teilnehmerinnen,türmen,das,hat,dem,Autos,Linie,die,nehme,Tonnen,Formen,verlassen,Tonnen,Schule,Fernrohr,Kinder,Autos,Gäste,mussten,haben,dieser,Kinder,Uhr,wurde,diesem,es,türmen,meinem,ist,hat,äußersten,können,hatte,Flug,übergaben,haben,waren,dieser,wurden,müden,der,Kreditnehmer,,,,,,,,,,,,,,,,,,,,,,,6,0,6,0,0,1,1,1,,,,,,,space,0.424481868744,,,,,2017_Jan_31_1506,59.8515947853,spr_backupper,001,Mo14,
,keine,suchen,wird,wegen,war,in,die,verbraucht,Ankunft,Feier,jede,60,Studie,eine,brauner,saftiges,dann,wurden,Bürgermeister,die,Eimer,sahen,saftigen,kann,war,uns,nur,das,wurden,Feier,60,immer,die,Essen,trotz,mal,in,braunen,Rand,damals,Kakao,Studium,Tropfen,trotz,mal,in,Rummels,Ankunft,Tat,Kakao,wurden,wurde,schlug,Tropfen,Umständen,in,wussten,sich,Essen,ein,Bürgermeister,beider,101,Sonne,eine,gebrauchter,wurden,wegen,gebrauchte,verbraucht,sahen,fuhren,beider,suchen,uns,jede,Methode,fuhren,schlug,die,Zirkus,"regnete,",sich,Studium,genau,uns,Rand,Kleidung,keine,zum,dem,die,nur,Methode,Eimer,Teilnehmer,Tat,sind,,,,,,,,,,,,,,,,,,,,,,,6,0,6,0,0,2,2,2,,,,,,,space,0.860301971436,,,,,2017_Jan_31_1506,59.8515947853,spr_backupper,001,Mo14,
,Lust,die,mit,dem,der,Größe,Masse,260.000,stand,gedachte,Menge,Liter,wurde,große,Zucker,Fleisch,mit,mit,beschuldigten,er,rote,wir,Fleischs,schon,aus,durch,kleinere,Auto,mit,gedachte,Liter,auf,Masse,kann,des,wieder,Größe,Zuckers,der,schnell,gehören,las,königliches,dem,wieder,Dänemark,wurde,stand,wissen,gehören,aus,dann,"sporadisch,",königlichen,können,Dänemark,überwiegend,Berge,kann,Hemd,beschuldigten,beteiligter,hält,"unterging,",große,Kleidung,unter,des,Kleidung,260.000,wir,mit,beteiligten,die,durch,Menge,kann,mit,"sporadisch,",Leinwand,werden,hat,Berge,habe,die,die,der,bei,Lust,Mond,Mann,Erlebnisse,kleinere,kann,roter,wurden,wissen,mit,,,,,,,,,,,,,,,,,,,,,,,6,0,6,0,0,3,3,3,,,,,,,space,0.537221908569,,,,,2017_Jan_31_1506,59.8515947853,spr_backupper,001,Mo14,
,auf,Wohnung,"reichlichem,",schönen,vierte,36,mit,Kilowattstunden,ein,man,alten,sprudelndes,jetzt,Packung,sind,wurden,"minimalem,","üblichem,",die,"trug,",Farbe,den,wurden,bei,"Japan,",Büschel,"Delikte,",dem,dauerhaftem,man,sprudelnden,warmem,mit,ich,bekannten,viel,36,sind,Stadt,dank,immer,ich,Blut,bekannten,viel,gelegentlich,schon,ein,wir,immer,"wertvollem,",mit,obwohl,Bluts,Neuwahlen,einen,"nicht,",schmutzige,ich,aus,die,Fahrer,nicht,war,Packung,landen,"regelmäßigem,",schönen,landen,Kilowattstunden,den,solchen,Fahrer,Wohnung,Büschel,alten,man,solch,obschon,aus,die,uns,schmutziger,ich,richtige,Stimmung,Stadt,ausreichendem,auf,dauerte,das,bei,"Delikte,",man,Farbe,mit,wir,"sämtlichem,",,,,,,,,,,,,,,,,,,,,,,,6,0,6,0,0,4,4,4,,,,,,,space,0.62135720253,,,,,2017_Jan_31_1506,59.8515947853,spr_backupper,001,Mo14,
,noch,des,purem,Wetter,Bundespräsident.,hätten,einem,elektrischer,Glas,den,Krams,Trinkwasser.,"nachgewiesen,",salziger,auf,serviert.,sauberen,harten,Störenfriede,war,geschleudert.,roten,serviert.,minimalem,die,frischen,derer,Mann,feinem,der,Trinkwassers.,weichem,einem,leider,Skandals,Lärm,würden,auf,liegen,täglichem,350,mehr,hat,Skandal,Lärm,einen,immer,Glas,von,350,klassischen,"reichem,",sie,hat,vor,gelegentlichen,was,Wäsche.,leider,feinem,Störenfriede,wurden,am,die,salzige,im,kaltem,Wetters,im,elektrische,roten,unzureichenden,wurden,des,frisches,Kram,eine,unzureichenden,sie,seltenem,Tiere,die,Wäsche.,mehr,"Zeit,",ziemlich,liegen,monatlichem,noch,ungefähr,Auto,"frischem,",deren,eine,geschleudert.,zusätzlichem,um,künftigem,,,,,,,,,,,,,,,,,,,,,,,6,0,6,0,0,5,5,5,,,,,,,space,1.48965406418,,,,,2017_Jan_31_1506,59.8515947853,spr_backupper,001,Mo14,
,eine,Herrn,Alkohol,die,nan,seiner,Esslöffel,Energie.,köstlicher,Soldaten,aus,nan,dass,Wurst,jeden,nan,Kraftstoff,Schaumstoff,jeden.,aus,nan,Planet,nan,täglichen,er,Grases,sie,mehr,Kunsteis,Soldaten,nan,Untergrund,Esslöffel,nichts,wiedergewählt.,um,seiner,jeden,die,grünen,ml,als,den,wiedergewählt.,um,Besucher.,ruhig,köstlichen,den,ml,Schmuck,goldenen,defekt,den,Dezember,Besucher.,Tupperware,nan,nichts,dichten,jeden.,verschrottet.,Hauptbahnhof.,Flut,Wurst,Müll.,Abduschen,die,Müll.,Energie.,Planeten,Helmen,verschrottet.,Herrn,Gras,aus,große,Helmen,defekt,dichten,artgerecht,Stimmung,nan,als,um,"vermiest,",die,Taschengeld,eine,drei,mehr,kaltem,sie,große,nan,schwarzem,die,Einkommen,,,,,,,,,,,,,,,,,,,,,,,6,0,6,0,0,6,6,6,,,,,,,space,0.564583063126,,,,,2017_Jan_31_1506,59.8515947853,spr_backupper,001,Mo14,
,Sammlung,Gantenbein.,verdünnt.,Wohnung.,nan,Frau,warmem,nan,Wein,des,dem,nan,das,mit,Fall,nan,fahren.,gefertigt.,nan,Japan.,nan,ganz,nan,Einsatz,trug.,zwängen.,überführt,als,eingesprüht.,des,nan,liegen.,warmen,mitbringen.,nan,jede,Frau,Fall,Slums.,Tee,warmer,einmal,Boden,nan,jede,nan,diskutiert.,Weins,Problemen,warme,umgearbeitet.,Besatz,war.,Boden,stattfinden.,nan,ist.,nan,mitbringen.,Stoff,nan,nan,nan,zurückgekehrt.,mit,nan,gehärtet.,Wohnung.,nan,nan,ganz,zur,nan,Gantenbeins.,zwängen.,dem,Menge,zur,war.,Gewebe,gehalten.,ziemlich,nan,einmal,Nadelhölzer,dass,Slums.,selber,Sammlung,Tage.,als,Saft,überführt,Menge,nan,Kaffee,Probleme,haftbar.,,,,,,,,,,,,,,,,,,,,,,,6,0,6,0,0,7,7,7,,,,,,,space,0.738212823868,,,,,2017_Jan_31_1506,59.8515947853,spr_backupper,001,Mo14,
,dummer,nan,nan,nan,nan,gepasst.,Honig,nan,schon,zweiten,Haus,nan,Medikament,an,genug.,nan,nan,nan,nan,nan,nan,deutlich.,nan,sinken.,nan,nan,wurden.,gerne.,nan,zweiten,nan,nan,Honigs,nan,nan,Menge,gepasst,genug.,nan,wieder,Milch.,Rilke.,berührt.,nan,Menge,nan,nan,schon,im,Milch.,nan,rekonstruiert.,nan,berührt.,nan,nan,nan,nan,nan,gefertigt.,nan,nan,nan,nan,an,nan,nan,nan,nan,nan,deutlich.,Schule.,nan,nan,nan,Haus,dunkle,Schule.,nan,wiederhergestellt.,nan,vermiest.,nan,Rilke,umzusetzen.,es,nan,kaufen.,dumme,nan,gerne.,besprochen.,wurden.,dunkler,nan,wiederbelebt.,im,nan,,,,,,,,,,,,,,,,,,,,,,,6,0,6,0,0,8,8,8,,,,,,,space,0.823292016983,,,,,2017_Jan_31_1506,59.8515947853,spr_backupper,001,Mo14,
,Sprüche.,nan,nan,nan,nan,nan,her.,nan,auf,Weltkriegs.,geschafft.,nan,nicht,den,nan,nan,nan,nan,nan,nan,nan,nan,nan,nan,nan,nan,nan,nan,nan,Weltkriegs.,nan,nan,her.,nan,nan,heißer,haben.,nan,nan,fit.,nan,nan,nan,nan,heiße,nan,nan,auf,Landkreis.,nan,nan,nan,nan,nan,nan,nan,nan,nan,nan,nan,nan,nan,nan,nan,den,nan,nan,nan,nan,nan,nan,nan,nan,nan,nan,geschafft.,Materie,nan,nan,nan,nan,nan,nan,gelesen.,nan,regnete.,nan,nan,Sprüche.,nan,nan,nan,nan,Materie,nan,nan,Landkreis.,nan,,,,,,,,,,,,,,,,,,,,,,,6,0,6,0,0,9,9,9,,,,,,,space,0.717149972916,,,,,2017_Jan_31_1506,59.8515947853,spr_backupper,001,Mo14,
,nan,nan,nan,nan,nan,nan,nan,nan,dem,nan,nan,nan,wirkt.,See.,nan,nan,nan,nan,nan,nan,nan,nan,nan,nan,nan,nan,nan,nan,nan,nan,nan,nan,nan,nan,nan,Luft.,nan,nan,nan,nan,nan,nan,nan,nan,Luft.,nan,nan,dem,nan,nan,nan,nan,nan,nan,nan,nan,nan,nan,nan,nan,nan,nan,nan,nan,See.,nan,nan,nan,nan,nan,nan,nan,nan,nan,nan,nan,erzeugen.,nan,nan,nan,nan,nan,nan,nan,nan,nan,nan,nan,nan,nan,nan,nan,nan,erzeugen.,nan,nan,nan,nan,,,,,,,,,,,,,,,,,,,,,,,6,0,6,0,0,10,10,10,,,,,,,space,0.492526054382,,,,,2017_Jan_31_1506,59.8515947853,spr_backupper,001,Mo14,
,nan,nan,nan,nan,nan,nan,nan,nan,Tisch.,nan,nan,nan,nan,nan,nan,nan,nan,nan,nan,nan,nan,nan,nan,nan,nan,nan,nan,nan,nan,nan,nan,nan,nan,nan,nan,nan,nan,nan,nan,nan,nan,nan,nan,nan,nan,nan,nan,Tisch.,nan,nan,nan,nan,nan,nan,nan,nan,nan,nan,nan,nan,nan,nan,nan,nan,nan,nan,nan,nan,nan,nan,nan,nan,nan,nan,nan,nan,nan,nan,nan,nan,nan,nan,nan,nan,nan,nan,nan,nan,nan,nan,nan,nan,nan,nan,nan,nan,nan,nan,,,,,,,,,,,,,,,,,,,,,,,6,0,6,0,0,11,11,11,,,,,,,space,4.05836796761,,,,,2017_Jan_31_1506,59.8515947853,spr_backupper,001,Mo14,
,,,,,,,,,,,,,,,,,,,,,,,,,,,,,,,,,,,,,,,,,,,,,,,,,,,,,,,,,,,,,,,,,,,,,,,,,,,,,,,,,,,,,,,,,,,,,,,,,,,,,,,,,,,,,,,,,,,,,,,,,6,0,6,0,,,,,,,,,,,,,None,j,2.01242089272,,2017_Jan_31_1506,59.8515947853,spr_backupper,001,Mo14,
,Sie,Die,Die,Sie,Walter,Die,Er,Die,Bei,Bei,Wir,Sie,In,Ich,100,Beträchtliche,Wir,Alle,Außer,Die,Es,Im,Beträchtliche,Ihr,Die,Wir,Es,Wir,Die,Bei,Sie,Jungtiere,Er,Außer,Er,Man,Die,100,Am,Ich,In,In,Nicht,Er,Man,Wir,Fernab,Bei,In,In,Die,Das,Die,Nicht,Unter,Wir,Die,Dort,Außer,Er,Außer,Die,Die,Als,Ich,Viele,Die,Sie,Viele,Die,Im,Die,Die,Die,Wir,Wir,Mit,Die,Die,Danach,In,Dass,Dort,In,Jetzt,Es,Am,Jugendliche,Sie,Der,Wir,Sie,Es,Mit,Es,Die,In,Manche,,,,,,,,,,,,,,,,,,,,,,,7,0,7,0,0,0,0,0,,,,,,space,space,2.03872418404,,,,1.25756812096,2017_Jan_31_1506,59.8515947853,spr_backupper,001,Mo14,
,hatte,Gäste,Lösung,verlassen,Scheel,Schuhe,stellt,Schule,unserer,der,haben,verbrauchen,einer,nehme,g,Stücke,konnten,Betten,den,"Uhr,",wurden,Fernrohr,Stücke,Blutdruck,Uhr,mussten,waren,übergaben,Eislaufbahnen,der,verbrauchen,sollten,stellt,dem,wurde,machte,Schuhe,g,äußeren,wurde,den,meinem,ein,wurde,machte,hatten,des,unserer,der,den,Stücke,Tuch,Uhr,ein,keinen,hatten,Teilnehmerinnen,türmen,das,hat,dem,Autos,Linie,die,nehme,Tonnen,Formen,verlassen,Tonnen,Schule,Fernrohr,Kinder,Autos,Gäste,mussten,haben,dieser,Kinder,Uhr,wurde,diesem,es,türmen,meinem,ist,hat,äußersten,können,hatte,Flug,übergaben,haben,waren,dieser,wurden,müden,der,Kreditnehmer,,,,,,,,,,,,,,,,,,,,,,,7,0,7,0,0,1,1,1,,,,,,,space,0.694100141525,,,,,2017_Jan_31_1506,59.8515947853,spr_backupper,001,Mo14,
,keine,suchen,wird,wegen,war,in,die,verbraucht,Ankunft,Feier,jede,60,Studie,eine,brauner,saftiges,dann,wurden,Bürgermeister,die,Eimer,sahen,saftigen,kann,war,uns,nur,das,wurden,Feier,60,immer,die,Essen,trotz,mal,in,braunen,Rand,damals,Kakao,Studium,Tropfen,trotz,mal,in,Rummels,Ankunft,Tat,Kakao,wurden,wurde,schlug,Tropfen,Umständen,in,wussten,sich,Essen,ein,Bürgermeister,beider,101,Sonne,eine,gebrauchter,wurden,wegen,gebrauchte,verbraucht,sahen,fuhren,beider,suchen,uns,jede,Methode,fuhren,schlug,die,Zirkus,"regnete,",sich,Studium,genau,uns,Rand,Kleidung,keine,zum,dem,die,nur,Methode,Eimer,Teilnehmer,Tat,sind,,,,,,,,,,,,,,,,,,,,,,,7,0,7,0,0,2,2,2,,,,,,,space,2.08817696571,,,,,2017_Jan_31_1506,59.8515947853,spr_backupper,001,Mo14,
,Lust,die,mit,dem,der,Größe,Masse,260.000,stand,gedachte,Menge,Liter,wurde,große,Zucker,Fleisch,mit,mit,beschuldigten,er,rote,wir,Fleischs,schon,aus,durch,kleinere,Auto,mit,gedachte,Liter,auf,Masse,kann,des,wieder,Größe,Zuckers,der,schnell,gehören,las,königliches,dem,wieder,Dänemark,wurde,stand,wissen,gehören,aus,dann,"sporadisch,",königlichen,können,Dänemark,überwiegend,Berge,kann,Hemd,beschuldigten,beteiligter,hält,"unterging,",große,Kleidung,unter,des,Kleidung,260.000,wir,mit,beteiligten,die,durch,Menge,kann,mit,"sporadisch,",Leinwand,werden,hat,Berge,habe,die,die,der,bei,Lust,Mond,Mann,Erlebnisse,kleinere,kann,roter,wurden,wissen,mit,,,,,,,,,,,,,,,,,,,,,,,7,0,7,0,0,3,3,3,,,,,,,space,1.50859904289,,,,,2017_Jan_31_1506,59.8515947853,spr_backupper,001,Mo14,
,auf,Wohnung,"reichlichem,",schönen,vierte,36,mit,Kilowattstunden,ein,man,alten,sprudelndes,jetzt,Packung,sind,wurden,"minimalem,","üblichem,",die,"trug,",Farbe,den,wurden,bei,"Japan,",Büschel,"Delikte,",dem,dauerhaftem,man,sprudelnden,warmem,mit,ich,bekannten,viel,36,sind,Stadt,dank,immer,ich,Blut,bekannten,viel,gelegentlich,schon,ein,wir,immer,"wertvollem,",mit,obwohl,Bluts,Neuwahlen,einen,"nicht,",schmutzige,ich,aus,die,Fahrer,nicht,war,Packung,landen,"regelmäßigem,",schönen,landen,Kilowattstunden,den,solchen,Fahrer,Wohnung,Büschel,alten,man,solch,obschon,aus,die,uns,schmutziger,ich,richtige,Stimmung,Stadt,ausreichendem,auf,dauerte,das,bei,"Delikte,",man,Farbe,mit,wir,"sämtlichem,",,,,,,,,,,,,,,,,,,,,,,,7,0,7,0,0,4,4,4,,,,,,,space,1.44610381126,,,,,2017_Jan_31_1506,59.8515947853,spr_backupper,001,Mo14,
,noch,des,purem,Wetter,Bundespräsident.,hätten,einem,elektrischer,Glas,den,Krams,Trinkwasser.,"nachgewiesen,",salziger,auf,serviert.,sauberen,harten,Störenfriede,war,geschleudert.,roten,serviert.,minimalem,die,frischen,derer,Mann,feinem,der,Trinkwassers.,weichem,einem,leider,Skandals,Lärm,würden,auf,liegen,täglichem,350,mehr,hat,Skandal,Lärm,einen,immer,Glas,von,350,klassischen,"reichem,",sie,hat,vor,gelegentlichen,was,Wäsche.,leider,feinem,Störenfriede,wurden,am,die,salzige,im,kaltem,Wetters,im,elektrische,roten,unzureichenden,wurden,des,frisches,Kram,eine,unzureichenden,sie,seltenem,Tiere,die,Wäsche.,mehr,"Zeit,",ziemlich,liegen,monatlichem,noch,ungefähr,Auto,"frischem,",deren,eine,geschleudert.,zusätzlichem,um,künftigem,,,,,,,,,,,,,,,,,,,,,,,7,0,7,0,0,5,5,5,,,,,,,space,0.940556049347,,,,,2017_Jan_31_1506,59.8515947853,spr_backupper,001,Mo14,
,eine,Herrn,Alkohol,die,nan,seiner,Esslöffel,Energie.,köstlicher,Soldaten,aus,nan,dass,Wurst,jeden,nan,Kraftstoff,Schaumstoff,jeden.,aus,nan,Planet,nan,täglichen,er,Grases,sie,mehr,Kunsteis,Soldaten,nan,Untergrund,Esslöffel,nichts,wiedergewählt.,um,seiner,jeden,die,grünen,ml,als,den,wiedergewählt.,um,Besucher.,ruhig,köstlichen,den,ml,Schmuck,goldenen,defekt,den,Dezember,Besucher.,Tupperware,nan,nichts,dichten,jeden.,verschrottet.,Hauptbahnhof.,Flut,Wurst,Müll.,Abduschen,die,Müll.,Energie.,Planeten,Helmen,verschrottet.,Herrn,Gras,aus,große,Helmen,defekt,dichten,artgerecht,Stimmung,nan,als,um,"vermiest,",die,Taschengeld,eine,drei,mehr,kaltem,sie,große,nan,schwarzem,die,Einkommen,,,,,,,,,,,,,,,,,,,,,,,7,0,7,0,0,6,6,6,,,,,,,space,1.46862506866,,,,,2017_Jan_31_1506,59.8515947853,spr_backupper,001,Mo14,
,Sammlung,Gantenbein.,verdünnt.,Wohnung.,nan,Frau,warmem,nan,Wein,des,dem,nan,das,mit,Fall,nan,fahren.,gefertigt.,nan,Japan.,nan,ganz,nan,Einsatz,trug.,zwängen.,überführt,als,eingesprüht.,des,nan,liegen.,warmen,mitbringen.,nan,jede,Frau,Fall,Slums.,Tee,warmer,einmal,Boden,nan,jede,nan,diskutiert.,Weins,Problemen,warme,umgearbeitet.,Besatz,war.,Boden,stattfinden.,nan,ist.,nan,mitbringen.,Stoff,nan,nan,nan,zurückgekehrt.,mit,nan,gehärtet.,Wohnung.,nan,nan,ganz,zur,nan,Gantenbeins.,zwängen.,dem,Menge,zur,war.,Gewebe,gehalten.,ziemlich,nan,einmal,Nadelhölzer,dass,Slums.,selber,Sammlung,Tage.,als,Saft,überführt,Menge,nan,Kaffee,Probleme,haftbar.,,,,,,,,,,,,,,,,,,,,,,,7,0,7,0,0,7,7,7,,,,,,,space,0.822283983231,,,,,2017_Jan_31_1506,59.8515947853,spr_backupper,001,Mo14,
,,,,,,,,,,,,,,,,,,,,,,,,,,,,,,,,,,,,,,,,,,,,,,,,,,,,,,,,,,,,,,,,,,,,,,,,,,,,,,,,,,,,,,,,,,,,,,,,,,,,,,,,,,,,,,,,,,,,,,,,,7,0,7,0,,,,,,,,,,,,,None,j,1.98610711098,,2017_Jan_31_1506,59.8515947853,spr_backupper,001,Mo14,
,Sie,Die,Die,Sie,Walter,Die,Er,Die,Bei,Bei,Wir,Sie,In,Ich,100,Beträchtliche,Wir,Alle,Außer,Die,Es,Im,Beträchtliche,Ihr,Die,Wir,Es,Wir,Die,Bei,Sie,Jungtiere,Er,Außer,Er,Man,Die,100,Am,Ich,In,In,Nicht,Er,Man,Wir,Fernab,Bei,In,In,Die,Das,Die,Nicht,Unter,Wir,Die,Dort,Außer,Er,Außer,Die,Die,Als,Ich,Viele,Die,Sie,Viele,Die,Im,Die,Die,Die,Wir,Wir,Mit,Die,Die,Danach,In,Dass,Dort,In,Jetzt,Es,Am,Jugendliche,Sie,Der,Wir,Sie,Es,Mit,Es,Die,In,Manche,,,,,,,,,,,,,,,,,,,,,,,8,0,8,0,0,0,0,0,,,,,,None,space,0.0725560188293,,,,,2017_Jan_31_1506,59.8515947853,spr_backupper,001,Mo14,
,hatte,Gäste,Lösung,verlassen,Scheel,Schuhe,stellt,Schule,unserer,der,haben,verbrauchen,einer,nehme,g,Stücke,konnten,Betten,den,"Uhr,",wurden,Fernrohr,Stücke,Blutdruck,Uhr,mussten,waren,übergaben,Eislaufbahnen,der,verbrauchen,sollten,stellt,dem,wurde,machte,Schuhe,g,äußeren,wurde,den,meinem,ein,wurde,machte,hatten,des,unserer,der,den,Stücke,Tuch,Uhr,ein,keinen,hatten,Teilnehmerinnen,türmen,das,hat,dem,Autos,Linie,die,nehme,Tonnen,Formen,verlassen,Tonnen,Schule,Fernrohr,Kinder,Autos,Gäste,mussten,haben,dieser,Kinder,Uhr,wurde,diesem,es,türmen,meinem,ist,hat,äußersten,können,hatte,Flug,übergaben,haben,waren,dieser,wurden,müden,der,Kreditnehmer,,,,,,,,,,,,,,,,,,,,,,,8,0,8,0,0,1,1,1,,,,,,,space,2.69087791443,,,,,2017_Jan_31_1506,59.8515947853,spr_backupper,001,Mo14,
,keine,suchen,wird,wegen,war,in,die,verbraucht,Ankunft,Feier,jede,60,Studie,eine,brauner,saftiges,dann,wurden,Bürgermeister,die,Eimer,sahen,saftigen,kann,war,uns,nur,das,wurden,Feier,60,immer,die,Essen,trotz,mal,in,braunen,Rand,damals,Kakao,Studium,Tropfen,trotz,mal,in,Rummels,Ankunft,Tat,Kakao,wurden,wurde,schlug,Tropfen,Umständen,in,wussten,sich,Essen,ein,Bürgermeister,beider,101,Sonne,eine,gebrauchter,wurden,wegen,gebrauchte,verbraucht,sahen,fuhren,beider,suchen,uns,jede,Methode,fuhren,schlug,die,Zirkus,"regnete,",sich,Studium,genau,uns,Rand,Kleidung,keine,zum,dem,die,nur,Methode,Eimer,Teilnehmer,Tat,sind,,,,,,,,,,,,,,,,,,,,,,,8,0,8,0,0,2,2,2,,,,,,,space,0.643476963043,,,,,2017_Jan_31_1506,59.8515947853,spr_backupper,001,Mo14,
,Lust,die,mit,dem,der,Größe,Masse,260.000,stand,gedachte,Menge,Liter,wurde,große,Zucker,Fleisch,mit,mit,beschuldigten,er,rote,wir,Fleischs,schon,aus,durch,kleinere,Auto,mit,gedachte,Liter,auf,Masse,kann,des,wieder,Größe,Zuckers,der,schnell,gehören,las,königliches,dem,wieder,Dänemark,wurde,stand,wissen,gehören,aus,dann,"sporadisch,",königlichen,können,Dänemark,überwiegend,Berge,kann,Hemd,beschuldigten,beteiligter,hält,"unterging,",große,Kleidung,unter,des,Kleidung,260.000,wir,mit,beteiligten,die,durch,Menge,kann,mit,"sporadisch,",Leinwand,werden,hat,Berge,habe,die,die,der,bei,Lust,Mond,Mann,Erlebnisse,kleinere,kann,roter,wurden,wissen,mit,,,,,,,,,,,,,,,,,,,,,,,8,0,8,0,0,3,3,3,,,,,,,space,1.24858093262,,,,,2017_Jan_31_1506,59.8515947853,spr_backupper,001,Mo14,
,auf,Wohnung,"reichlichem,",schönen,vierte,36,mit,Kilowattstunden,ein,man,alten,sprudelndes,jetzt,Packung,sind,wurden,"minimalem,","üblichem,",die,"trug,",Farbe,den,wurden,bei,"Japan,",Büschel,"Delikte,",dem,dauerhaftem,man,sprudelnden,warmem,mit,ich,bekannten,viel,36,sind,Stadt,dank,immer,ich,Blut,bekannten,viel,gelegentlich,schon,ein,wir,immer,"wertvollem,",mit,obwohl,Bluts,Neuwahlen,einen,"nicht,",schmutzige,ich,aus,die,Fahrer,nicht,war,Packung,landen,"regelmäßigem,",schönen,landen,Kilowattstunden,den,solchen,Fahrer,Wohnung,Büschel,alten,man,solch,obschon,aus,die,uns,schmutziger,ich,richtige,Stimmung,Stadt,ausreichendem,auf,dauerte,das,bei,"Delikte,",man,Farbe,mit,wir,"sämtlichem,",,,,,,,,,,,,,,,,,,,,,,,8,0,8,0,0,4,4,4,,,,,,,space,1.52694106102,,,,,2017_Jan_31_1506,59.8515947853,spr_backupper,001,Mo14,
,noch,des,purem,Wetter,Bundespräsident.,hätten,einem,elektrischer,Glas,den,Krams,Trinkwasser.,"nachgewiesen,",salziger,auf,serviert.,sauberen,harten,Störenfriede,war,geschleudert.,roten,serviert.,minimalem,die,frischen,derer,Mann,feinem,der,Trinkwassers.,weichem,einem,leider,Skandals,Lärm,würden,auf,liegen,täglichem,350,mehr,hat,Skandal,Lärm,einen,immer,Glas,von,350,klassischen,"reichem,",sie,hat,vor,gelegentlichen,was,Wäsche.,leider,feinem,Störenfriede,wurden,am,die,salzige,im,kaltem,Wetters,im,elektrische,roten,unzureichenden,wurden,des,frisches,Kram,eine,unzureichenden,sie,seltenem,Tiere,die,Wäsche.,mehr,"Zeit,",ziemlich,liegen,monatlichem,noch,ungefähr,Auto,"frischem,",deren,eine,geschleudert.,zusätzlichem,um,künftigem,,,,,,,,,,,,,,,,,,,,,,,8,0,8,0,0,5,5,5,,,,,,,space,1.98766803741,,,,,2017_Jan_31_1506,59.8515947853,spr_backupper,001,Mo14,
,eine,Herrn,Alkohol,die,nan,seiner,Esslöffel,Energie.,köstlicher,Soldaten,aus,nan,dass,Wurst,jeden,nan,Kraftstoff,Schaumstoff,jeden.,aus,nan,Planet,nan,täglichen,er,Grases,sie,mehr,Kunsteis,Soldaten,nan,Untergrund,Esslöffel,nichts,wiedergewählt.,um,seiner,jeden,die,grünen,ml,als,den,wiedergewählt.,um,Besucher.,ruhig,köstlichen,den,ml,Schmuck,goldenen,defekt,den,Dezember,Besucher.,Tupperware,nan,nichts,dichten,jeden.,verschrottet.,Hauptbahnhof.,Flut,Wurst,Müll.,Abduschen,die,Müll.,Energie.,Planeten,Helmen,verschrottet.,Herrn,Gras,aus,große,Helmen,defekt,dichten,artgerecht,Stimmung,nan,als,um,"vermiest,",die,Taschengeld,eine,drei,mehr,kaltem,sie,große,nan,schwarzem,die,Einkommen,,,,,,,,,,,,,,,,,,,,,,,8,0,8,0,0,6,6,6,,,,,,,space,6.45834589005,,,,,2017_Jan_31_1506,59.8515947853,spr_backupper,001,Mo14,
,Sammlung,Gantenbein.,verdünnt.,Wohnung.,nan,Frau,warmem,nan,Wein,des,dem,nan,das,mit,Fall,nan,fahren.,gefertigt.,nan,Japan.,nan,ganz,nan,Einsatz,trug.,zwängen.,überführt,als,eingesprüht.,des,nan,liegen.,warmen,mitbringen.,nan,jede,Frau,Fall,Slums.,Tee,warmer,einmal,Boden,nan,jede,nan,diskutiert.,Weins,Problemen,warme,umgearbeitet.,Besatz,war.,Boden,stattfinden.,nan,ist.,nan,mitbringen.,Stoff,nan,nan,nan,zurückgekehrt.,mit,nan,gehärtet.,Wohnung.,nan,nan,ganz,zur,nan,Gantenbeins.,zwängen.,dem,Menge,zur,war.,Gewebe,gehalten.,ziemlich,nan,einmal,Nadelhölzer,dass,Slums.,selber,Sammlung,Tage.,als,Saft,überführt,Menge,nan,Kaffee,Probleme,haftbar.,,,,,,,,,,,,,,,,,,,,,,,8,0,8,0,0,7,7,7,,,,,,,space,1.00682997704,,,,,2017_Jan_31_1506,59.8515947853,spr_backupper,001,Mo14,
,,,,,,,,,,,,,,,,,,,,,,,,,,,,,,,,,,,,,,,,,,,,,,,,,,,,,,,,,,,,,,,,,,,,,,,,,,,,,,,,,,,,,,,,,,,,,,,,,,,,,,,,,,,,,,,,,,,,,,,,,8,0,8,0,,,,,,,,,,,,,None,j,1.82805490494,,2017_Jan_31_1506,59.8515947853,spr_backupper,001,Mo14,
,Sie,Die,Die,Sie,Walter,Die,Er,Die,Bei,Bei,Wir,Sie,In,Ich,100,Beträchtliche,Wir,Alle,Außer,Die,Es,Im,Beträchtliche,Ihr,Die,Wir,Es,Wir,Die,Bei,Sie,Jungtiere,Er,Außer,Er,Man,Die,100,Am,Ich,In,In,Nicht,Er,Man,Wir,Fernab,Bei,In,In,Die,Das,Die,Nicht,Unter,Wir,Die,Dort,Außer,Er,Außer,Die,Die,Als,Ich,Viele,Die,Sie,Viele,Die,Im,Die,Die,Die,Wir,Wir,Mit,Die,Die,Danach,In,Dass,Dort,In,Jetzt,Es,Am,Jugendliche,Sie,Der,Wir,Sie,Es,Mit,Es,Die,In,Manche,,,,,,,,,,,,,,,,,,,,,,,9,0,9,0,0,0,0,0,,,,,,space,space,1.03808689117,,,,0.688281059265,2017_Jan_31_1506,59.8515947853,spr_backupper,001,Mo14,
,hatte,Gäste,Lösung,verlassen,Scheel,Schuhe,stellt,Schule,unserer,der,haben,verbrauchen,einer,nehme,g,Stücke,konnten,Betten,den,"Uhr,",wurden,Fernrohr,Stücke,Blutdruck,Uhr,mussten,waren,übergaben,Eislaufbahnen,der,verbrauchen,sollten,stellt,dem,wurde,machte,Schuhe,g,äußeren,wurde,den,meinem,ein,wurde,machte,hatten,des,unserer,der,den,Stücke,Tuch,Uhr,ein,keinen,hatten,Teilnehmerinnen,türmen,das,hat,dem,Autos,Linie,die,nehme,Tonnen,Formen,verlassen,Tonnen,Schule,Fernrohr,Kinder,Autos,Gäste,mussten,haben,dieser,Kinder,Uhr,wurde,diesem,es,türmen,meinem,ist,hat,äußersten,können,hatte,Flug,übergaben,haben,waren,dieser,wurden,müden,der,Kreditnehmer,,,,,,,,,,,,,,,,,,,,,,,9,0,9,0,0,1,1,1,,,,,,,space,0.806053876877,,,,,2017_Jan_31_1506,59.8515947853,spr_backupper,001,Mo14,
,keine,suchen,wird,wegen,war,in,die,verbraucht,Ankunft,Feier,jede,60,Studie,eine,brauner,saftiges,dann,wurden,Bürgermeister,die,Eimer,sahen,saftigen,kann,war,uns,nur,das,wurden,Feier,60,immer,die,Essen,trotz,mal,in,braunen,Rand,damals,Kakao,Studium,Tropfen,trotz,mal,in,Rummels,Ankunft,Tat,Kakao,wurden,wurde,schlug,Tropfen,Umständen,in,wussten,sich,Essen,ein,Bürgermeister,beider,101,Sonne,eine,gebrauchter,wurden,wegen,gebrauchte,verbraucht,sahen,fuhren,beider,suchen,uns,jede,Methode,fuhren,schlug,die,Zirkus,"regnete,",sich,Studium,genau,uns,Rand,Kleidung,keine,zum,dem,die,nur,Methode,Eimer,Teilnehmer,Tat,sind,,,,,,,,,,,,,,,,,,,,,,,9,0,9,0,0,2,2,2,,,,,,,space,3.51985883713,,,,,2017_Jan_31_1506,59.8515947853,spr_backupper,001,Mo14,
,Lust,die,mit,dem,der,Größe,Masse,260.000,stand,gedachte,Menge,Liter,wurde,große,Zucker,Fleisch,mit,mit,beschuldigten,er,rote,wir,Fleischs,schon,aus,durch,kleinere,Auto,mit,gedachte,Liter,auf,Masse,kann,des,wieder,Größe,Zuckers,der,schnell,gehören,las,königliches,dem,wieder,Dänemark,wurde,stand,wissen,gehören,aus,dann,"sporadisch,",königlichen,können,Dänemark,überwiegend,Berge,kann,Hemd,beschuldigten,beteiligter,hält,"unterging,",große,Kleidung,unter,des,Kleidung,260.000,wir,mit,beteiligten,die,durch,Menge,kann,mit,"sporadisch,",Leinwand,werden,hat,Berge,habe,die,die,der,bei,Lust,Mond,Mann,Erlebnisse,kleinere,kann,roter,wurden,wissen,mit,,,,,,,,,,,,,,,,,,,,,,,9,0,9,0,0,3,3,3,,,,,,,space,1.0568151474,,,,,2017_Jan_31_1506,59.8515947853,spr_backupper,001,Mo14,
,auf,Wohnung,"reichlichem,",schönen,vierte,36,mit,Kilowattstunden,ein,man,alten,sprudelndes,jetzt,Packung,sind,wurden,"minimalem,","üblichem,",die,"trug,",Farbe,den,wurden,bei,"Japan,",Büschel,"Delikte,",dem,dauerhaftem,man,sprudelnden,warmem,mit,ich,bekannten,viel,36,sind,Stadt,dank,immer,ich,Blut,bekannten,viel,gelegentlich,schon,ein,wir,immer,"wertvollem,",mit,obwohl,Bluts,Neuwahlen,einen,"nicht,",schmutzige,ich,aus,die,Fahrer,nicht,war,Packung,landen,"regelmäßigem,",schönen,landen,Kilowattstunden,den,solchen,Fahrer,Wohnung,Büschel,alten,man,solch,obschon,aus,die,uns,schmutziger,ich,richtige,Stimmung,Stadt,ausreichendem,auf,dauerte,das,bei,"Delikte,",man,Farbe,mit,wir,"sämtlichem,",,,,,,,,,,,,,,,,,,,,,,,9,0,9,0,0,4,4,4,,,,,,,space,0.989852190018,,,,,2017_Jan_31_1506,59.8515947853,spr_backupper,001,Mo14,
,noch,des,purem,Wetter,Bundespräsident.,hätten,einem,elektrischer,Glas,den,Krams,Trinkwasser.,"nachgewiesen,",salziger,auf,serviert.,sauberen,harten,Störenfriede,war,geschleudert.,roten,serviert.,minimalem,die,frischen,derer,Mann,feinem,der,Trinkwassers.,weichem,einem,leider,Skandals,Lärm,würden,auf,liegen,täglichem,350,mehr,hat,Skandal,Lärm,einen,immer,Glas,von,350,klassischen,"reichem,",sie,hat,vor,gelegentlichen,was,Wäsche.,leider,feinem,Störenfriede,wurden,am,die,salzige,im,kaltem,Wetters,im,elektrische,roten,unzureichenden,wurden,des,frisches,Kram,eine,unzureichenden,sie,seltenem,Tiere,die,Wäsche.,mehr,"Zeit,",ziemlich,liegen,monatlichem,noch,ungefähr,Auto,"frischem,",deren,eine,geschleudert.,zusätzlichem,um,künftigem,,,,,,,,,,,,,,,,,,,,,,,9,0,9,0,0,5,5,5,,,,,,,space,1.04635715485,,,,,2017_Jan_31_1506,59.8515947853,spr_backupper,001,Mo14,
,eine,Herrn,Alkohol,die,nan,seiner,Esslöffel,Energie.,köstlicher,Soldaten,aus,nan,dass,Wurst,jeden,nan,Kraftstoff,Schaumstoff,jeden.,aus,nan,Planet,nan,täglichen,er,Grases,sie,mehr,Kunsteis,Soldaten,nan,Untergrund,Esslöffel,nichts,wiedergewählt.,um,seiner,jeden,die,grünen,ml,als,den,wiedergewählt.,um,Besucher.,ruhig,köstlichen,den,ml,Schmuck,goldenen,defekt,den,Dezember,Besucher.,Tupperware,nan,nichts,dichten,jeden.,verschrottet.,Hauptbahnhof.,Flut,Wurst,Müll.,Abduschen,die,Müll.,Energie.,Planeten,Helmen,verschrottet.,Herrn,Gras,aus,große,Helmen,defekt,dichten,artgerecht,Stimmung,nan,als,um,"vermiest,",die,Taschengeld,eine,drei,mehr,kaltem,sie,große,nan,schwarzem,die,Einkommen,,,,,,,,,,,,,,,,,,,,,,,9,0,9,0,0,6,6,6,,,,,,,space,0.691381931305,,,,,2017_Jan_31_1506,59.8515947853,spr_backupper,001,Mo14,
,Sammlung,Gantenbein.,verdünnt.,Wohnung.,nan,Frau,warmem,nan,Wein,des,dem,nan,das,mit,Fall,nan,fahren.,gefertigt.,nan,Japan.,nan,ganz,nan,Einsatz,trug.,zwängen.,überführt,als,eingesprüht.,des,nan,liegen.,warmen,mitbringen.,nan,jede,Frau,Fall,Slums.,Tee,warmer,einmal,Boden,nan,jede,nan,diskutiert.,Weins,Problemen,warme,umgearbeitet.,Besatz,war.,Boden,stattfinden.,nan,ist.,nan,mitbringen.,Stoff,nan,nan,nan,zurückgekehrt.,mit,nan,gehärtet.,Wohnung.,nan,nan,ganz,zur,nan,Gantenbeins.,zwängen.,dem,Menge,zur,war.,Gewebe,gehalten.,ziemlich,nan,einmal,Nadelhölzer,dass,Slums.,selber,Sammlung,Tage.,als,Saft,überführt,Menge,nan,Kaffee,Probleme,haftbar.,,,,,,,,,,,,,,,,,,,,,,,9,0,9,0,0,7,7,7,,,,,,,space,2.06300902367,,,,,2017_Jan_31_1506,59.8515947853,spr_backupper,001,Mo14,
,dummer,nan,nan,nan,nan,gepasst.,Honig,nan,schon,zweiten,Haus,nan,Medikament,an,genug.,nan,nan,nan,nan,nan,nan,deutlich.,nan,sinken.,nan,nan,wurden.,gerne.,nan,zweiten,nan,nan,Honigs,nan,nan,Menge,gepasst,genug.,nan,wieder,Milch.,Rilke.,berührt.,nan,Menge,nan,nan,schon,im,Milch.,nan,rekonstruiert.,nan,berührt.,nan,nan,nan,nan,nan,gefertigt.,nan,nan,nan,nan,an,nan,nan,nan,nan,nan,deutlich.,Schule.,nan,nan,nan,Haus,dunkle,Schule.,nan,wiederhergestellt.,nan,vermiest.,nan,Rilke,umzusetzen.,es,nan,kaufen.,dumme,nan,gerne.,besprochen.,wurden.,dunkler,nan,wiederbelebt.,im,nan,,,,,,,,,,,,,,,,,,,,,,,9,0,9,0,0,8,8,8,,,,,,,space,0.956513881683,,,,,2017_Jan_31_1506,59.8515947853,spr_backupper,001,Mo14,
,,,,,,,,,,,,,,,,,,,,,,,,,,,,,,,,,,,,,,,,,,,,,,,,,,,,,,,,,,,,,,,,,,,,,,,,,,,,,,,,,,,,,,,,,,,,,,,,,,,,,,,,,,,,,,,,,,,,,,,,,9,0,9,0,,,,,,,,,,,,,None,j,1.93771386147,,2017_Jan_31_1506,59.8515947853,spr_backupper,001,Mo14,
,Sie,Die,Die,Sie,Walter,Die,Er,Die,Bei,Bei,Wir,Sie,In,Ich,100,Beträchtliche,Wir,Alle,Außer,Die,Es,Im,Beträchtliche,Ihr,Die,Wir,Es,Wir,Die,Bei,Sie,Jungtiere,Er,Außer,Er,Man,Die,100,Am,Ich,In,In,Nicht,Er,Man,Wir,Fernab,Bei,In,In,Die,Das,Die,Nicht,Unter,Wir,Die,Dort,Außer,Er,Außer,Die,Die,Als,Ich,Viele,Die,Sie,Viele,Die,Im,Die,Die,Die,Wir,Wir,Mit,Die,Die,Danach,In,Dass,Dort,In,Jetzt,Es,Am,Jugendliche,Sie,Der,Wir,Sie,Es,Mit,Es,Die,In,Manche,,,,,,,,,,,,,,,,,,,,,,,10,0,10,0,0,0,0,0,,,,,,None,space,4.07287096977,,,,,2017_Jan_31_1506,59.8515947853,spr_backupper,001,Mo14,
,hatte,Gäste,Lösung,verlassen,Scheel,Schuhe,stellt,Schule,unserer,der,haben,verbrauchen,einer,nehme,g,Stücke,konnten,Betten,den,"Uhr,",wurden,Fernrohr,Stücke,Blutdruck,Uhr,mussten,waren,übergaben,Eislaufbahnen,der,verbrauchen,sollten,stellt,dem,wurde,machte,Schuhe,g,äußeren,wurde,den,meinem,ein,wurde,machte,hatten,des,unserer,der,den,Stücke,Tuch,Uhr,ein,keinen,hatten,Teilnehmerinnen,türmen,das,hat,dem,Autos,Linie,die,nehme,Tonnen,Formen,verlassen,Tonnen,Schule,Fernrohr,Kinder,Autos,Gäste,mussten,haben,dieser,Kinder,Uhr,wurde,diesem,es,türmen,meinem,ist,hat,äußersten,können,hatte,Flug,übergaben,haben,waren,dieser,wurden,müden,der,Kreditnehmer,,,,,,,,,,,,,,,,,,,,,,,10,0,10,0,0,1,1,1,,,,,,,space,1.07705497742,,,,,2017_Jan_31_1506,59.8515947853,spr_backupper,001,Mo14,
,keine,suchen,wird,wegen,war,in,die,verbraucht,Ankunft,Feier,jede,60,Studie,eine,brauner,saftiges,dann,wurden,Bürgermeister,die,Eimer,sahen,saftigen,kann,war,uns,nur,das,wurden,Feier,60,immer,die,Essen,trotz,mal,in,braunen,Rand,damals,Kakao,Studium,Tropfen,trotz,mal,in,Rummels,Ankunft,Tat,Kakao,wurden,wurde,schlug,Tropfen,Umständen,in,wussten,sich,Essen,ein,Bürgermeister,beider,101,Sonne,eine,gebrauchter,wurden,wegen,gebrauchte,verbraucht,sahen,fuhren,beider,suchen,uns,jede,Methode,fuhren,schlug,die,Zirkus,"regnete,",sich,Studium,genau,uns,Rand,Kleidung,keine,zum,dem,die,nur,Methode,Eimer,Teilnehmer,Tat,sind,,,,,,,,,,,,,,,,,,,,,,,10,0,10,0,0,2,2,2,,,,,,,space,1.80075907707,,,,,2017_Jan_31_1506,59.8515947853,spr_backupper,001,Mo14,
,Lust,die,mit,dem,der,Größe,Masse,260.000,stand,gedachte,Menge,Liter,wurde,große,Zucker,Fleisch,mit,mit,beschuldigten,er,rote,wir,Fleischs,schon,aus,durch,kleinere,Auto,mit,gedachte,Liter,auf,Masse,kann,des,wieder,Größe,Zuckers,der,schnell,gehören,las,königliches,dem,wieder,Dänemark,wurde,stand,wissen,gehören,aus,dann,"sporadisch,",königlichen,können,Dänemark,überwiegend,Berge,kann,Hemd,beschuldigten,beteiligter,hält,"unterging,",große,Kleidung,unter,des,Kleidung,260.000,wir,mit,beteiligten,die,durch,Menge,kann,mit,"sporadisch,",Leinwand,werden,hat,Berge,habe,die,die,der,bei,Lust,Mond,Mann,Erlebnisse,kleinere,kann,roter,wurden,wissen,mit,,,,,,,,,,,,,,,,,,,,,,,10,0,10,0,0,3,3,3,,,,,,,space,0.951642990112,,,,,2017_Jan_31_1506,59.8515947853,spr_backupper,001,Mo14,
,auf,Wohnung,"reichlichem,",schönen,vierte,36,mit,Kilowattstunden,ein,man,alten,sprudelndes,jetzt,Packung,sind,wurden,"minimalem,","üblichem,",die,"trug,",Farbe,den,wurden,bei,"Japan,",Büschel,"Delikte,",dem,dauerhaftem,man,sprudelnden,warmem,mit,ich,bekannten,viel,36,sind,Stadt,dank,immer,ich,Blut,bekannten,viel,gelegentlich,schon,ein,wir,immer,"wertvollem,",mit,obwohl,Bluts,Neuwahlen,einen,"nicht,",schmutzige,ich,aus,die,Fahrer,nicht,war,Packung,landen,"regelmäßigem,",schönen,landen,Kilowattstunden,den,solchen,Fahrer,Wohnung,Büschel,alten,man,solch,obschon,aus,die,uns,schmutziger,ich,richtige,Stimmung,Stadt,ausreichendem,auf,dauerte,das,bei,"Delikte,",man,Farbe,mit,wir,"sämtlichem,",,,,,,,,,,,,,,,,,,,,,,,10,0,10,0,0,4,4,4,,,,,,,space,0.620807170868,,,,,2017_Jan_31_1506,59.8515947853,spr_backupper,001,Mo14,
,noch,des,purem,Wetter,Bundespräsident.,hätten,einem,elektrischer,Glas,den,Krams,Trinkwasser.,"nachgewiesen,",salziger,auf,serviert.,sauberen,harten,Störenfriede,war,geschleudert.,roten,serviert.,minimalem,die,frischen,derer,Mann,feinem,der,Trinkwassers.,weichem,einem,leider,Skandals,Lärm,würden,auf,liegen,täglichem,350,mehr,hat,Skandal,Lärm,einen,immer,Glas,von,350,klassischen,"reichem,",sie,hat,vor,gelegentlichen,was,Wäsche.,leider,feinem,Störenfriede,wurden,am,die,salzige,im,kaltem,Wetters,im,elektrische,roten,unzureichenden,wurden,des,frisches,Kram,eine,unzureichenden,sie,seltenem,Tiere,die,Wäsche.,mehr,"Zeit,",ziemlich,liegen,monatlichem,noch,ungefähr,Auto,"frischem,",deren,eine,geschleudert.,zusätzlichem,um,künftigem,,,,,,,,,,,,,,,,,,,,,,,10,0,10,0,0,5,5,5,,,,,,,space,1.9174041748,,,,,2017_Jan_31_1506,59.8515947853,spr_backupper,001,Mo14,
,,,,,,,,,,,,,,,,,,,,,,,,,,,,,,,,,,,,,,,,,,,,,,,,,,,,,,,,,,,,,,,,,,,,,,,,,,,,,,,,,,,,,,,,,,,,,,,,,,,,,,,,,,,,,,,,,,,,,,,,,10,0,10,0,,,,,,,,,,,,,None,n,2.59934306145,,2017_Jan_31_1506,59.8515947853,spr_backupper,001,Mo14,
,Sie,Die,Die,Sie,Walter,Die,Er,Die,Bei,Bei,Wir,Sie,In,Ich,100,Beträchtliche,Wir,Alle,Außer,Die,Es,Im,Beträchtliche,Ihr,Die,Wir,Es,Wir,Die,Bei,Sie,Jungtiere,Er,Außer,Er,Man,Die,100,Am,Ich,In,In,Nicht,Er,Man,Wir,Fernab,Bei,In,In,Die,Das,Die,Nicht,Unter,Wir,Die,Dort,Außer,Er,Außer,Die,Die,Als,Ich,Viele,Die,Sie,Viele,Die,Im,Die,Die,Die,Wir,Wir,Mit,Die,Die,Danach,In,Dass,Dort,In,Jetzt,Es,Am,Jugendliche,Sie,Der,Wir,Sie,Es,Mit,Es,Die,In,Manche,,,,,,,,,,,,,,,,,,,,,,,11,0,11,0,0,0,0,0,,,,,,None,space,1.02209210396,,,,,2017_Jan_31_1506,59.8515947853,spr_backupper,001,Mo14,
,hatte,Gäste,Lösung,verlassen,Scheel,Schuhe,stellt,Schule,unserer,der,haben,verbrauchen,einer,nehme,g,Stücke,konnten,Betten,den,"Uhr,",wurden,Fernrohr,Stücke,Blutdruck,Uhr,mussten,waren,übergaben,Eislaufbahnen,der,verbrauchen,sollten,stellt,dem,wurde,machte,Schuhe,g,äußeren,wurde,den,meinem,ein,wurde,machte,hatten,des,unserer,der,den,Stücke,Tuch,Uhr,ein,keinen,hatten,Teilnehmerinnen,türmen,das,hat,dem,Autos,Linie,die,nehme,Tonnen,Formen,verlassen,Tonnen,Schule,Fernrohr,Kinder,Autos,Gäste,mussten,haben,dieser,Kinder,Uhr,wurde,diesem,es,türmen,meinem,ist,hat,äußersten,können,hatte,Flug,übergaben,haben,waren,dieser,wurden,müden,der,Kreditnehmer,,,,,,,,,,,,,,,,,,,,,,,11,0,11,0,0,1,1,1,,,,,,,space,0.635357141495,,,,,2017_Jan_31_1506,59.8515947853,spr_backupper,001,Mo14,
,keine,suchen,wird,wegen,war,in,die,verbraucht,Ankunft,Feier,jede,60,Studie,eine,brauner,saftiges,dann,wurden,Bürgermeister,die,Eimer,sahen,saftigen,kann,war,uns,nur,das,wurden,Feier,60,immer,die,Essen,trotz,mal,in,braunen,Rand,damals,Kakao,Studium,Tropfen,trotz,mal,in,Rummels,Ankunft,Tat,Kakao,wurden,wurde,schlug,Tropfen,Umständen,in,wussten,sich,Essen,ein,Bürgermeister,beider,101,Sonne,eine,gebrauchter,wurden,wegen,gebrauchte,verbraucht,sahen,fuhren,beider,suchen,uns,jede,Methode,fuhren,schlug,die,Zirkus,"regnete,",sich,Studium,genau,uns,Rand,Kleidung,keine,zum,dem,die,nur,Methode,Eimer,Teilnehmer,Tat,sind,,,,,,,,,,,,,,,,,,,,,,,11,0,11,0,0,2,2,2,,,,,,,space,0.935898065567,,,,,2017_Jan_31_1506,59.8515947853,spr_backupper,001,Mo14,
,Lust,die,mit,dem,der,Größe,Masse,260.000,stand,gedachte,Menge,Liter,wurde,große,Zucker,Fleisch,mit,mit,beschuldigten,er,rote,wir,Fleischs,schon,aus,durch,kleinere,Auto,mit,gedachte,Liter,auf,Masse,kann,des,wieder,Größe,Zuckers,der,schnell,gehören,las,königliches,dem,wieder,Dänemark,wurde,stand,wissen,gehören,aus,dann,"sporadisch,",königlichen,können,Dänemark,überwiegend,Berge,kann,Hemd,beschuldigten,beteiligter,hält,"unterging,",große,Kleidung,unter,des,Kleidung,260.000,wir,mit,beteiligten,die,durch,Menge,kann,mit,"sporadisch,",Leinwand,werden,hat,Berge,habe,die,die,der,bei,Lust,Mond,Mann,Erlebnisse,kleinere,kann,roter,wurden,wissen,mit,,,,,,,,,,,,,,,,,,,,,,,11,0,11,0,0,3,3,3,,,,,,,space,0.862774133682,,,,,2017_Jan_31_1506,59.8515947853,spr_backupper,001,Mo14,
,auf,Wohnung,"reichlichem,",schönen,vierte,36,mit,Kilowattstunden,ein,man,alten,sprudelndes,jetzt,Packung,sind,wurden,"minimalem,","üblichem,",die,"trug,",Farbe,den,wurden,bei,"Japan,",Büschel,"Delikte,",dem,dauerhaftem,man,sprudelnden,warmem,mit,ich,bekannten,viel,36,sind,Stadt,dank,immer,ich,Blut,bekannten,viel,gelegentlich,schon,ein,wir,immer,"wertvollem,",mit,obwohl,Bluts,Neuwahlen,einen,"nicht,",schmutzige,ich,aus,die,Fahrer,nicht,war,Packung,landen,"regelmäßigem,",schönen,landen,Kilowattstunden,den,solchen,Fahrer,Wohnung,Büschel,alten,man,solch,obschon,aus,die,uns,schmutziger,ich,richtige,Stimmung,Stadt,ausreichendem,auf,dauerte,das,bei,"Delikte,",man,Farbe,mit,wir,"sämtlichem,",,,,,,,,,,,,,,,,,,,,,,,11,0,11,0,0,4,4,4,,,,,,,space,0.520489931107,,,,,2017_Jan_31_1506,59.8515947853,spr_backupper,001,Mo14,
,noch,des,purem,Wetter,Bundespräsident.,hätten,einem,elektrischer,Glas,den,Krams,Trinkwasser.,"nachgewiesen,",salziger,auf,serviert.,sauberen,harten,Störenfriede,war,geschleudert.,roten,serviert.,minimalem,die,frischen,derer,Mann,feinem,der,Trinkwassers.,weichem,einem,leider,Skandals,Lärm,würden,auf,liegen,täglichem,350,mehr,hat,Skandal,Lärm,einen,immer,Glas,von,350,klassischen,"reichem,",sie,hat,vor,gelegentlichen,was,Wäsche.,leider,feinem,Störenfriede,wurden,am,die,salzige,im,kaltem,Wetters,im,elektrische,roten,unzureichenden,wurden,des,frisches,Kram,eine,unzureichenden,sie,seltenem,Tiere,die,Wäsche.,mehr,"Zeit,",ziemlich,liegen,monatlichem,noch,ungefähr,Auto,"frischem,",deren,eine,geschleudert.,zusätzlichem,um,künftigem,,,,,,,,,,,,,,,,,,,,,,,11,0,11,0,0,5,5,5,,,,,,,space,0.729521989822,,,,,2017_Jan_31_1506,59.8515947853,spr_backupper,001,Mo14,
,eine,Herrn,Alkohol,die,nan,seiner,Esslöffel,Energie.,köstlicher,Soldaten,aus,nan,dass,Wurst,jeden,nan,Kraftstoff,Schaumstoff,jeden.,aus,nan,Planet,nan,täglichen,er,Grases,sie,mehr,Kunsteis,Soldaten,nan,Untergrund,Esslöffel,nichts,wiedergewählt.,um,seiner,jeden,die,grünen,ml,als,den,wiedergewählt.,um,Besucher.,ruhig,köstlichen,den,ml,Schmuck,goldenen,defekt,den,Dezember,Besucher.,Tupperware,nan,nichts,dichten,jeden.,verschrottet.,Hauptbahnhof.,Flut,Wurst,Müll.,Abduschen,die,Müll.,Energie.,Planeten,Helmen,verschrottet.,Herrn,Gras,aus,große,Helmen,defekt,dichten,artgerecht,Stimmung,nan,als,um,"vermiest,",die,Taschengeld,eine,drei,mehr,kaltem,sie,große,nan,schwarzem,die,Einkommen,,,,,,,,,,,,,,,,,,,,,,,11,0,11,0,0,6,6,6,,,,,,,space,1.52607893944,,,,,2017_Jan_31_1506,59.8515947853,spr_backupper,001,Mo14,
,Sammlung,Gantenbein.,verdünnt.,Wohnung.,nan,Frau,warmem,nan,Wein,des,dem,nan,das,mit,Fall,nan,fahren.,gefertigt.,nan,Japan.,nan,ganz,nan,Einsatz,trug.,zwängen.,überführt,als,eingesprüht.,des,nan,liegen.,warmen,mitbringen.,nan,jede,Frau,Fall,Slums.,Tee,warmer,einmal,Boden,nan,jede,nan,diskutiert.,Weins,Problemen,warme,umgearbeitet.,Besatz,war.,Boden,stattfinden.,nan,ist.,nan,mitbringen.,Stoff,nan,nan,nan,zurückgekehrt.,mit,nan,gehärtet.,Wohnung.,nan,nan,ganz,zur,nan,Gantenbeins.,zwängen.,dem,Menge,zur,war.,Gewebe,gehalten.,ziemlich,nan,einmal,Nadelhölzer,dass,Slums.,selber,Sammlung,Tage.,als,Saft,überführt,Menge,nan,Kaffee,Probleme,haftbar.,,,,,,,,,,,,,,,,,,,,,,,11,0,11,0,0,7,7,7,,,,,,,space,0.957129955292,,,,,2017_Jan_31_1506,59.8515947853,spr_backupper,001,Mo14,
,dummer,nan,nan,nan,nan,gepasst.,Honig,nan,schon,zweiten,Haus,nan,Medikament,an,genug.,nan,nan,nan,nan,nan,nan,deutlich.,nan,sinken.,nan,nan,wurden.,gerne.,nan,zweiten,nan,nan,Honigs,nan,nan,Menge,gepasst,genug.,nan,wieder,Milch.,Rilke.,berührt.,nan,Menge,nan,nan,schon,im,Milch.,nan,rekonstruiert.,nan,berührt.,nan,nan,nan,nan,nan,gefertigt.,nan,nan,nan,nan,an,nan,nan,nan,nan,nan,deutlich.,Schule.,nan,nan,nan,Haus,dunkle,Schule.,nan,wiederhergestellt.,nan,vermiest.,nan,Rilke,umzusetzen.,es,nan,kaufen.,dumme,nan,gerne.,besprochen.,wurden.,dunkler,nan,wiederbelebt.,im,nan,,,,,,,,,,,,,,,,,,,,,,,11,0,11,0,0,8,8,8,,,,,,,space,5.77435207367,,,,,2017_Jan_31_1506,59.8515947853,spr_backupper,001,Mo14,
,,,,,,,,,,,,,,,,,,,,,,,,,,,,,,,,,,,,,,,,,,,,,,,,,,,,,,,,,,,,,,,,,,,,,,,,,,,,,,,,,,,,,,,,,,,,,,,,,,,,,,,,,,,,,,,,,,,,,,,,,11,0,11,0,,,,,,,,,,,,,None,n,1.94653296471,,2017_Jan_31_1506,59.8515947853,spr_backupper,001,Mo14,
,Sie,Die,Die,Sie,Walter,Die,Er,Die,Bei,Bei,Wir,Sie,In,Ich,100,Beträchtliche,Wir,Alle,Außer,Die,Es,Im,Beträchtliche,Ihr,Die,Wir,Es,Wir,Die,Bei,Sie,Jungtiere,Er,Außer,Er,Man,Die,100,Am,Ich,In,In,Nicht,Er,Man,Wir,Fernab,Bei,In,In,Die,Das,Die,Nicht,Unter,Wir,Die,Dort,Außer,Er,Außer,Die,Die,Als,Ich,Viele,Die,Sie,Viele,Die,Im,Die,Die,Die,Wir,Wir,Mit,Die,Die,Danach,In,Dass,Dort,In,Jetzt,Es,Am,Jugendliche,Sie,Der,Wir,Sie,Es,Mit,Es,Die,In,Manche,,,,,,,,,,,,,,,,,,,,,,,12,0,12,0,0,0,0,0,,,,,,space,space,1.71048092842,,,,1.39086389542,2017_Jan_31_1506,59.8515947853,spr_backupper,001,Mo14,
,hatte,Gäste,Lösung,verlassen,Scheel,Schuhe,stellt,Schule,unserer,der,haben,verbrauchen,einer,nehme,g,Stücke,konnten,Betten,den,"Uhr,",wurden,Fernrohr,Stücke,Blutdruck,Uhr,mussten,waren,übergaben,Eislaufbahnen,der,verbrauchen,sollten,stellt,dem,wurde,machte,Schuhe,g,äußeren,wurde,den,meinem,ein,wurde,machte,hatten,des,unserer,der,den,Stücke,Tuch,Uhr,ein,keinen,hatten,Teilnehmerinnen,türmen,das,hat,dem,Autos,Linie,die,nehme,Tonnen,Formen,verlassen,Tonnen,Schule,Fernrohr,Kinder,Autos,Gäste,mussten,haben,dieser,Kinder,Uhr,wurde,diesem,es,türmen,meinem,ist,hat,äußersten,können,hatte,Flug,übergaben,haben,waren,dieser,wurden,müden,der,Kreditnehmer,,,,,,,,,,,,,,,,,,,,,,,12,0,12,0,0,1,1,1,,,,,,,space,0.519888877869,,,,,2017_Jan_31_1506,59.8515947853,spr_backupper,001,Mo14,
,keine,suchen,wird,wegen,war,in,die,verbraucht,Ankunft,Feier,jede,60,Studie,eine,brauner,saftiges,dann,wurden,Bürgermeister,die,Eimer,sahen,saftigen,kann,war,uns,nur,das,wurden,Feier,60,immer,die,Essen,trotz,mal,in,braunen,Rand,damals,Kakao,Studium,Tropfen,trotz,mal,in,Rummels,Ankunft,Tat,Kakao,wurden,wurde,schlug,Tropfen,Umständen,in,wussten,sich,Essen,ein,Bürgermeister,beider,101,Sonne,eine,gebrauchter,wurden,wegen,gebrauchte,verbraucht,sahen,fuhren,beider,suchen,uns,jede,Methode,fuhren,schlug,die,Zirkus,"regnete,",sich,Studium,genau,uns,Rand,Kleidung,keine,zum,dem,die,nur,Methode,Eimer,Teilnehmer,Tat,sind,,,,,,,,,,,,,,,,,,,,,,,12,0,12,0,0,2,2,2,,,,,,,space,0.754786968231,,,,,2017_Jan_31_1506,59.8515947853,spr_backupper,001,Mo14,
,Lust,die,mit,dem,der,Größe,Masse,260.000,stand,gedachte,Menge,Liter,wurde,große,Zucker,Fleisch,mit,mit,beschuldigten,er,rote,wir,Fleischs,schon,aus,durch,kleinere,Auto,mit,gedachte,Liter,auf,Masse,kann,des,wieder,Größe,Zuckers,der,schnell,gehören,las,königliches,dem,wieder,Dänemark,wurde,stand,wissen,gehören,aus,dann,"sporadisch,",königlichen,können,Dänemark,überwiegend,Berge,kann,Hemd,beschuldigten,beteiligter,hält,"unterging,",große,Kleidung,unter,des,Kleidung,260.000,wir,mit,beteiligten,die,durch,Menge,kann,mit,"sporadisch,",Leinwand,werden,hat,Berge,habe,die,die,der,bei,Lust,Mond,Mann,Erlebnisse,kleinere,kann,roter,wurden,wissen,mit,,,,,,,,,,,,,,,,,,,,,,,12,0,12,0,0,3,3,3,,,,,,,space,1.42427110672,,,,,2017_Jan_31_1506,59.8515947853,spr_backupper,001,Mo14,
,auf,Wohnung,"reichlichem,",schönen,vierte,36,mit,Kilowattstunden,ein,man,alten,sprudelndes,jetzt,Packung,sind,wurden,"minimalem,","üblichem,",die,"trug,",Farbe,den,wurden,bei,"Japan,",Büschel,"Delikte,",dem,dauerhaftem,man,sprudelnden,warmem,mit,ich,bekannten,viel,36,sind,Stadt,dank,immer,ich,Blut,bekannten,viel,gelegentlich,schon,ein,wir,immer,"wertvollem,",mit,obwohl,Bluts,Neuwahlen,einen,"nicht,",schmutzige,ich,aus,die,Fahrer,nicht,war,Packung,landen,"regelmäßigem,",schönen,landen,Kilowattstunden,den,solchen,Fahrer,Wohnung,Büschel,alten,man,solch,obschon,aus,die,uns,schmutziger,ich,richtige,Stimmung,Stadt,ausreichendem,auf,dauerte,das,bei,"Delikte,",man,Farbe,mit,wir,"sämtlichem,",,,,,,,,,,,,,,,,,,,,,,,12,0,12,0,0,4,4,4,,,,,,,space,0.754641056061,,,,,2017_Jan_31_1506,59.8515947853,spr_backupper,001,Mo14,
,noch,des,purem,Wetter,Bundespräsident.,hätten,einem,elektrischer,Glas,den,Krams,Trinkwasser.,"nachgewiesen,",salziger,auf,serviert.,sauberen,harten,Störenfriede,war,geschleudert.,roten,serviert.,minimalem,die,frischen,derer,Mann,feinem,der,Trinkwassers.,weichem,einem,leider,Skandals,Lärm,würden,auf,liegen,täglichem,350,mehr,hat,Skandal,Lärm,einen,immer,Glas,von,350,klassischen,"reichem,",sie,hat,vor,gelegentlichen,was,Wäsche.,leider,feinem,Störenfriede,wurden,am,die,salzige,im,kaltem,Wetters,im,elektrische,roten,unzureichenden,wurden,des,frisches,Kram,eine,unzureichenden,sie,seltenem,Tiere,die,Wäsche.,mehr,"Zeit,",ziemlich,liegen,monatlichem,noch,ungefähr,Auto,"frischem,",deren,eine,geschleudert.,zusätzlichem,um,künftigem,,,,,,,,,,,,,,,,,,,,,,,12,0,12,0,0,5,5,5,,,,,,,space,1.02369499207,,,,,2017_Jan_31_1506,59.8515947853,spr_backupper,001,Mo14,
,,,,,,,,,,,,,,,,,,,,,,,,,,,,,,,,,,,,,,,,,,,,,,,,,,,,,,,,,,,,,,,,,,,,,,,,,,,,,,,,,,,,,,,,,,,,,,,,,,,,,,,,,,,,,,,,,,,,,,,,,12,0,12,0,,,,,,,,,,,,,None,n,2.78381180763,,2017_Jan_31_1506,59.8515947853,spr_backupper,001,Mo14,
,Sie,Die,Die,Sie,Walter,Die,Er,Die,Bei,Bei,Wir,Sie,In,Ich,100,Beträchtliche,Wir,Alle,Außer,Die,Es,Im,Beträchtliche,Ihr,Die,Wir,Es,Wir,Die,Bei,Sie,Jungtiere,Er,Außer,Er,Man,Die,100,Am,Ich,In,In,Nicht,Er,Man,Wir,Fernab,Bei,In,In,Die,Das,Die,Nicht,Unter,Wir,Die,Dort,Außer,Er,Außer,Die,Die,Als,Ich,Viele,Die,Sie,Viele,Die,Im,Die,Die,Die,Wir,Wir,Mit,Die,Die,Danach,In,Dass,Dort,In,Jetzt,Es,Am,Jugendliche,Sie,Der,Wir,Sie,Es,Mit,Es,Die,In,Manche,,,,,,,,,,,,,,,,,,,,,,,13,0,13,0,0,0,0,0,,,,,,None,space,0.476092100143,,,,,2017_Jan_31_1506,59.8515947853,spr_backupper,001,Mo14,
,hatte,Gäste,Lösung,verlassen,Scheel,Schuhe,stellt,Schule,unserer,der,haben,verbrauchen,einer,nehme,g,Stücke,konnten,Betten,den,"Uhr,",wurden,Fernrohr,Stücke,Blutdruck,Uhr,mussten,waren,übergaben,Eislaufbahnen,der,verbrauchen,sollten,stellt,dem,wurde,machte,Schuhe,g,äußeren,wurde,den,meinem,ein,wurde,machte,hatten,des,unserer,der,den,Stücke,Tuch,Uhr,ein,keinen,hatten,Teilnehmerinnen,türmen,das,hat,dem,Autos,Linie,die,nehme,Tonnen,Formen,verlassen,Tonnen,Schule,Fernrohr,Kinder,Autos,Gäste,mussten,haben,dieser,Kinder,Uhr,wurde,diesem,es,türmen,meinem,ist,hat,äußersten,können,hatte,Flug,übergaben,haben,waren,dieser,wurden,müden,der,Kreditnehmer,,,,,,,,,,,,,,,,,,,,,,,13,0,13,0,0,1,1,1,,,,,,,space,0.550159931183,,,,,2017_Jan_31_1506,59.8515947853,spr_backupper,001,Mo14,
,keine,suchen,wird,wegen,war,in,die,verbraucht,Ankunft,Feier,jede,60,Studie,eine,brauner,saftiges,dann,wurden,Bürgermeister,die,Eimer,sahen,saftigen,kann,war,uns,nur,das,wurden,Feier,60,immer,die,Essen,trotz,mal,in,braunen,Rand,damals,Kakao,Studium,Tropfen,trotz,mal,in,Rummels,Ankunft,Tat,Kakao,wurden,wurde,schlug,Tropfen,Umständen,in,wussten,sich,Essen,ein,Bürgermeister,beider,101,Sonne,eine,gebrauchter,wurden,wegen,gebrauchte,verbraucht,sahen,fuhren,beider,suchen,uns,jede,Methode,fuhren,schlug,die,Zirkus,"regnete,",sich,Studium,genau,uns,Rand,Kleidung,keine,zum,dem,die,nur,Methode,Eimer,Teilnehmer,Tat,sind,,,,,,,,,,,,,,,,,,,,,,,13,0,13,0,0,2,2,2,,,,,,,space,0.608329057693,,,,,2017_Jan_31_1506,59.8515947853,spr_backupper,001,Mo14,
,Lust,die,mit,dem,der,Größe,Masse,260.000,stand,gedachte,Menge,Liter,wurde,große,Zucker,Fleisch,mit,mit,beschuldigten,er,rote,wir,Fleischs,schon,aus,durch,kleinere,Auto,mit,gedachte,Liter,auf,Masse,kann,des,wieder,Größe,Zuckers,der,schnell,gehören,las,königliches,dem,wieder,Dänemark,wurde,stand,wissen,gehören,aus,dann,"sporadisch,",königlichen,können,Dänemark,überwiegend,Berge,kann,Hemd,beschuldigten,beteiligter,hält,"unterging,",große,Kleidung,unter,des,Kleidung,260.000,wir,mit,beteiligten,die,durch,Menge,kann,mit,"sporadisch,",Leinwand,werden,hat,Berge,habe,die,die,der,bei,Lust,Mond,Mann,Erlebnisse,kleinere,kann,roter,wurden,wissen,mit,,,,,,,,,,,,,,,,,,,,,,,13,0,13,0,0,3,3,3,,,,,,,space,1.0739710331,,,,,2017_Jan_31_1506,59.8515947853,spr_backupper,001,Mo14,
,auf,Wohnung,"reichlichem,",schönen,vierte,36,mit,Kilowattstunden,ein,man,alten,sprudelndes,jetzt,Packung,sind,wurden,"minimalem,","üblichem,",die,"trug,",Farbe,den,wurden,bei,"Japan,",Büschel,"Delikte,",dem,dauerhaftem,man,sprudelnden,warmem,mit,ich,bekannten,viel,36,sind,Stadt,dank,immer,ich,Blut,bekannten,viel,gelegentlich,schon,ein,wir,immer,"wertvollem,",mit,obwohl,Bluts,Neuwahlen,einen,"nicht,",schmutzige,ich,aus,die,Fahrer,nicht,war,Packung,landen,"regelmäßigem,",schönen,landen,Kilowattstunden,den,solchen,Fahrer,Wohnung,Büschel,alten,man,solch,obschon,aus,die,uns,schmutziger,ich,richtige,Stimmung,Stadt,ausreichendem,auf,dauerte,das,bei,"Delikte,",man,Farbe,mit,wir,"sämtlichem,",,,,,,,,,,,,,,,,,,,,,,,13,0,13,0,0,4,4,4,,,,,,,space,0.62064909935,,,,,2017_Jan_31_1506,59.8515947853,spr_backupper,001,Mo14,
,noch,des,purem,Wetter,Bundespräsident.,hätten,einem,elektrischer,Glas,den,Krams,Trinkwasser.,"nachgewiesen,",salziger,auf,serviert.,sauberen,harten,Störenfriede,war,geschleudert.,roten,serviert.,minimalem,die,frischen,derer,Mann,feinem,der,Trinkwassers.,weichem,einem,leider,Skandals,Lärm,würden,auf,liegen,täglichem,350,mehr,hat,Skandal,Lärm,einen,immer,Glas,von,350,klassischen,"reichem,",sie,hat,vor,gelegentlichen,was,Wäsche.,leider,feinem,Störenfriede,wurden,am,die,salzige,im,kaltem,Wetters,im,elektrische,roten,unzureichenden,wurden,des,frisches,Kram,eine,unzureichenden,sie,seltenem,Tiere,die,Wäsche.,mehr,"Zeit,",ziemlich,liegen,monatlichem,noch,ungefähr,Auto,"frischem,",deren,eine,geschleudert.,zusätzlichem,um,künftigem,,,,,,,,,,,,,,,,,,,,,,,13,0,13,0,0,5,5,5,,,,,,,space,0.530426979065,,,,,2017_Jan_31_1506,59.8515947853,spr_backupper,001,Mo14,
,eine,Herrn,Alkohol,die,nan,seiner,Esslöffel,Energie.,köstlicher,Soldaten,aus,nan,dass,Wurst,jeden,nan,Kraftstoff,Schaumstoff,jeden.,aus,nan,Planet,nan,täglichen,er,Grases,sie,mehr,Kunsteis,Soldaten,nan,Untergrund,Esslöffel,nichts,wiedergewählt.,um,seiner,jeden,die,grünen,ml,als,den,wiedergewählt.,um,Besucher.,ruhig,köstlichen,den,ml,Schmuck,goldenen,defekt,den,Dezember,Besucher.,Tupperware,nan,nichts,dichten,jeden.,verschrottet.,Hauptbahnhof.,Flut,Wurst,Müll.,Abduschen,die,Müll.,Energie.,Planeten,Helmen,verschrottet.,Herrn,Gras,aus,große,Helmen,defekt,dichten,artgerecht,Stimmung,nan,als,um,"vermiest,",die,Taschengeld,eine,drei,mehr,kaltem,sie,große,nan,schwarzem,die,Einkommen,,,,,,,,,,,,,,,,,,,,,,,13,0,13,0,0,6,6,6,,,,,,,space,4.05888199806,,,,,2017_Jan_31_1506,59.8515947853,spr_backupper,001,Mo14,
,,,,,,,,,,,,,,,,,,,,,,,,,,,,,,,,,,,,,,,,,,,,,,,,,,,,,,,,,,,,,,,,,,,,,,,,,,,,,,,,,,,,,,,,,,,,,,,,,,,,,,,,,,,,,,,,,,,,,,,,,13,0,13,0,,,,,,,,,,,,,None,j,6.20369791985,,2017_Jan_31_1506,59.8515947853,spr_backupper,001,Mo14,
,Sie,Die,Die,Sie,Walter,Die,Er,Die,Bei,Bei,Wir,Sie,In,Ich,100,Beträchtliche,Wir,Alle,Außer,Die,Es,Im,Beträchtliche,Ihr,Die,Wir,Es,Wir,Die,Bei,Sie,Jungtiere,Er,Außer,Er,Man,Die,100,Am,Ich,In,In,Nicht,Er,Man,Wir,Fernab,Bei,In,In,Die,Das,Die,Nicht,Unter,Wir,Die,Dort,Außer,Er,Außer,Die,Die,Als,Ich,Viele,Die,Sie,Viele,Die,Im,Die,Die,Die,Wir,Wir,Mit,Die,Die,Danach,In,Dass,Dort,In,Jetzt,Es,Am,Jugendliche,Sie,Der,Wir,Sie,Es,Mit,Es,Die,In,Manche,,,,,,,,,,,,,,,,,,,,,,,14,0,14,0,0,0,0,0,,,,,,None,space,0.894114971161,,,,,2017_Jan_31_1506,59.8515947853,spr_backupper,001,Mo14,
,hatte,Gäste,Lösung,verlassen,Scheel,Schuhe,stellt,Schule,unserer,der,haben,verbrauchen,einer,nehme,g,Stücke,konnten,Betten,den,"Uhr,",wurden,Fernrohr,Stücke,Blutdruck,Uhr,mussten,waren,übergaben,Eislaufbahnen,der,verbrauchen,sollten,stellt,dem,wurde,machte,Schuhe,g,äußeren,wurde,den,meinem,ein,wurde,machte,hatten,des,unserer,der,den,Stücke,Tuch,Uhr,ein,keinen,hatten,Teilnehmerinnen,türmen,das,hat,dem,Autos,Linie,die,nehme,Tonnen,Formen,verlassen,Tonnen,Schule,Fernrohr,Kinder,Autos,Gäste,mussten,haben,dieser,Kinder,Uhr,wurde,diesem,es,türmen,meinem,ist,hat,äußersten,können,hatte,Flug,übergaben,haben,waren,dieser,wurden,müden,der,Kreditnehmer,,,,,,,,,,,,,,,,,,,,,,,14,0,14,0,0,1,1,1,,,,,,,space,0.489678144455,,,,,2017_Jan_31_1506,59.8515947853,spr_backupper,001,Mo14,
,keine,suchen,wird,wegen,war,in,die,verbraucht,Ankunft,Feier,jede,60,Studie,eine,brauner,saftiges,dann,wurden,Bürgermeister,die,Eimer,sahen,saftigen,kann,war,uns,nur,das,wurden,Feier,60,immer,die,Essen,trotz,mal,in,braunen,Rand,damals,Kakao,Studium,Tropfen,trotz,mal,in,Rummels,Ankunft,Tat,Kakao,wurden,wurde,schlug,Tropfen,Umständen,in,wussten,sich,Essen,ein,Bürgermeister,beider,101,Sonne,eine,gebrauchter,wurden,wegen,gebrauchte,verbraucht,sahen,fuhren,beider,suchen,uns,jede,Methode,fuhren,schlug,die,Zirkus,"regnete,",sich,Studium,genau,uns,Rand,Kleidung,keine,zum,dem,die,nur,Methode,Eimer,Teilnehmer,Tat,sind,,,,,,,,,,,,,,,,,,,,,,,14,0,14,0,0,2,2,2,,,,,,,space,0.634170055389,,,,,2017_Jan_31_1506,59.8515947853,spr_backupper,001,Mo14,
,Lust,die,mit,dem,der,Größe,Masse,260.000,stand,gedachte,Menge,Liter,wurde,große,Zucker,Fleisch,mit,mit,beschuldigten,er,rote,wir,Fleischs,schon,aus,durch,kleinere,Auto,mit,gedachte,Liter,auf,Masse,kann,des,wieder,Größe,Zuckers,der,schnell,gehören,las,königliches,dem,wieder,Dänemark,wurde,stand,wissen,gehören,aus,dann,"sporadisch,",königlichen,können,Dänemark,überwiegend,Berge,kann,Hemd,beschuldigten,beteiligter,hält,"unterging,",große,Kleidung,unter,des,Kleidung,260.000,wir,mit,beteiligten,die,durch,Menge,kann,mit,"sporadisch,",Leinwand,werden,hat,Berge,habe,die,die,der,bei,Lust,Mond,Mann,Erlebnisse,kleinere,kann,roter,wurden,wissen,mit,,,,,,,,,,,,,,,,,,,,,,,14,0,14,0,0,3,3,3,,,,,,,space,0.57049703598,,,,,2017_Jan_31_1506,59.8515947853,spr_backupper,001,Mo14,
,auf,Wohnung,"reichlichem,",schönen,vierte,36,mit,Kilowattstunden,ein,man,alten,sprudelndes,jetzt,Packung,sind,wurden,"minimalem,","üblichem,",die,"trug,",Farbe,den,wurden,bei,"Japan,",Büschel,"Delikte,",dem,dauerhaftem,man,sprudelnden,warmem,mit,ich,bekannten,viel,36,sind,Stadt,dank,immer,ich,Blut,bekannten,viel,gelegentlich,schon,ein,wir,immer,"wertvollem,",mit,obwohl,Bluts,Neuwahlen,einen,"nicht,",schmutzige,ich,aus,die,Fahrer,nicht,war,Packung,landen,"regelmäßigem,",schönen,landen,Kilowattstunden,den,solchen,Fahrer,Wohnung,Büschel,alten,man,solch,obschon,aus,die,uns,schmutziger,ich,richtige,Stimmung,Stadt,ausreichendem,auf,dauerte,das,bei,"Delikte,",man,Farbe,mit,wir,"sämtlichem,",,,,,,,,,,,,,,,,,,,,,,,14,0,14,0,0,4,4,4,,,,,,,space,0.83761382103,,,,,2017_Jan_31_1506,59.8515947853,spr_backupper,001,Mo14,
