text,sent48,sent9,sent8,sent15,sent3,sent2,sent1,sent14,sent7,sent6,sent5,sent4,sent57,sent56,sent55,sent54,sent53,sent52,sent51,sent50,sent13,sent12,sent11,sent10,sent17,sent16,sent59,sent58,sent93,sent92,sent91,sent90,sent97,sent96,sent95,sent94,sent98,sent22,sent23,sent20,sent21,sent26,sent27,sent24,sent25,sent28,sent29,sent68,sent69,sent66,sent67,sent64,sent65,sent62,sent63,sent60,sent61,sent31,sent30,sent33,sent32,sent35,sent34,sent37,sent36,sent39,sent38,sent79,sent78,sent75,sent74,sent77,sent76,sent71,sent70,sent73,sent72,sent19,sent49,sent18,sent44,sent45,sent84,sent85,sent86,sent87,sent80,sent81,sent82,sent83,sent40,sent41,sent42,sent43,sent88,sent89,sent46,sent47,intros.thisRepN,intros.thisTrialN,intros.thisN,intros.thisIndex,trials.thisRepN,trials.thisTrialN,trials.thisN,trials.thisIndex,testWords.thisRepN,testWords.thisTrialN,testWords.thisN,testWords.thisIndex,test1,test3,test2,test5,test4,test7,test6,test9,test8,test10,realTrials.thisRepN,realTrials.thisTrialN,realTrials.thisN,realTrials.thisIndex,words.thisRepN,words.thisTrialN,words.thisN,words.thisIndex,key_resp_3.keys,key_resp_3.rt,key_resp_8.keys,key_resp_10.keys,key_resp_10.rt,key_resp_6.keys,wordRead.keys,wordRead.rt,key_resp_5.keys,questAnswer.keys,questAnswer.rt,key_resp_6.rt,date,frameRate,expName,session,participant,
"Vielen Dank, dass Sie an diesem Experiment teilnehmen. Vor dem eigentlichen Experiment sehen Sie nun zuerst eine kurze Erläuterung, und Sie absolvieren ein kurze Übungsphase.

Das Experiment dauert insgesamt nicht mehr als 45 Minuten.",,,,,,,,,,,,,,,,,,,,,,,,,,,,,,,,,,,,,,,,,,,,,,,,,,,,,,,,,,,,,,,,,,,,,,,,,,,,,,,,,,,,,,,,,,,,,,,,,,,0,0,0,0,,,,,,,,,,,,,,,,,,,,,,,,,,,,,,,,,,,,,,,2017_Jan_23_1602,61.1688321158,spr_backupper,001,Mo16,
"In diesem Experiment lesen Sie deutsche Sätze, indem Sie sich von Wort zu Wort mit der Leertaste durch den Satz klicken.",,,,,,,,,,,,,,,,,,,,,,,,,,,,,,,,,,,,,,,,,,,,,,,,,,,,,,,,,,,,,,,,,,,,,,,,,,,,,,,,,,,,,,,,,,,,,,,,,,,0,1,1,1,,,,,,,,,,,,,,,,,,,,,,,,,,,,,,,,,,,,,,,2017_Jan_23_1602,61.1688321158,spr_backupper,001,Mo16,
"Sie sehen dabei immer nur das aktuelle Wort. Die Lesegeschwindigkeit bestimmen Sie vollständig selber. Vor jedem Satz sehen Sie in der Bildschirmmitte für zwei Sekunden ein + an der Stelle, an der dann die Wörter erscheinen.",,,,,,,,,,,,,,,,,,,,,,,,,,,,,,,,,,,,,,,,,,,,,,,,,,,,,,,,,,,,,,,,,,,,,,,,,,,,,,,,,,,,,,,,,,,,,,,,,,,0,2,2,2,,,,,,,,,,,,,,,,,,,,,,,,,,,,,,,,,,,,,,,2017_Jan_23_1602,61.1688321158,spr_backupper,001,Mo16,
"Nach jedem Satz wird Ihnen eine Ja/Nein-Verständnisfrage zum zuvor gelesenen Satz gestellt, die Sie mit der J-Taste für "Ja" und der N-Taste für "Nein" beantworten. Antworten Sie möglichst spontan und ohne lange Nachzudenken.",,,,,,,,,,,,,,,,,,,,,,,,,,,,,,,,,,,,,,,,,,,,,,,,,,,,,,,,,,,,,,,,,,,,,,,,,,,,,,,,,,,,,,,,,,,,,,,,,,,0,3,3,3,,,,,,,,,,,,,,,,,,,,,,,,,,,,,,,,,,,,,,,2017_Jan_23_1602,61.1688321158,spr_backupper,001,Mo16,
"Unterbrechen Sie das Experiment bitte auf keinen Fall, stellen Sie den ExperimentatorInnen nach dem Experimentbeginn keine Fragen, und lassen Sie sich nicht durch Umgebungsgeräusche ablenken.",,,,,,,,,,,,,,,,,,,,,,,,,,,,,,,,,,,,,,,,,,,,,,,,,,,,,,,,,,,,,,,,,,,,,,,,,,,,,,,,,,,,,,,,,,,,,,,,,,,0,4,4,4,,,,,,,,,,,,,,,,,,,,,,,,,,,,,,,,,,,,,,,2017_Jan_23_1602,61.1688321158,spr_backupper,001,Mo16,
"Im nächsten Schritt beantworten Sie bitte eine Frage zu Ihren Deutschkenntnissen. Danach beginnt eine Übungseinheit, mit der Sie sich an die Art der Durchführung dieses Experiments gewöhnen können.",,,,,,,,,,,,,,,,,,,,,,,,,,,,,,,,,,,,,,,,,,,,,,,,,,,,,,,,,,,,,,,,,,,,,,,,,,,,,,,,,,,,,,,,,,,,,,,,,,,0,5,5,5,,,,,,,,,,,,,,,,,,,,,,,,,,,,,,,,,,,,,,,2017_Jan_23_1602,61.1688321158,spr_backupper,001,Mo16,
,,,,,,,,,,,,,,,,,,,,,,,,,,,,,,,,,,,,,,,,,,,,,,,,,,,,,,,,,,,,,,,,,,,,,,,,,,,,,,,,,,,,,,,,,,,,,,,,,,,,,,,,,,,,,,,,,,,,,,,,,,,,,,,,,j,7.98329401016,,,,,,,,,,,2017_Jan_23_1602,61.1688321158,spr_backupper,001,Mo16,
,,,,,,,,,,,,,,,,,,,,,,,,,,,,,,,,,,,,,,,,,,,,,,,,,,,,,,,,,,,,,,,,,,,,,,,,,,,,,,,,,,,,,,,,,,,,,,,,,,,,,,,0,0,0,0,,,,,,,,,,,,,,,,,,,,,,,,,None,,,,,,,,,,2017_Jan_23_1602,61.1688321158,spr_backupper,001,Mo16,
,,,,,,,,,,,,,,,,,,,,,,,,,,,,,,,,,,,,,,,,,,,,,,,,,,,,,,,,,,,,,,,,,,,,,,,,,,,,,,,,,,,,,,,,,,,,,,,,,,,,,,,1,0,1,0,,,,,,,,,,,,,,,,,,,,,,,,,None,,,,,,,,,,2017_Jan_23_1602,61.1688321158,spr_backupper,001,Mo16,
,,,,,,,,,,,,,,,,,,,,,,,,,,,,,,,,,,,,,,,,,,,,,,,,,,,,,,,,,,,,,,,,,,,,,,,,,,,,,,,,,,,,,,,,,,,,,,,,,,,,,,,2,0,2,0,,,,,,,,,,,,,,,,,,,,,,,,,None,,,,,,,,,,2017_Jan_23_1602,61.1688321158,spr_backupper,001,Mo16,
,,,,,,,,,,,,,,,,,,,,,,,,,,,,,,,,,,,,,,,,,,,,,,,,,,,,,,,,,,,,,,,,,,,,,,,,,,,,,,,,,,,,,,,,,,,,,,,,,,,,,,,3,0,3,0,,,,,,,,,,,,,,,,,,,,,,,,,None,,,,,,,,,,2017_Jan_23_1602,61.1688321158,spr_backupper,001,Mo16,
,,,,,,,,,,,,,,,,,,,,,,,,,,,,,,,,,,,,,,,,,,,,,,,,,,,,,,,,,,,,,,,,,,,,,,,,,,,,,,,,,,,,,,,,,,,,,,,,,,,,,,,4,0,4,0,,,,,,,,,,,,,,,,,,,,,,,,,None,,,,,,,,,,2017_Jan_23_1602,61.1688321158,spr_backupper,001,Mo16,
,,,,,,,,,,,,,,,,,,,,,,,,,,,,,,,,,,,,,,,,,,,,,,,,,,,,,,,,,,,,,,,,,,,,,,,,,,,,,,,,,,,,,,,,,,,,,,,,,,,,,,,5,0,5,0,,,,,,,,,,,,,,,,,,,,,,,,,None,,,,,,,,,,2017_Jan_23_1602,61.1688321158,spr_backupper,001,Mo16,
,,,,,,,,,,,,,,,,,,,,,,,,,,,,,,,,,,,,,,,,,,,,,,,,,,,,,,,,,,,,,,,,,,,,,,,,,,,,,,,,,,,,,,,,,,,,,,,,,,,,,,,6,0,6,0,,,,,,,,,,,,,,,,,,,,,,,,,None,,,,,,,,,,2017_Jan_23_1602,61.1688321158,spr_backupper,001,Mo16,
,,,,,,,,,,,,,,,,,,,,,,,,,,,,,,,,,,,,,,,,,,,,,,,,,,,,,,,,,,,,,,,,,,,,,,,,,,,,,,,,,,,,,,,,,,,,,,,,,,,,,,,7,0,7,0,,,,,,,,,,,,,,,,,,,,,,,,,None,,,,,,,,,,2017_Jan_23_1602,61.1688321158,spr_backupper,001,Mo16,
,,,,,,,,,,,,,,,,,,,,,,,,,,,,,,,,,,,,,,,,,,,,,,,,,,,,,,,,,,,,,,,,,,,,,,,,,,,,,,,,,,,,,,,,,,,,,,,,,,,,,,,8,0,8,0,,,,,,,,,,,,,,,,,,,,,,,,,None,,,,,,,,,,2017_Jan_23_1602,61.1688321158,spr_backupper,001,Mo16,
,,,,,,,,,,,,,,,,,,,,,,,,,,,,,,,,,,,,,,,,,,,,,,,,,,,,,,,,,,,,,,,,,,,,,,,,,,,,,,,,,,,,,,,,,,,,,,,,,,,,,,,9,0,9,0,,,,,,,,,,,,,,,,,,,,,,,,,None,,,,,,,,,,2017_Jan_23_1602,61.1688321158,spr_backupper,001,Mo16,
,,,,,,,,,,,,,,,,,,,,,,,,,,,,,,,,,,,,,,,,,,,,,,,,,,,,,,,,,,,,,,,,,,,,,,,,,,,,,,,,,,,,,,,,,,,,,,,,,,,,,,,,,,,,,,,,,,,,,,,,,,,,,,,,,,,,space,2.70041203499,,,,,,,,2017_Jan_23_1602,61.1688321158,spr_backupper,001,Mo16,
,Viele,Am,Er,Walter,Es,Im,Danach,In,Fernab,Als,Außer,Die,Wir,In,Er,Wir,Die,Es,Ich,Im,100,Ihr,Nicht,Mit,Die,Man,Viele,Wir,Sie,Alle,Sie,Mit,Er,Die,100,Die,Die,In,Es,Dass,Außer,Manche,Wir,Die,Die,Ich,Sie,Man,Außer,Jungtiere,Am,Nicht,Jugendliche,In,Es,Außer,Die,Ich,Sie,Wir,Wir,Die,Er,Die,Die,Beträchtliche,Sie,Das,Die,Es,Wir,Die,Beträchtliche,Die,Dort,Bei,In,In,Bei,Die,Sie,Dort,Die,Der,Jetzt,Die,Wir,Bei,In,Sie,Die,Wir,In,Er,Unter,Die,Die,Bei,,,,,,,,,,,,,,,,,,,,,,,0,0,0,0,0,0,0,0,,,,,,None,space,0.470587015152,,,,,2017_Jan_23_1602,61.1688321158,spr_backupper,001,Mo16,
,Tonnen,äußeren,hat,Scheel,waren,Fernrohr,wurde,den,des,die,das,Schuhe,konnten,der,wurde,übergaben,Stücke,wurden,nehme,Fernrohr,g,Blutdruck,ein,dieser,Uhr,machte,Tonnen,hatten,hatte,Betten,verlassen,dieser,stellt,Schule,g,"Uhr,",Teilnehmerinnen,der,wurden,es,dem,Kreditnehmer,haben,Lösung,Kinder,wurde,verlassen,machte,dem,sollten,äußersten,ein,können,einer,waren,den,Gäste,nehme,verbrauchen,mussten,hatten,Gäste,wurde,Autos,Linie,Stücke,hatte,Tuch,Eislaufbahnen,hat,haben,müden,Stücke,Schuhe,türmen,unserer,meinem,diesem,unserer,Uhr,haben,türmen,Uhr,Flug,ist,Kinder,mussten,der,den,verbrauchen,Schule,übergaben,meinem,stellt,keinen,Autos,Formen,der,,,,,,,,,,,,,,,,,,,,,,,0,0,0,0,0,1,1,1,,,,,,,space,0.399536848068,,,,,2017_Jan_23_1602,61.1688321158,spr_backupper,001,Mo16,
,gebrauchter,Rand,ein,war,nur,sahen,die,Kakao,Rummels,Sonne,Essen,in,dann,Tat,trotz,das,wurden,Eimer,eine,sahen,braunen,kann,Tropfen,Methode,war,mal,gebrauchte,in,keine,wurden,wegen,Methode,die,verbraucht,brauner,die,wussten,Tat,Eimer,"regnete,",Bürgermeister,sind,jede,wird,fuhren,damals,wegen,mal,Essen,immer,Rand,Tropfen,Kleidung,Studie,nur,Bürgermeister,suchen,eine,60,uns,in,suchen,trotz,beider,101,saftigen,keine,wurde,wurden,uns,jede,Teilnehmer,saftiges,in,sich,Ankunft,Studium,Zirkus,Ankunft,schlug,die,sich,schlug,zum,genau,fuhren,uns,Feier,Kakao,60,verbraucht,dem,Studium,die,Umständen,beider,wurden,Feier,,,,,,,,,,,,,,,,,,,,,,,0,0,0,0,0,2,2,2,,,,,,,space,0.378638029099,,,,,2017_Jan_23_1602,61.1688321158,spr_backupper,001,Mo16,
,Kleidung,der,Hemd,der,kleinere,wir,Leinwand,gehören,wurde,"unterging,",kann,Größe,mit,wissen,des,Auto,aus,roter,große,wir,Zuckers,schon,königliches,kann,aus,wieder,Kleidung,Dänemark,Lust,mit,des,kann,Masse,260.000,Zucker,er,überwiegend,wissen,rote,hat,beschuldigten,mit,Menge,mit,mit,schnell,dem,wieder,kann,auf,der,königlichen,bei,wurde,kleinere,beschuldigten,die,große,Liter,durch,Dänemark,die,dem,beteiligter,hält,Fleischs,Lust,dann,mit,die,Menge,wurden,Fleisch,Größe,Berge,stand,habe,werden,stand,"sporadisch,",Erlebnisse,Berge,"sporadisch,",Mond,die,mit,durch,gedachte,gehören,Liter,260.000,Mann,las,Masse,können,beteiligten,unter,gedachte,,,,,,,,,,,,,,,,,,,,,,,0,0,0,0,0,3,3,3,,,,,,,space,0.562300920486,,,,,2017_Jan_23_1602,61.1688321158,spr_backupper,001,Mo16,
,landen,Stadt,aus,vierte,"Delikte,",den,aus,immer,schon,war,ich,36,"minimalem,",wir,bekannten,dem,"wertvollem,",Farbe,Packung,den,sind,bei,Blut,man,"Japan,",viel,landen,einen,auf,"üblichem,",schönen,man,mit,Kilowattstunden,sind,"trug,","nicht,",wir,Farbe,uns,die,"sämtlichem,",alten,"reichlichem,",solch,dank,schönen,viel,ich,warmem,Stadt,Bluts,ausreichendem,jetzt,"Delikte,",die,Wohnung,Packung,sprudelndes,Büschel,gelegentlich,Wohnung,bekannten,Fahrer,nicht,wurden,auf,mit,dauerhaftem,Stimmung,alten,mit,wurden,36,schmutziger,ein,ich,die,ein,obschon,bei,schmutzige,obwohl,dauerte,richtige,solchen,Büschel,man,immer,sprudelnden,Kilowattstunden,das,ich,mit,Neuwahlen,Fahrer,"regelmäßigem,",man,,,,,,,,,,,,,,,,,,,,,,,0,0,0,0,0,4,4,4,,,,,,,space,0.452899932861,,,,,2017_Jan_23_1602,61.1688321158,spr_backupper,001,Mo16,
,im,liegen,feinem,Bundespräsident.,deren,roten,seltenem,350,immer,die,leider,hätten,sauberen,von,Skandals,Mann,klassischen,geschleudert.,salziger,roten,auf,minimalem,hat,eine,die,Lärm,im,gelegentlichen,noch,harten,Wetters,eine,einem,elektrische,auf,war,was,um,geschleudert.,die,Störenfriede,künftigem,Krams,purem,unzureichenden,täglichem,Wetter,Lärm,leider,weichem,liegen,hat,monatlichem,"nachgewiesen,",derer,Störenfriede,des,salzige,Trinkwasser.,frischen,einen,des,Skandal,wurden,am,serviert.,noch,"reichem,",feinem,ziemlich,Kram,zusätzlichem,serviert.,würden,Wäsche.,Glas,mehr,Tiere,Glas,sie,"frischem,",Wäsche.,sie,ungefähr,"Zeit,",unzureichenden,frisches,der,350,Trinkwassers.,elektrischer,Auto,mehr,einem,vor,wurden,kaltem,den,,,,,,,,,,,,,,,,,,,,,,,0,0,0,0,0,5,5,5,,,,,,,space,0.436265945435,,,,,2017_Jan_23_1602,61.1688321158,spr_backupper,001,Mo16,
,Müll.,die,dichten,nan,sie,Planet,dichten,ml,ruhig,Flut,nichts,seiner,Kraftstoff,den,wiedergewählt.,mehr,Schmuck,nan,Wurst,Planeten,jeden,täglichen,den,große,er,um,Müll.,Besucher.,eine,Schaumstoff,die,große,Esslöffel,Energie.,jeden,aus,Tupperware,die,nan,Stimmung,jeden.,Einkommen,aus,Alkohol,Helmen,grünen,die,um,nichts,Untergrund,die,den,Taschengeld,dass,sie,jeden.,Herrn,Wurst,nan,Grases,Besucher.,Herrn,wiedergewählt.,verschrottet.,Hauptbahnhof.,nan,eine,goldenen,Kunsteis,"vermiest,",aus,schwarzem,nan,seiner,nan,köstlichen,als,artgerecht,köstlicher,defekt,kaltem,nan,defekt,drei,um,Helmen,Gras,Soldaten,ml,nan,Energie.,mehr,als,Esslöffel,Dezember,verschrottet.,Abduschen,Soldaten,,,,,,,,,,,,,,,,,,,,,,,0,0,0,0,0,6,6,6,,,,,,,space,0.721915006638,,,,,2017_Jan_23_1602,61.1688321158,spr_backupper,001,Mo16,
,nan,Slums.,Stoff,nan,überführt,ganz,Gewebe,warmer,diskutiert.,zurückgekehrt.,mitbringen.,Frau,fahren.,Problemen,nan,als,umgearbeitet.,nan,mit,ganz,Fall,Einsatz,Boden,Menge,trug.,jede,nan,nan,Sammlung,gefertigt.,Wohnung.,Menge,warmen,nan,Fall,Japan.,ist.,Probleme,nan,ziemlich,nan,haftbar.,dem,verdünnt.,zur,Tee,Wohnung.,jede,mitbringen.,liegen.,Slums.,Boden,selber,das,überführt,nan,Gantenbeins.,mit,nan,zwängen.,nan,Gantenbein.,nan,nan,nan,nan,Sammlung,Besatz,eingesprüht.,dass,dem,Kaffee,nan,Frau,nan,Weins,einmal,gehalten.,Wein,war.,Saft,nan,war.,Tage.,Nadelhölzer,zur,zwängen.,des,warme,nan,nan,als,einmal,warmem,stattfinden.,nan,gehärtet.,des,,,,,,,,,,,,,,,,,,,,,,,0,0,0,0,0,7,7,7,,,,,,,space,0.509222984314,,,,,2017_Jan_23_1602,61.1688321158,spr_backupper,001,Mo16,
,nan,nan,gefertigt.,nan,wurden.,deutlich.,wiederhergestellt.,Milch.,nan,nan,nan,gepasst.,nan,im,nan,gerne.,nan,nan,an,deutlich.,genug.,sinken.,berührt.,dunkler,nan,Menge,nan,nan,dumme,nan,nan,dunkle,Honigs,nan,genug.,nan,nan,im,nan,vermiest.,nan,nan,Haus,nan,Schule.,wieder,nan,Menge,nan,nan,nan,berührt.,kaufen.,Medikament,wurden.,nan,nan,an,nan,nan,nan,nan,nan,nan,nan,nan,dummer,rekonstruiert.,nan,es,Haus,wiederbelebt.,nan,gepasst,nan,schon,Rilke,nan,schon,nan,besprochen.,nan,nan,nan,umzusetzen.,Schule.,nan,zweiten,Milch.,nan,nan,gerne.,Rilke.,Honig,nan,nan,nan,zweiten,,,,,,,,,,,,,,,,,,,,,,,0,0,0,0,0,8,8,8,,,,,,,space,0.537758111954,,,,,2017_Jan_23_1602,61.1688321158,spr_backupper,001,Mo16,
,,,,,,,,,,,,,,,,,,,,,,,,,,,,,,,,,,,,,,,,,,,,,,,,,,,,,,,,,,,,,,,,,,,,,,,,,,,,,,,,,,,,,,,,,,,,,,,,,,,,,,,,,,,,,,,,,,,,,,,,,0,0,0,0,,,,,,,,,,,,,None,n,2.10060381889,,2017_Jan_23_1602,61.1688321158,spr_backupper,001,Mo16,
,Viele,Am,Er,Walter,Es,Im,Danach,In,Fernab,Als,Außer,Die,Wir,In,Er,Wir,Die,Es,Ich,Im,100,Ihr,Nicht,Mit,Die,Man,Viele,Wir,Sie,Alle,Sie,Mit,Er,Die,100,Die,Die,In,Es,Dass,Außer,Manche,Wir,Die,Die,Ich,Sie,Man,Außer,Jungtiere,Am,Nicht,Jugendliche,In,Es,Außer,Die,Ich,Sie,Wir,Wir,Die,Er,Die,Die,Beträchtliche,Sie,Das,Die,Es,Wir,Die,Beträchtliche,Die,Dort,Bei,In,In,Bei,Die,Sie,Dort,Die,Der,Jetzt,Die,Wir,Bei,In,Sie,Die,Wir,In,Er,Unter,Die,Die,Bei,,,,,,,,,,,,,,,,,,,,,,,1,0,1,0,0,0,0,0,,,,,,space,space,0.444356918335,,,,0.98976111412,2017_Jan_23_1602,61.1688321158,spr_backupper,001,Mo16,
,Tonnen,äußeren,hat,Scheel,waren,Fernrohr,wurde,den,des,die,das,Schuhe,konnten,der,wurde,übergaben,Stücke,wurden,nehme,Fernrohr,g,Blutdruck,ein,dieser,Uhr,machte,Tonnen,hatten,hatte,Betten,verlassen,dieser,stellt,Schule,g,"Uhr,",Teilnehmerinnen,der,wurden,es,dem,Kreditnehmer,haben,Lösung,Kinder,wurde,verlassen,machte,dem,sollten,äußersten,ein,können,einer,waren,den,Gäste,nehme,verbrauchen,mussten,hatten,Gäste,wurde,Autos,Linie,Stücke,hatte,Tuch,Eislaufbahnen,hat,haben,müden,Stücke,Schuhe,türmen,unserer,meinem,diesem,unserer,Uhr,haben,türmen,Uhr,Flug,ist,Kinder,mussten,der,den,verbrauchen,Schule,übergaben,meinem,stellt,keinen,Autos,Formen,der,,,,,,,,,,,,,,,,,,,,,,,1,0,1,0,0,1,1,1,,,,,,,space,0.34029006958,,,,,2017_Jan_23_1602,61.1688321158,spr_backupper,001,Mo16,
,gebrauchter,Rand,ein,war,nur,sahen,die,Kakao,Rummels,Sonne,Essen,in,dann,Tat,trotz,das,wurden,Eimer,eine,sahen,braunen,kann,Tropfen,Methode,war,mal,gebrauchte,in,keine,wurden,wegen,Methode,die,verbraucht,brauner,die,wussten,Tat,Eimer,"regnete,",Bürgermeister,sind,jede,wird,fuhren,damals,wegen,mal,Essen,immer,Rand,Tropfen,Kleidung,Studie,nur,Bürgermeister,suchen,eine,60,uns,in,suchen,trotz,beider,101,saftigen,keine,wurde,wurden,uns,jede,Teilnehmer,saftiges,in,sich,Ankunft,Studium,Zirkus,Ankunft,schlug,die,sich,schlug,zum,genau,fuhren,uns,Feier,Kakao,60,verbraucht,dem,Studium,die,Umständen,beider,wurden,Feier,,,,,,,,,,,,,,,,,,,,,,,1,0,1,0,0,2,2,2,,,,,,,space,0.341606855392,,,,,2017_Jan_23_1602,61.1688321158,spr_backupper,001,Mo16,
,Kleidung,der,Hemd,der,kleinere,wir,Leinwand,gehören,wurde,"unterging,",kann,Größe,mit,wissen,des,Auto,aus,roter,große,wir,Zuckers,schon,königliches,kann,aus,wieder,Kleidung,Dänemark,Lust,mit,des,kann,Masse,260.000,Zucker,er,überwiegend,wissen,rote,hat,beschuldigten,mit,Menge,mit,mit,schnell,dem,wieder,kann,auf,der,königlichen,bei,wurde,kleinere,beschuldigten,die,große,Liter,durch,Dänemark,die,dem,beteiligter,hält,Fleischs,Lust,dann,mit,die,Menge,wurden,Fleisch,Größe,Berge,stand,habe,werden,stand,"sporadisch,",Erlebnisse,Berge,"sporadisch,",Mond,die,mit,durch,gedachte,gehören,Liter,260.000,Mann,las,Masse,können,beteiligten,unter,gedachte,,,,,,,,,,,,,,,,,,,,,,,1,0,1,0,0,3,3,3,,,,,,,space,0.380718946457,,,,,2017_Jan_23_1602,61.1688321158,spr_backupper,001,Mo16,
,landen,Stadt,aus,vierte,"Delikte,",den,aus,immer,schon,war,ich,36,"minimalem,",wir,bekannten,dem,"wertvollem,",Farbe,Packung,den,sind,bei,Blut,man,"Japan,",viel,landen,einen,auf,"üblichem,",schönen,man,mit,Kilowattstunden,sind,"trug,","nicht,",wir,Farbe,uns,die,"sämtlichem,",alten,"reichlichem,",solch,dank,schönen,viel,ich,warmem,Stadt,Bluts,ausreichendem,jetzt,"Delikte,",die,Wohnung,Packung,sprudelndes,Büschel,gelegentlich,Wohnung,bekannten,Fahrer,nicht,wurden,auf,mit,dauerhaftem,Stimmung,alten,mit,wurden,36,schmutziger,ein,ich,die,ein,obschon,bei,schmutzige,obwohl,dauerte,richtige,solchen,Büschel,man,immer,sprudelnden,Kilowattstunden,das,ich,mit,Neuwahlen,Fahrer,"regelmäßigem,",man,,,,,,,,,,,,,,,,,,,,,,,1,0,1,0,0,4,4,4,,,,,,,space,0.369849920273,,,,,2017_Jan_23_1602,61.1688321158,spr_backupper,001,Mo16,
,im,liegen,feinem,Bundespräsident.,deren,roten,seltenem,350,immer,die,leider,hätten,sauberen,von,Skandals,Mann,klassischen,geschleudert.,salziger,roten,auf,minimalem,hat,eine,die,Lärm,im,gelegentlichen,noch,harten,Wetters,eine,einem,elektrische,auf,war,was,um,geschleudert.,die,Störenfriede,künftigem,Krams,purem,unzureichenden,täglichem,Wetter,Lärm,leider,weichem,liegen,hat,monatlichem,"nachgewiesen,",derer,Störenfriede,des,salzige,Trinkwasser.,frischen,einen,des,Skandal,wurden,am,serviert.,noch,"reichem,",feinem,ziemlich,Kram,zusätzlichem,serviert.,würden,Wäsche.,Glas,mehr,Tiere,Glas,sie,"frischem,",Wäsche.,sie,ungefähr,"Zeit,",unzureichenden,frisches,der,350,Trinkwassers.,elektrischer,Auto,mehr,einem,vor,wurden,kaltem,den,,,,,,,,,,,,,,,,,,,,,,,1,0,1,0,0,5,5,5,,,,,,,space,0.341824054718,,,,,2017_Jan_23_1602,61.1688321158,spr_backupper,001,Mo16,
,Müll.,die,dichten,nan,sie,Planet,dichten,ml,ruhig,Flut,nichts,seiner,Kraftstoff,den,wiedergewählt.,mehr,Schmuck,nan,Wurst,Planeten,jeden,täglichen,den,große,er,um,Müll.,Besucher.,eine,Schaumstoff,die,große,Esslöffel,Energie.,jeden,aus,Tupperware,die,nan,Stimmung,jeden.,Einkommen,aus,Alkohol,Helmen,grünen,die,um,nichts,Untergrund,die,den,Taschengeld,dass,sie,jeden.,Herrn,Wurst,nan,Grases,Besucher.,Herrn,wiedergewählt.,verschrottet.,Hauptbahnhof.,nan,eine,goldenen,Kunsteis,"vermiest,",aus,schwarzem,nan,seiner,nan,köstlichen,als,artgerecht,köstlicher,defekt,kaltem,nan,defekt,drei,um,Helmen,Gras,Soldaten,ml,nan,Energie.,mehr,als,Esslöffel,Dezember,verschrottet.,Abduschen,Soldaten,,,,,,,,,,,,,,,,,,,,,,,1,0,1,0,0,6,6,6,,,,,,,space,0.35804605484,,,,,2017_Jan_23_1602,61.1688321158,spr_backupper,001,Mo16,
,nan,Slums.,Stoff,nan,überführt,ganz,Gewebe,warmer,diskutiert.,zurückgekehrt.,mitbringen.,Frau,fahren.,Problemen,nan,als,umgearbeitet.,nan,mit,ganz,Fall,Einsatz,Boden,Menge,trug.,jede,nan,nan,Sammlung,gefertigt.,Wohnung.,Menge,warmen,nan,Fall,Japan.,ist.,Probleme,nan,ziemlich,nan,haftbar.,dem,verdünnt.,zur,Tee,Wohnung.,jede,mitbringen.,liegen.,Slums.,Boden,selber,das,überführt,nan,Gantenbeins.,mit,nan,zwängen.,nan,Gantenbein.,nan,nan,nan,nan,Sammlung,Besatz,eingesprüht.,dass,dem,Kaffee,nan,Frau,nan,Weins,einmal,gehalten.,Wein,war.,Saft,nan,war.,Tage.,Nadelhölzer,zur,zwängen.,des,warme,nan,nan,als,einmal,warmem,stattfinden.,nan,gehärtet.,des,,,,,,,,,,,,,,,,,,,,,,,1,0,1,0,0,7,7,7,,,,,,,space,0.41756105423,,,,,2017_Jan_23_1602,61.1688321158,spr_backupper,001,Mo16,
,nan,nan,gefertigt.,nan,wurden.,deutlich.,wiederhergestellt.,Milch.,nan,nan,nan,gepasst.,nan,im,nan,gerne.,nan,nan,an,deutlich.,genug.,sinken.,berührt.,dunkler,nan,Menge,nan,nan,dumme,nan,nan,dunkle,Honigs,nan,genug.,nan,nan,im,nan,vermiest.,nan,nan,Haus,nan,Schule.,wieder,nan,Menge,nan,nan,nan,berührt.,kaufen.,Medikament,wurden.,nan,nan,an,nan,nan,nan,nan,nan,nan,nan,nan,dummer,rekonstruiert.,nan,es,Haus,wiederbelebt.,nan,gepasst,nan,schon,Rilke,nan,schon,nan,besprochen.,nan,nan,nan,umzusetzen.,Schule.,nan,zweiten,Milch.,nan,nan,gerne.,Rilke.,Honig,nan,nan,nan,zweiten,,,,,,,,,,,,,,,,,,,,,,,1,0,1,0,0,8,8,8,,,,,,,space,0.367947101593,,,,,2017_Jan_23_1602,61.1688321158,spr_backupper,001,Mo16,
,,,,,,,,,,,,,,,,,,,,,,,,,,,,,,,,,,,,,,,,,,,,,,,,,,,,,,,,,,,,,,,,,,,,,,,,,,,,,,,,,,,,,,,,,,,,,,,,,,,,,,,,,,,,,,,,,,,,,,,,,1,0,1,0,,,,,,,,,,,,,None,n,1.92562007904,,2017_Jan_23_1602,61.1688321158,spr_backupper,001,Mo16,
,Viele,Am,Er,Walter,Es,Im,Danach,In,Fernab,Als,Außer,Die,Wir,In,Er,Wir,Die,Es,Ich,Im,100,Ihr,Nicht,Mit,Die,Man,Viele,Wir,Sie,Alle,Sie,Mit,Er,Die,100,Die,Die,In,Es,Dass,Außer,Manche,Wir,Die,Die,Ich,Sie,Man,Außer,Jungtiere,Am,Nicht,Jugendliche,In,Es,Außer,Die,Ich,Sie,Wir,Wir,Die,Er,Die,Die,Beträchtliche,Sie,Das,Die,Es,Wir,Die,Beträchtliche,Die,Dort,Bei,In,In,Bei,Die,Sie,Dort,Die,Der,Jetzt,Die,Wir,Bei,In,Sie,Die,Wir,In,Er,Unter,Die,Die,Bei,,,,,,,,,,,,,,,,,,,,,,,2,0,2,0,0,0,0,0,,,,,,None,space,0.34349822998,,,,,2017_Jan_23_1602,61.1688321158,spr_backupper,001,Mo16,
,Tonnen,äußeren,hat,Scheel,waren,Fernrohr,wurde,den,des,die,das,Schuhe,konnten,der,wurde,übergaben,Stücke,wurden,nehme,Fernrohr,g,Blutdruck,ein,dieser,Uhr,machte,Tonnen,hatten,hatte,Betten,verlassen,dieser,stellt,Schule,g,"Uhr,",Teilnehmerinnen,der,wurden,es,dem,Kreditnehmer,haben,Lösung,Kinder,wurde,verlassen,machte,dem,sollten,äußersten,ein,können,einer,waren,den,Gäste,nehme,verbrauchen,mussten,hatten,Gäste,wurde,Autos,Linie,Stücke,hatte,Tuch,Eislaufbahnen,hat,haben,müden,Stücke,Schuhe,türmen,unserer,meinem,diesem,unserer,Uhr,haben,türmen,Uhr,Flug,ist,Kinder,mussten,der,den,verbrauchen,Schule,übergaben,meinem,stellt,keinen,Autos,Formen,der,,,,,,,,,,,,,,,,,,,,,,,2,0,2,0,0,1,1,1,,,,,,,space,0.353283882141,,,,,2017_Jan_23_1602,61.1688321158,spr_backupper,001,Mo16,
,gebrauchter,Rand,ein,war,nur,sahen,die,Kakao,Rummels,Sonne,Essen,in,dann,Tat,trotz,das,wurden,Eimer,eine,sahen,braunen,kann,Tropfen,Methode,war,mal,gebrauchte,in,keine,wurden,wegen,Methode,die,verbraucht,brauner,die,wussten,Tat,Eimer,"regnete,",Bürgermeister,sind,jede,wird,fuhren,damals,wegen,mal,Essen,immer,Rand,Tropfen,Kleidung,Studie,nur,Bürgermeister,suchen,eine,60,uns,in,suchen,trotz,beider,101,saftigen,keine,wurde,wurden,uns,jede,Teilnehmer,saftiges,in,sich,Ankunft,Studium,Zirkus,Ankunft,schlug,die,sich,schlug,zum,genau,fuhren,uns,Feier,Kakao,60,verbraucht,dem,Studium,die,Umständen,beider,wurden,Feier,,,,,,,,,,,,,,,,,,,,,,,2,0,2,0,0,2,2,2,,,,,,,space,0.348706007004,,,,,2017_Jan_23_1602,61.1688321158,spr_backupper,001,Mo16,
,Kleidung,der,Hemd,der,kleinere,wir,Leinwand,gehören,wurde,"unterging,",kann,Größe,mit,wissen,des,Auto,aus,roter,große,wir,Zuckers,schon,königliches,kann,aus,wieder,Kleidung,Dänemark,Lust,mit,des,kann,Masse,260.000,Zucker,er,überwiegend,wissen,rote,hat,beschuldigten,mit,Menge,mit,mit,schnell,dem,wieder,kann,auf,der,königlichen,bei,wurde,kleinere,beschuldigten,die,große,Liter,durch,Dänemark,die,dem,beteiligter,hält,Fleischs,Lust,dann,mit,die,Menge,wurden,Fleisch,Größe,Berge,stand,habe,werden,stand,"sporadisch,",Erlebnisse,Berge,"sporadisch,",Mond,die,mit,durch,gedachte,gehören,Liter,260.000,Mann,las,Masse,können,beteiligten,unter,gedachte,,,,,,,,,,,,,,,,,,,,,,,2,0,2,0,0,3,3,3,,,,,,,space,0.776376008987,,,,,2017_Jan_23_1602,61.1688321158,spr_backupper,001,Mo16,
,landen,Stadt,aus,vierte,"Delikte,",den,aus,immer,schon,war,ich,36,"minimalem,",wir,bekannten,dem,"wertvollem,",Farbe,Packung,den,sind,bei,Blut,man,"Japan,",viel,landen,einen,auf,"üblichem,",schönen,man,mit,Kilowattstunden,sind,"trug,","nicht,",wir,Farbe,uns,die,"sämtlichem,",alten,"reichlichem,",solch,dank,schönen,viel,ich,warmem,Stadt,Bluts,ausreichendem,jetzt,"Delikte,",die,Wohnung,Packung,sprudelndes,Büschel,gelegentlich,Wohnung,bekannten,Fahrer,nicht,wurden,auf,mit,dauerhaftem,Stimmung,alten,mit,wurden,36,schmutziger,ein,ich,die,ein,obschon,bei,schmutzige,obwohl,dauerte,richtige,solchen,Büschel,man,immer,sprudelnden,Kilowattstunden,das,ich,mit,Neuwahlen,Fahrer,"regelmäßigem,",man,,,,,,,,,,,,,,,,,,,,,,,2,0,2,0,0,4,4,4,,,,,,,space,0.44123005867,,,,,2017_Jan_23_1602,61.1688321158,spr_backupper,001,Mo16,
,im,liegen,feinem,Bundespräsident.,deren,roten,seltenem,350,immer,die,leider,hätten,sauberen,von,Skandals,Mann,klassischen,geschleudert.,salziger,roten,auf,minimalem,hat,eine,die,Lärm,im,gelegentlichen,noch,harten,Wetters,eine,einem,elektrische,auf,war,was,um,geschleudert.,die,Störenfriede,künftigem,Krams,purem,unzureichenden,täglichem,Wetter,Lärm,leider,weichem,liegen,hat,monatlichem,"nachgewiesen,",derer,Störenfriede,des,salzige,Trinkwasser.,frischen,einen,des,Skandal,wurden,am,serviert.,noch,"reichem,",feinem,ziemlich,Kram,zusätzlichem,serviert.,würden,Wäsche.,Glas,mehr,Tiere,Glas,sie,"frischem,",Wäsche.,sie,ungefähr,"Zeit,",unzureichenden,frisches,der,350,Trinkwassers.,elektrischer,Auto,mehr,einem,vor,wurden,kaltem,den,,,,,,,,,,,,,,,,,,,,,,,2,0,2,0,0,5,5,5,,,,,,,space,0.452843904495,,,,,2017_Jan_23_1602,61.1688321158,spr_backupper,001,Mo16,
,Müll.,die,dichten,nan,sie,Planet,dichten,ml,ruhig,Flut,nichts,seiner,Kraftstoff,den,wiedergewählt.,mehr,Schmuck,nan,Wurst,Planeten,jeden,täglichen,den,große,er,um,Müll.,Besucher.,eine,Schaumstoff,die,große,Esslöffel,Energie.,jeden,aus,Tupperware,die,nan,Stimmung,jeden.,Einkommen,aus,Alkohol,Helmen,grünen,die,um,nichts,Untergrund,die,den,Taschengeld,dass,sie,jeden.,Herrn,Wurst,nan,Grases,Besucher.,Herrn,wiedergewählt.,verschrottet.,Hauptbahnhof.,nan,eine,goldenen,Kunsteis,"vermiest,",aus,schwarzem,nan,seiner,nan,köstlichen,als,artgerecht,köstlicher,defekt,kaltem,nan,defekt,drei,um,Helmen,Gras,Soldaten,ml,nan,Energie.,mehr,als,Esslöffel,Dezember,verschrottet.,Abduschen,Soldaten,,,,,,,,,,,,,,,,,,,,,,,2,0,2,0,0,6,6,6,,,,,,,space,0.369382858276,,,,,2017_Jan_23_1602,61.1688321158,spr_backupper,001,Mo16,
,nan,Slums.,Stoff,nan,überführt,ganz,Gewebe,warmer,diskutiert.,zurückgekehrt.,mitbringen.,Frau,fahren.,Problemen,nan,als,umgearbeitet.,nan,mit,ganz,Fall,Einsatz,Boden,Menge,trug.,jede,nan,nan,Sammlung,gefertigt.,Wohnung.,Menge,warmen,nan,Fall,Japan.,ist.,Probleme,nan,ziemlich,nan,haftbar.,dem,verdünnt.,zur,Tee,Wohnung.,jede,mitbringen.,liegen.,Slums.,Boden,selber,das,überführt,nan,Gantenbeins.,mit,nan,zwängen.,nan,Gantenbein.,nan,nan,nan,nan,Sammlung,Besatz,eingesprüht.,dass,dem,Kaffee,nan,Frau,nan,Weins,einmal,gehalten.,Wein,war.,Saft,nan,war.,Tage.,Nadelhölzer,zur,zwängen.,des,warme,nan,nan,als,einmal,warmem,stattfinden.,nan,gehärtet.,des,,,,,,,,,,,,,,,,,,,,,,,2,0,2,0,0,7,7,7,,,,,,,space,0.353445053101,,,,,2017_Jan_23_1602,61.1688321158,spr_backupper,001,Mo16,
,nan,nan,gefertigt.,nan,wurden.,deutlich.,wiederhergestellt.,Milch.,nan,nan,nan,gepasst.,nan,im,nan,gerne.,nan,nan,an,deutlich.,genug.,sinken.,berührt.,dunkler,nan,Menge,nan,nan,dumme,nan,nan,dunkle,Honigs,nan,genug.,nan,nan,im,nan,vermiest.,nan,nan,Haus,nan,Schule.,wieder,nan,Menge,nan,nan,nan,berührt.,kaufen.,Medikament,wurden.,nan,nan,an,nan,nan,nan,nan,nan,nan,nan,nan,dummer,rekonstruiert.,nan,es,Haus,wiederbelebt.,nan,gepasst,nan,schon,Rilke,nan,schon,nan,besprochen.,nan,nan,nan,umzusetzen.,Schule.,nan,zweiten,Milch.,nan,nan,gerne.,Rilke.,Honig,nan,nan,nan,zweiten,,,,,,,,,,,,,,,,,,,,,,,2,0,2,0,0,8,8,8,,,,,,,space,0.384933948517,,,,,2017_Jan_23_1602,61.1688321158,spr_backupper,001,Mo16,
,,,,,,,,,,,,,,,,,,,,,,,,,,,,,,,,,,,,,,,,,,,,,,,,,,,,,,,,,,,,,,,,,,,,,,,,,,,,,,,,,,,,,,,,,,,,,,,,,,,,,,,,,,,,,,,,,,,,,,,,,2,0,2,0,,,,,,,,,,,,,None,j,2.41954684258,,2017_Jan_23_1602,61.1688321158,spr_backupper,001,Mo16,
,Viele,Am,Er,Walter,Es,Im,Danach,In,Fernab,Als,Außer,Die,Wir,In,Er,Wir,Die,Es,Ich,Im,100,Ihr,Nicht,Mit,Die,Man,Viele,Wir,Sie,Alle,Sie,Mit,Er,Die,100,Die,Die,In,Es,Dass,Außer,Manche,Wir,Die,Die,Ich,Sie,Man,Außer,Jungtiere,Am,Nicht,Jugendliche,In,Es,Außer,Die,Ich,Sie,Wir,Wir,Die,Er,Die,Die,Beträchtliche,Sie,Das,Die,Es,Wir,Die,Beträchtliche,Die,Dort,Bei,In,In,Bei,Die,Sie,Dort,Die,Der,Jetzt,Die,Wir,Bei,In,Sie,Die,Wir,In,Er,Unter,Die,Die,Bei,,,,,,,,,,,,,,,,,,,,,,,3,0,3,0,0,0,0,0,,,,,,None,space,0.370085000992,,,,,2017_Jan_23_1602,61.1688321158,spr_backupper,001,Mo16,
,Tonnen,äußeren,hat,Scheel,waren,Fernrohr,wurde,den,des,die,das,Schuhe,konnten,der,wurde,übergaben,Stücke,wurden,nehme,Fernrohr,g,Blutdruck,ein,dieser,Uhr,machte,Tonnen,hatten,hatte,Betten,verlassen,dieser,stellt,Schule,g,"Uhr,",Teilnehmerinnen,der,wurden,es,dem,Kreditnehmer,haben,Lösung,Kinder,wurde,verlassen,machte,dem,sollten,äußersten,ein,können,einer,waren,den,Gäste,nehme,verbrauchen,mussten,hatten,Gäste,wurde,Autos,Linie,Stücke,hatte,Tuch,Eislaufbahnen,hat,haben,müden,Stücke,Schuhe,türmen,unserer,meinem,diesem,unserer,Uhr,haben,türmen,Uhr,Flug,ist,Kinder,mussten,der,den,verbrauchen,Schule,übergaben,meinem,stellt,keinen,Autos,Formen,der,,,,,,,,,,,,,,,,,,,,,,,3,0,3,0,0,1,1,1,,,,,,,space,0.33070397377,,,,,2017_Jan_23_1602,61.1688321158,spr_backupper,001,Mo16,
,gebrauchter,Rand,ein,war,nur,sahen,die,Kakao,Rummels,Sonne,Essen,in,dann,Tat,trotz,das,wurden,Eimer,eine,sahen,braunen,kann,Tropfen,Methode,war,mal,gebrauchte,in,keine,wurden,wegen,Methode,die,verbraucht,brauner,die,wussten,Tat,Eimer,"regnete,",Bürgermeister,sind,jede,wird,fuhren,damals,wegen,mal,Essen,immer,Rand,Tropfen,Kleidung,Studie,nur,Bürgermeister,suchen,eine,60,uns,in,suchen,trotz,beider,101,saftigen,keine,wurde,wurden,uns,jede,Teilnehmer,saftiges,in,sich,Ankunft,Studium,Zirkus,Ankunft,schlug,die,sich,schlug,zum,genau,fuhren,uns,Feier,Kakao,60,verbraucht,dem,Studium,die,Umständen,beider,wurden,Feier,,,,,,,,,,,,,,,,,,,,,,,3,0,3,0,0,2,2,2,,,,,,,space,0.336229085922,,,,,2017_Jan_23_1602,61.1688321158,spr_backupper,001,Mo16,
,Kleidung,der,Hemd,der,kleinere,wir,Leinwand,gehören,wurde,"unterging,",kann,Größe,mit,wissen,des,Auto,aus,roter,große,wir,Zuckers,schon,königliches,kann,aus,wieder,Kleidung,Dänemark,Lust,mit,des,kann,Masse,260.000,Zucker,er,überwiegend,wissen,rote,hat,beschuldigten,mit,Menge,mit,mit,schnell,dem,wieder,kann,auf,der,königlichen,bei,wurde,kleinere,beschuldigten,die,große,Liter,durch,Dänemark,die,dem,beteiligter,hält,Fleischs,Lust,dann,mit,die,Menge,wurden,Fleisch,Größe,Berge,stand,habe,werden,stand,"sporadisch,",Erlebnisse,Berge,"sporadisch,",Mond,die,mit,durch,gedachte,gehören,Liter,260.000,Mann,las,Masse,können,beteiligten,unter,gedachte,,,,,,,,,,,,,,,,,,,,,,,3,0,3,0,0,3,3,3,,,,,,,space,0.328798055649,,,,,2017_Jan_23_1602,61.1688321158,spr_backupper,001,Mo16,
,landen,Stadt,aus,vierte,"Delikte,",den,aus,immer,schon,war,ich,36,"minimalem,",wir,bekannten,dem,"wertvollem,",Farbe,Packung,den,sind,bei,Blut,man,"Japan,",viel,landen,einen,auf,"üblichem,",schönen,man,mit,Kilowattstunden,sind,"trug,","nicht,",wir,Farbe,uns,die,"sämtlichem,",alten,"reichlichem,",solch,dank,schönen,viel,ich,warmem,Stadt,Bluts,ausreichendem,jetzt,"Delikte,",die,Wohnung,Packung,sprudelndes,Büschel,gelegentlich,Wohnung,bekannten,Fahrer,nicht,wurden,auf,mit,dauerhaftem,Stimmung,alten,mit,wurden,36,schmutziger,ein,ich,die,ein,obschon,bei,schmutzige,obwohl,dauerte,richtige,solchen,Büschel,man,immer,sprudelnden,Kilowattstunden,das,ich,mit,Neuwahlen,Fahrer,"regelmäßigem,",man,,,,,,,,,,,,,,,,,,,,,,,3,0,3,0,0,4,4,4,,,,,,,space,0.367683172226,,,,,2017_Jan_23_1602,61.1688321158,spr_backupper,001,Mo16,
,im,liegen,feinem,Bundespräsident.,deren,roten,seltenem,350,immer,die,leider,hätten,sauberen,von,Skandals,Mann,klassischen,geschleudert.,salziger,roten,auf,minimalem,hat,eine,die,Lärm,im,gelegentlichen,noch,harten,Wetters,eine,einem,elektrische,auf,war,was,um,geschleudert.,die,Störenfriede,künftigem,Krams,purem,unzureichenden,täglichem,Wetter,Lärm,leider,weichem,liegen,hat,monatlichem,"nachgewiesen,",derer,Störenfriede,des,salzige,Trinkwasser.,frischen,einen,des,Skandal,wurden,am,serviert.,noch,"reichem,",feinem,ziemlich,Kram,zusätzlichem,serviert.,würden,Wäsche.,Glas,mehr,Tiere,Glas,sie,"frischem,",Wäsche.,sie,ungefähr,"Zeit,",unzureichenden,frisches,der,350,Trinkwassers.,elektrischer,Auto,mehr,einem,vor,wurden,kaltem,den,,,,,,,,,,,,,,,,,,,,,,,3,0,3,0,0,5,5,5,,,,,,,space,0.377317905426,,,,,2017_Jan_23_1602,61.1688321158,spr_backupper,001,Mo16,
,Müll.,die,dichten,nan,sie,Planet,dichten,ml,ruhig,Flut,nichts,seiner,Kraftstoff,den,wiedergewählt.,mehr,Schmuck,nan,Wurst,Planeten,jeden,täglichen,den,große,er,um,Müll.,Besucher.,eine,Schaumstoff,die,große,Esslöffel,Energie.,jeden,aus,Tupperware,die,nan,Stimmung,jeden.,Einkommen,aus,Alkohol,Helmen,grünen,die,um,nichts,Untergrund,die,den,Taschengeld,dass,sie,jeden.,Herrn,Wurst,nan,Grases,Besucher.,Herrn,wiedergewählt.,verschrottet.,Hauptbahnhof.,nan,eine,goldenen,Kunsteis,"vermiest,",aus,schwarzem,nan,seiner,nan,köstlichen,als,artgerecht,köstlicher,defekt,kaltem,nan,defekt,drei,um,Helmen,Gras,Soldaten,ml,nan,Energie.,mehr,als,Esslöffel,Dezember,verschrottet.,Abduschen,Soldaten,,,,,,,,,,,,,,,,,,,,,,,3,0,3,0,0,6,6,6,,,,,,,space,0.385139942169,,,,,2017_Jan_23_1602,61.1688321158,spr_backupper,001,Mo16,
,nan,Slums.,Stoff,nan,überführt,ganz,Gewebe,warmer,diskutiert.,zurückgekehrt.,mitbringen.,Frau,fahren.,Problemen,nan,als,umgearbeitet.,nan,mit,ganz,Fall,Einsatz,Boden,Menge,trug.,jede,nan,nan,Sammlung,gefertigt.,Wohnung.,Menge,warmen,nan,Fall,Japan.,ist.,Probleme,nan,ziemlich,nan,haftbar.,dem,verdünnt.,zur,Tee,Wohnung.,jede,mitbringen.,liegen.,Slums.,Boden,selber,das,überführt,nan,Gantenbeins.,mit,nan,zwängen.,nan,Gantenbein.,nan,nan,nan,nan,Sammlung,Besatz,eingesprüht.,dass,dem,Kaffee,nan,Frau,nan,Weins,einmal,gehalten.,Wein,war.,Saft,nan,war.,Tage.,Nadelhölzer,zur,zwängen.,des,warme,nan,nan,als,einmal,warmem,stattfinden.,nan,gehärtet.,des,,,,,,,,,,,,,,,,,,,,,,,3,0,3,0,0,7,7,7,,,,,,,space,0.370970010757,,,,,2017_Jan_23_1602,61.1688321158,spr_backupper,001,Mo16,
,nan,nan,gefertigt.,nan,wurden.,deutlich.,wiederhergestellt.,Milch.,nan,nan,nan,gepasst.,nan,im,nan,gerne.,nan,nan,an,deutlich.,genug.,sinken.,berührt.,dunkler,nan,Menge,nan,nan,dumme,nan,nan,dunkle,Honigs,nan,genug.,nan,nan,im,nan,vermiest.,nan,nan,Haus,nan,Schule.,wieder,nan,Menge,nan,nan,nan,berührt.,kaufen.,Medikament,wurden.,nan,nan,an,nan,nan,nan,nan,nan,nan,nan,nan,dummer,rekonstruiert.,nan,es,Haus,wiederbelebt.,nan,gepasst,nan,schon,Rilke,nan,schon,nan,besprochen.,nan,nan,nan,umzusetzen.,Schule.,nan,zweiten,Milch.,nan,nan,gerne.,Rilke.,Honig,nan,nan,nan,zweiten,,,,,,,,,,,,,,,,,,,,,,,3,0,3,0,0,8,8,8,,,,,,,space,0.372737884521,,,,,2017_Jan_23_1602,61.1688321158,spr_backupper,001,Mo16,
,,,,,,,,,,,,,,,,,,,,,,,,,,,,,,,,,,,,,,,,,,,,,,,,,,,,,,,,,,,,,,,,,,,,,,,,,,,,,,,,,,,,,,,,,,,,,,,,,,,,,,,,,,,,,,,,,,,,,,,,,3,0,3,0,,,,,,,,,,,,,None,j,2.95454311371,,2017_Jan_23_1602,61.1688321158,spr_backupper,001,Mo16,
,Viele,Am,Er,Walter,Es,Im,Danach,In,Fernab,Als,Außer,Die,Wir,In,Er,Wir,Die,Es,Ich,Im,100,Ihr,Nicht,Mit,Die,Man,Viele,Wir,Sie,Alle,Sie,Mit,Er,Die,100,Die,Die,In,Es,Dass,Außer,Manche,Wir,Die,Die,Ich,Sie,Man,Außer,Jungtiere,Am,Nicht,Jugendliche,In,Es,Außer,Die,Ich,Sie,Wir,Wir,Die,Er,Die,Die,Beträchtliche,Sie,Das,Die,Es,Wir,Die,Beträchtliche,Die,Dort,Bei,In,In,Bei,Die,Sie,Dort,Die,Der,Jetzt,Die,Wir,Bei,In,Sie,Die,Wir,In,Er,Unter,Die,Die,Bei,,,,,,,,,,,,,,,,,,,,,,,4,0,4,0,0,0,0,0,,,,,,None,space,0.355937957764,,,,,2017_Jan_23_1602,61.1688321158,spr_backupper,001,Mo16,
,Tonnen,äußeren,hat,Scheel,waren,Fernrohr,wurde,den,des,die,das,Schuhe,konnten,der,wurde,übergaben,Stücke,wurden,nehme,Fernrohr,g,Blutdruck,ein,dieser,Uhr,machte,Tonnen,hatten,hatte,Betten,verlassen,dieser,stellt,Schule,g,"Uhr,",Teilnehmerinnen,der,wurden,es,dem,Kreditnehmer,haben,Lösung,Kinder,wurde,verlassen,machte,dem,sollten,äußersten,ein,können,einer,waren,den,Gäste,nehme,verbrauchen,mussten,hatten,Gäste,wurde,Autos,Linie,Stücke,hatte,Tuch,Eislaufbahnen,hat,haben,müden,Stücke,Schuhe,türmen,unserer,meinem,diesem,unserer,Uhr,haben,türmen,Uhr,Flug,ist,Kinder,mussten,der,den,verbrauchen,Schule,übergaben,meinem,stellt,keinen,Autos,Formen,der,,,,,,,,,,,,,,,,,,,,,,,4,0,4,0,0,1,1,1,,,,,,,space,0.325244188309,,,,,2017_Jan_23_1602,61.1688321158,spr_backupper,001,Mo16,
,gebrauchter,Rand,ein,war,nur,sahen,die,Kakao,Rummels,Sonne,Essen,in,dann,Tat,trotz,das,wurden,Eimer,eine,sahen,braunen,kann,Tropfen,Methode,war,mal,gebrauchte,in,keine,wurden,wegen,Methode,die,verbraucht,brauner,die,wussten,Tat,Eimer,"regnete,",Bürgermeister,sind,jede,wird,fuhren,damals,wegen,mal,Essen,immer,Rand,Tropfen,Kleidung,Studie,nur,Bürgermeister,suchen,eine,60,uns,in,suchen,trotz,beider,101,saftigen,keine,wurde,wurden,uns,jede,Teilnehmer,saftiges,in,sich,Ankunft,Studium,Zirkus,Ankunft,schlug,die,sich,schlug,zum,genau,fuhren,uns,Feier,Kakao,60,verbraucht,dem,Studium,die,Umständen,beider,wurden,Feier,,,,,,,,,,,,,,,,,,,,,,,4,0,4,0,0,2,2,2,,,,,,,space,0.29807806015,,,,,2017_Jan_23_1602,61.1688321158,spr_backupper,001,Mo16,
,Kleidung,der,Hemd,der,kleinere,wir,Leinwand,gehören,wurde,"unterging,",kann,Größe,mit,wissen,des,Auto,aus,roter,große,wir,Zuckers,schon,königliches,kann,aus,wieder,Kleidung,Dänemark,Lust,mit,des,kann,Masse,260.000,Zucker,er,überwiegend,wissen,rote,hat,beschuldigten,mit,Menge,mit,mit,schnell,dem,wieder,kann,auf,der,königlichen,bei,wurde,kleinere,beschuldigten,die,große,Liter,durch,Dänemark,die,dem,beteiligter,hält,Fleischs,Lust,dann,mit,die,Menge,wurden,Fleisch,Größe,Berge,stand,habe,werden,stand,"sporadisch,",Erlebnisse,Berge,"sporadisch,",Mond,die,mit,durch,gedachte,gehören,Liter,260.000,Mann,las,Masse,können,beteiligten,unter,gedachte,,,,,,,,,,,,,,,,,,,,,,,4,0,4,0,0,3,3,3,,,,,,,space,0.309593915939,,,,,2017_Jan_23_1602,61.1688321158,spr_backupper,001,Mo16,
,landen,Stadt,aus,vierte,"Delikte,",den,aus,immer,schon,war,ich,36,"minimalem,",wir,bekannten,dem,"wertvollem,",Farbe,Packung,den,sind,bei,Blut,man,"Japan,",viel,landen,einen,auf,"üblichem,",schönen,man,mit,Kilowattstunden,sind,"trug,","nicht,",wir,Farbe,uns,die,"sämtlichem,",alten,"reichlichem,",solch,dank,schönen,viel,ich,warmem,Stadt,Bluts,ausreichendem,jetzt,"Delikte,",die,Wohnung,Packung,sprudelndes,Büschel,gelegentlich,Wohnung,bekannten,Fahrer,nicht,wurden,auf,mit,dauerhaftem,Stimmung,alten,mit,wurden,36,schmutziger,ein,ich,die,ein,obschon,bei,schmutzige,obwohl,dauerte,richtige,solchen,Büschel,man,immer,sprudelnden,Kilowattstunden,das,ich,mit,Neuwahlen,Fahrer,"regelmäßigem,",man,,,,,,,,,,,,,,,,,,,,,,,4,0,4,0,0,4,4,4,,,,,,,space,0.303285837173,,,,,2017_Jan_23_1602,61.1688321158,spr_backupper,001,Mo16,
,im,liegen,feinem,Bundespräsident.,deren,roten,seltenem,350,immer,die,leider,hätten,sauberen,von,Skandals,Mann,klassischen,geschleudert.,salziger,roten,auf,minimalem,hat,eine,die,Lärm,im,gelegentlichen,noch,harten,Wetters,eine,einem,elektrische,auf,war,was,um,geschleudert.,die,Störenfriede,künftigem,Krams,purem,unzureichenden,täglichem,Wetter,Lärm,leider,weichem,liegen,hat,monatlichem,"nachgewiesen,",derer,Störenfriede,des,salzige,Trinkwasser.,frischen,einen,des,Skandal,wurden,am,serviert.,noch,"reichem,",feinem,ziemlich,Kram,zusätzlichem,serviert.,würden,Wäsche.,Glas,mehr,Tiere,Glas,sie,"frischem,",Wäsche.,sie,ungefähr,"Zeit,",unzureichenden,frisches,der,350,Trinkwassers.,elektrischer,Auto,mehr,einem,vor,wurden,kaltem,den,,,,,,,,,,,,,,,,,,,,,,,4,0,4,0,0,5,5,5,,,,,,,space,0.297311067581,,,,,2017_Jan_23_1602,61.1688321158,spr_backupper,001,Mo16,
,Müll.,die,dichten,nan,sie,Planet,dichten,ml,ruhig,Flut,nichts,seiner,Kraftstoff,den,wiedergewählt.,mehr,Schmuck,nan,Wurst,Planeten,jeden,täglichen,den,große,er,um,Müll.,Besucher.,eine,Schaumstoff,die,große,Esslöffel,Energie.,jeden,aus,Tupperware,die,nan,Stimmung,jeden.,Einkommen,aus,Alkohol,Helmen,grünen,die,um,nichts,Untergrund,die,den,Taschengeld,dass,sie,jeden.,Herrn,Wurst,nan,Grases,Besucher.,Herrn,wiedergewählt.,verschrottet.,Hauptbahnhof.,nan,eine,goldenen,Kunsteis,"vermiest,",aus,schwarzem,nan,seiner,nan,köstlichen,als,artgerecht,köstlicher,defekt,kaltem,nan,defekt,drei,um,Helmen,Gras,Soldaten,ml,nan,Energie.,mehr,als,Esslöffel,Dezember,verschrottet.,Abduschen,Soldaten,,,,,,,,,,,,,,,,,,,,,,,4,0,4,0,0,6,6,6,,,,,,,space,0.290772914886,,,,,2017_Jan_23_1602,61.1688321158,spr_backupper,001,Mo16,
,nan,Slums.,Stoff,nan,überführt,ganz,Gewebe,warmer,diskutiert.,zurückgekehrt.,mitbringen.,Frau,fahren.,Problemen,nan,als,umgearbeitet.,nan,mit,ganz,Fall,Einsatz,Boden,Menge,trug.,jede,nan,nan,Sammlung,gefertigt.,Wohnung.,Menge,warmen,nan,Fall,Japan.,ist.,Probleme,nan,ziemlich,nan,haftbar.,dem,verdünnt.,zur,Tee,Wohnung.,jede,mitbringen.,liegen.,Slums.,Boden,selber,das,überführt,nan,Gantenbeins.,mit,nan,zwängen.,nan,Gantenbein.,nan,nan,nan,nan,Sammlung,Besatz,eingesprüht.,dass,dem,Kaffee,nan,Frau,nan,Weins,einmal,gehalten.,Wein,war.,Saft,nan,war.,Tage.,Nadelhölzer,zur,zwängen.,des,warme,nan,nan,als,einmal,warmem,stattfinden.,nan,gehärtet.,des,,,,,,,,,,,,,,,,,,,,,,,4,0,4,0,0,7,7,7,,,,,,,space,0.334837198257,,,,,2017_Jan_23_1602,61.1688321158,spr_backupper,001,Mo16,
,,,,,,,,,,,,,,,,,,,,,,,,,,,,,,,,,,,,,,,,,,,,,,,,,,,,,,,,,,,,,,,,,,,,,,,,,,,,,,,,,,,,,,,,,,,,,,,,,,,,,,,,,,,,,,,,,,,,,,,,,4,0,4,0,,,,,,,,,,,,,None,j,3.95524001122,,2017_Jan_23_1602,61.1688321158,spr_backupper,001,Mo16,
,Viele,Am,Er,Walter,Es,Im,Danach,In,Fernab,Als,Außer,Die,Wir,In,Er,Wir,Die,Es,Ich,Im,100,Ihr,Nicht,Mit,Die,Man,Viele,Wir,Sie,Alle,Sie,Mit,Er,Die,100,Die,Die,In,Es,Dass,Außer,Manche,Wir,Die,Die,Ich,Sie,Man,Außer,Jungtiere,Am,Nicht,Jugendliche,In,Es,Außer,Die,Ich,Sie,Wir,Wir,Die,Er,Die,Die,Beträchtliche,Sie,Das,Die,Es,Wir,Die,Beträchtliche,Die,Dort,Bei,In,In,Bei,Die,Sie,Dort,Die,Der,Jetzt,Die,Wir,Bei,In,Sie,Die,Wir,In,Er,Unter,Die,Die,Bei,,,,,,,,,,,,,,,,,,,,,,,5,0,5,0,0,0,0,0,,,,,,None,space,0.336110115051,,,,,2017_Jan_23_1602,61.1688321158,spr_backupper,001,Mo16,
,Tonnen,äußeren,hat,Scheel,waren,Fernrohr,wurde,den,des,die,das,Schuhe,konnten,der,wurde,übergaben,Stücke,wurden,nehme,Fernrohr,g,Blutdruck,ein,dieser,Uhr,machte,Tonnen,hatten,hatte,Betten,verlassen,dieser,stellt,Schule,g,"Uhr,",Teilnehmerinnen,der,wurden,es,dem,Kreditnehmer,haben,Lösung,Kinder,wurde,verlassen,machte,dem,sollten,äußersten,ein,können,einer,waren,den,Gäste,nehme,verbrauchen,mussten,hatten,Gäste,wurde,Autos,Linie,Stücke,hatte,Tuch,Eislaufbahnen,hat,haben,müden,Stücke,Schuhe,türmen,unserer,meinem,diesem,unserer,Uhr,haben,türmen,Uhr,Flug,ist,Kinder,mussten,der,den,verbrauchen,Schule,übergaben,meinem,stellt,keinen,Autos,Formen,der,,,,,,,,,,,,,,,,,,,,,,,5,0,5,0,0,1,1,1,,,,,,,space,0.277320861816,,,,,2017_Jan_23_1602,61.1688321158,spr_backupper,001,Mo16,
,gebrauchter,Rand,ein,war,nur,sahen,die,Kakao,Rummels,Sonne,Essen,in,dann,Tat,trotz,das,wurden,Eimer,eine,sahen,braunen,kann,Tropfen,Methode,war,mal,gebrauchte,in,keine,wurden,wegen,Methode,die,verbraucht,brauner,die,wussten,Tat,Eimer,"regnete,",Bürgermeister,sind,jede,wird,fuhren,damals,wegen,mal,Essen,immer,Rand,Tropfen,Kleidung,Studie,nur,Bürgermeister,suchen,eine,60,uns,in,suchen,trotz,beider,101,saftigen,keine,wurde,wurden,uns,jede,Teilnehmer,saftiges,in,sich,Ankunft,Studium,Zirkus,Ankunft,schlug,die,sich,schlug,zum,genau,fuhren,uns,Feier,Kakao,60,verbraucht,dem,Studium,die,Umständen,beider,wurden,Feier,,,,,,,,,,,,,,,,,,,,,,,5,0,5,0,0,2,2,2,,,,,,,space,0.286499023438,,,,,2017_Jan_23_1602,61.1688321158,spr_backupper,001,Mo16,
,Kleidung,der,Hemd,der,kleinere,wir,Leinwand,gehören,wurde,"unterging,",kann,Größe,mit,wissen,des,Auto,aus,roter,große,wir,Zuckers,schon,königliches,kann,aus,wieder,Kleidung,Dänemark,Lust,mit,des,kann,Masse,260.000,Zucker,er,überwiegend,wissen,rote,hat,beschuldigten,mit,Menge,mit,mit,schnell,dem,wieder,kann,auf,der,königlichen,bei,wurde,kleinere,beschuldigten,die,große,Liter,durch,Dänemark,die,dem,beteiligter,hält,Fleischs,Lust,dann,mit,die,Menge,wurden,Fleisch,Größe,Berge,stand,habe,werden,stand,"sporadisch,",Erlebnisse,Berge,"sporadisch,",Mond,die,mit,durch,gedachte,gehören,Liter,260.000,Mann,las,Masse,können,beteiligten,unter,gedachte,,,,,,,,,,,,,,,,,,,,,,,5,0,5,0,0,3,3,3,,,,,,,space,0.291999101639,,,,,2017_Jan_23_1602,61.1688321158,spr_backupper,001,Mo16,
,landen,Stadt,aus,vierte,"Delikte,",den,aus,immer,schon,war,ich,36,"minimalem,",wir,bekannten,dem,"wertvollem,",Farbe,Packung,den,sind,bei,Blut,man,"Japan,",viel,landen,einen,auf,"üblichem,",schönen,man,mit,Kilowattstunden,sind,"trug,","nicht,",wir,Farbe,uns,die,"sämtlichem,",alten,"reichlichem,",solch,dank,schönen,viel,ich,warmem,Stadt,Bluts,ausreichendem,jetzt,"Delikte,",die,Wohnung,Packung,sprudelndes,Büschel,gelegentlich,Wohnung,bekannten,Fahrer,nicht,wurden,auf,mit,dauerhaftem,Stimmung,alten,mit,wurden,36,schmutziger,ein,ich,die,ein,obschon,bei,schmutzige,obwohl,dauerte,richtige,solchen,Büschel,man,immer,sprudelnden,Kilowattstunden,das,ich,mit,Neuwahlen,Fahrer,"regelmäßigem,",man,,,,,,,,,,,,,,,,,,,,,,,5,0,5,0,0,4,4,4,,,,,,,space,0.486126184464,,,,,2017_Jan_23_1602,61.1688321158,spr_backupper,001,Mo16,
,im,liegen,feinem,Bundespräsident.,deren,roten,seltenem,350,immer,die,leider,hätten,sauberen,von,Skandals,Mann,klassischen,geschleudert.,salziger,roten,auf,minimalem,hat,eine,die,Lärm,im,gelegentlichen,noch,harten,Wetters,eine,einem,elektrische,auf,war,was,um,geschleudert.,die,Störenfriede,künftigem,Krams,purem,unzureichenden,täglichem,Wetter,Lärm,leider,weichem,liegen,hat,monatlichem,"nachgewiesen,",derer,Störenfriede,des,salzige,Trinkwasser.,frischen,einen,des,Skandal,wurden,am,serviert.,noch,"reichem,",feinem,ziemlich,Kram,zusätzlichem,serviert.,würden,Wäsche.,Glas,mehr,Tiere,Glas,sie,"frischem,",Wäsche.,sie,ungefähr,"Zeit,",unzureichenden,frisches,der,350,Trinkwassers.,elektrischer,Auto,mehr,einem,vor,wurden,kaltem,den,,,,,,,,,,,,,,,,,,,,,,,5,0,5,0,0,5,5,5,,,,,,,space,0.294034957886,,,,,2017_Jan_23_1602,61.1688321158,spr_backupper,001,Mo16,
,Müll.,die,dichten,nan,sie,Planet,dichten,ml,ruhig,Flut,nichts,seiner,Kraftstoff,den,wiedergewählt.,mehr,Schmuck,nan,Wurst,Planeten,jeden,täglichen,den,große,er,um,Müll.,Besucher.,eine,Schaumstoff,die,große,Esslöffel,Energie.,jeden,aus,Tupperware,die,nan,Stimmung,jeden.,Einkommen,aus,Alkohol,Helmen,grünen,die,um,nichts,Untergrund,die,den,Taschengeld,dass,sie,jeden.,Herrn,Wurst,nan,Grases,Besucher.,Herrn,wiedergewählt.,verschrottet.,Hauptbahnhof.,nan,eine,goldenen,Kunsteis,"vermiest,",aus,schwarzem,nan,seiner,nan,köstlichen,als,artgerecht,köstlicher,defekt,kaltem,nan,defekt,drei,um,Helmen,Gras,Soldaten,ml,nan,Energie.,mehr,als,Esslöffel,Dezember,verschrottet.,Abduschen,Soldaten,,,,,,,,,,,,,,,,,,,,,,,5,0,5,0,0,6,6,6,,,,,,,space,0.319328784943,,,,,2017_Jan_23_1602,61.1688321158,spr_backupper,001,Mo16,
,nan,Slums.,Stoff,nan,überführt,ganz,Gewebe,warmer,diskutiert.,zurückgekehrt.,mitbringen.,Frau,fahren.,Problemen,nan,als,umgearbeitet.,nan,mit,ganz,Fall,Einsatz,Boden,Menge,trug.,jede,nan,nan,Sammlung,gefertigt.,Wohnung.,Menge,warmen,nan,Fall,Japan.,ist.,Probleme,nan,ziemlich,nan,haftbar.,dem,verdünnt.,zur,Tee,Wohnung.,jede,mitbringen.,liegen.,Slums.,Boden,selber,das,überführt,nan,Gantenbeins.,mit,nan,zwängen.,nan,Gantenbein.,nan,nan,nan,nan,Sammlung,Besatz,eingesprüht.,dass,dem,Kaffee,nan,Frau,nan,Weins,einmal,gehalten.,Wein,war.,Saft,nan,war.,Tage.,Nadelhölzer,zur,zwängen.,des,warme,nan,nan,als,einmal,warmem,stattfinden.,nan,gehärtet.,des,,,,,,,,,,,,,,,,,,,,,,,5,0,5,0,0,7,7,7,,,,,,,space,0.302361965179,,,,,2017_Jan_23_1602,61.1688321158,spr_backupper,001,Mo16,
,,,,,,,,,,,,,,,,,,,,,,,,,,,,,,,,,,,,,,,,,,,,,,,,,,,,,,,,,,,,,,,,,,,,,,,,,,,,,,,,,,,,,,,,,,,,,,,,,,,,,,,,,,,,,,,,,,,,,,,,,5,0,5,0,,,,,,,,,,,,,None,j,4.49496293068,,2017_Jan_23_1602,61.1688321158,spr_backupper,001,Mo16,
,Viele,Am,Er,Walter,Es,Im,Danach,In,Fernab,Als,Außer,Die,Wir,In,Er,Wir,Die,Es,Ich,Im,100,Ihr,Nicht,Mit,Die,Man,Viele,Wir,Sie,Alle,Sie,Mit,Er,Die,100,Die,Die,In,Es,Dass,Außer,Manche,Wir,Die,Die,Ich,Sie,Man,Außer,Jungtiere,Am,Nicht,Jugendliche,In,Es,Außer,Die,Ich,Sie,Wir,Wir,Die,Er,Die,Die,Beträchtliche,Sie,Das,Die,Es,Wir,Die,Beträchtliche,Die,Dort,Bei,In,In,Bei,Die,Sie,Dort,Die,Der,Jetzt,Die,Wir,Bei,In,Sie,Die,Wir,In,Er,Unter,Die,Die,Bei,,,,,,,,,,,,,,,,,,,,,,,6,0,6,0,0,0,0,0,,,,,,None,space,1.54066205025,,,,,2017_Jan_23_1602,61.1688321158,spr_backupper,001,Mo16,
,Tonnen,äußeren,hat,Scheel,waren,Fernrohr,wurde,den,des,die,das,Schuhe,konnten,der,wurde,übergaben,Stücke,wurden,nehme,Fernrohr,g,Blutdruck,ein,dieser,Uhr,machte,Tonnen,hatten,hatte,Betten,verlassen,dieser,stellt,Schule,g,"Uhr,",Teilnehmerinnen,der,wurden,es,dem,Kreditnehmer,haben,Lösung,Kinder,wurde,verlassen,machte,dem,sollten,äußersten,ein,können,einer,waren,den,Gäste,nehme,verbrauchen,mussten,hatten,Gäste,wurde,Autos,Linie,Stücke,hatte,Tuch,Eislaufbahnen,hat,haben,müden,Stücke,Schuhe,türmen,unserer,meinem,diesem,unserer,Uhr,haben,türmen,Uhr,Flug,ist,Kinder,mussten,der,den,verbrauchen,Schule,übergaben,meinem,stellt,keinen,Autos,Formen,der,,,,,,,,,,,,,,,,,,,,,,,6,0,6,0,0,1,1,1,,,,,,,space,0.32439994812,,,,,2017_Jan_23_1602,61.1688321158,spr_backupper,001,Mo16,
,gebrauchter,Rand,ein,war,nur,sahen,die,Kakao,Rummels,Sonne,Essen,in,dann,Tat,trotz,das,wurden,Eimer,eine,sahen,braunen,kann,Tropfen,Methode,war,mal,gebrauchte,in,keine,wurden,wegen,Methode,die,verbraucht,brauner,die,wussten,Tat,Eimer,"regnete,",Bürgermeister,sind,jede,wird,fuhren,damals,wegen,mal,Essen,immer,Rand,Tropfen,Kleidung,Studie,nur,Bürgermeister,suchen,eine,60,uns,in,suchen,trotz,beider,101,saftigen,keine,wurde,wurden,uns,jede,Teilnehmer,saftiges,in,sich,Ankunft,Studium,Zirkus,Ankunft,schlug,die,sich,schlug,zum,genau,fuhren,uns,Feier,Kakao,60,verbraucht,dem,Studium,die,Umständen,beider,wurden,Feier,,,,,,,,,,,,,,,,,,,,,,,6,0,6,0,0,2,2,2,,,,,,,space,0.336409091949,,,,,2017_Jan_23_1602,61.1688321158,spr_backupper,001,Mo16,
,Kleidung,der,Hemd,der,kleinere,wir,Leinwand,gehören,wurde,"unterging,",kann,Größe,mit,wissen,des,Auto,aus,roter,große,wir,Zuckers,schon,königliches,kann,aus,wieder,Kleidung,Dänemark,Lust,mit,des,kann,Masse,260.000,Zucker,er,überwiegend,wissen,rote,hat,beschuldigten,mit,Menge,mit,mit,schnell,dem,wieder,kann,auf,der,königlichen,bei,wurde,kleinere,beschuldigten,die,große,Liter,durch,Dänemark,die,dem,beteiligter,hält,Fleischs,Lust,dann,mit,die,Menge,wurden,Fleisch,Größe,Berge,stand,habe,werden,stand,"sporadisch,",Erlebnisse,Berge,"sporadisch,",Mond,die,mit,durch,gedachte,gehören,Liter,260.000,Mann,las,Masse,können,beteiligten,unter,gedachte,,,,,,,,,,,,,,,,,,,,,,,6,0,6,0,0,3,3,3,,,,,,,space,0.324855089188,,,,,2017_Jan_23_1602,61.1688321158,spr_backupper,001,Mo16,
,landen,Stadt,aus,vierte,"Delikte,",den,aus,immer,schon,war,ich,36,"minimalem,",wir,bekannten,dem,"wertvollem,",Farbe,Packung,den,sind,bei,Blut,man,"Japan,",viel,landen,einen,auf,"üblichem,",schönen,man,mit,Kilowattstunden,sind,"trug,","nicht,",wir,Farbe,uns,die,"sämtlichem,",alten,"reichlichem,",solch,dank,schönen,viel,ich,warmem,Stadt,Bluts,ausreichendem,jetzt,"Delikte,",die,Wohnung,Packung,sprudelndes,Büschel,gelegentlich,Wohnung,bekannten,Fahrer,nicht,wurden,auf,mit,dauerhaftem,Stimmung,alten,mit,wurden,36,schmutziger,ein,ich,die,ein,obschon,bei,schmutzige,obwohl,dauerte,richtige,solchen,Büschel,man,immer,sprudelnden,Kilowattstunden,das,ich,mit,Neuwahlen,Fahrer,"regelmäßigem,",man,,,,,,,,,,,,,,,,,,,,,,,6,0,6,0,0,4,4,4,,,,,,,space,0.31795501709,,,,,2017_Jan_23_1602,61.1688321158,spr_backupper,001,Mo16,
,im,liegen,feinem,Bundespräsident.,deren,roten,seltenem,350,immer,die,leider,hätten,sauberen,von,Skandals,Mann,klassischen,geschleudert.,salziger,roten,auf,minimalem,hat,eine,die,Lärm,im,gelegentlichen,noch,harten,Wetters,eine,einem,elektrische,auf,war,was,um,geschleudert.,die,Störenfriede,künftigem,Krams,purem,unzureichenden,täglichem,Wetter,Lärm,leider,weichem,liegen,hat,monatlichem,"nachgewiesen,",derer,Störenfriede,des,salzige,Trinkwasser.,frischen,einen,des,Skandal,wurden,am,serviert.,noch,"reichem,",feinem,ziemlich,Kram,zusätzlichem,serviert.,würden,Wäsche.,Glas,mehr,Tiere,Glas,sie,"frischem,",Wäsche.,sie,ungefähr,"Zeit,",unzureichenden,frisches,der,350,Trinkwassers.,elektrischer,Auto,mehr,einem,vor,wurden,kaltem,den,,,,,,,,,,,,,,,,,,,,,,,6,0,6,0,0,5,5,5,,,,,,,space,0.309512138367,,,,,2017_Jan_23_1602,61.1688321158,spr_backupper,001,Mo16,
,Müll.,die,dichten,nan,sie,Planet,dichten,ml,ruhig,Flut,nichts,seiner,Kraftstoff,den,wiedergewählt.,mehr,Schmuck,nan,Wurst,Planeten,jeden,täglichen,den,große,er,um,Müll.,Besucher.,eine,Schaumstoff,die,große,Esslöffel,Energie.,jeden,aus,Tupperware,die,nan,Stimmung,jeden.,Einkommen,aus,Alkohol,Helmen,grünen,die,um,nichts,Untergrund,die,den,Taschengeld,dass,sie,jeden.,Herrn,Wurst,nan,Grases,Besucher.,Herrn,wiedergewählt.,verschrottet.,Hauptbahnhof.,nan,eine,goldenen,Kunsteis,"vermiest,",aus,schwarzem,nan,seiner,nan,köstlichen,als,artgerecht,köstlicher,defekt,kaltem,nan,defekt,drei,um,Helmen,Gras,Soldaten,ml,nan,Energie.,mehr,als,Esslöffel,Dezember,verschrottet.,Abduschen,Soldaten,,,,,,,,,,,,,,,,,,,,,,,6,0,6,0,0,6,6,6,,,,,,,space,0.294696807861,,,,,2017_Jan_23_1602,61.1688321158,spr_backupper,001,Mo16,
,nan,Slums.,Stoff,nan,überführt,ganz,Gewebe,warmer,diskutiert.,zurückgekehrt.,mitbringen.,Frau,fahren.,Problemen,nan,als,umgearbeitet.,nan,mit,ganz,Fall,Einsatz,Boden,Menge,trug.,jede,nan,nan,Sammlung,gefertigt.,Wohnung.,Menge,warmen,nan,Fall,Japan.,ist.,Probleme,nan,ziemlich,nan,haftbar.,dem,verdünnt.,zur,Tee,Wohnung.,jede,mitbringen.,liegen.,Slums.,Boden,selber,das,überführt,nan,Gantenbeins.,mit,nan,zwängen.,nan,Gantenbein.,nan,nan,nan,nan,Sammlung,Besatz,eingesprüht.,dass,dem,Kaffee,nan,Frau,nan,Weins,einmal,gehalten.,Wein,war.,Saft,nan,war.,Tage.,Nadelhölzer,zur,zwängen.,des,warme,nan,nan,als,einmal,warmem,stattfinden.,nan,gehärtet.,des,,,,,,,,,,,,,,,,,,,,,,,6,0,6,0,0,7,7,7,,,,,,,space,0.295178890228,,,,,2017_Jan_23_1602,61.1688321158,spr_backupper,001,Mo16,
,,,,,,,,,,,,,,,,,,,,,,,,,,,,,,,,,,,,,,,,,,,,,,,,,,,,,,,,,,,,,,,,,,,,,,,,,,,,,,,,,,,,,,,,,,,,,,,,,,,,,,,,,,,,,,,,,,,,,,,,,6,0,6,0,,,,,,,,,,,,,None,j,2.7837638855,,2017_Jan_23_1602,61.1688321158,spr_backupper,001,Mo16,
,Viele,Am,Er,Walter,Es,Im,Danach,In,Fernab,Als,Außer,Die,Wir,In,Er,Wir,Die,Es,Ich,Im,100,Ihr,Nicht,Mit,Die,Man,Viele,Wir,Sie,Alle,Sie,Mit,Er,Die,100,Die,Die,In,Es,Dass,Außer,Manche,Wir,Die,Die,Ich,Sie,Man,Außer,Jungtiere,Am,Nicht,Jugendliche,In,Es,Außer,Die,Ich,Sie,Wir,Wir,Die,Er,Die,Die,Beträchtliche,Sie,Das,Die,Es,Wir,Die,Beträchtliche,Die,Dort,Bei,In,In,Bei,Die,Sie,Dort,Die,Der,Jetzt,Die,Wir,Bei,In,Sie,Die,Wir,In,Er,Unter,Die,Die,Bei,,,,,,,,,,,,,,,,,,,,,,,7,0,7,0,0,0,0,0,,,,,,None,space,0.422086000443,,,,,2017_Jan_23_1602,61.1688321158,spr_backupper,001,Mo16,
,Tonnen,äußeren,hat,Scheel,waren,Fernrohr,wurde,den,des,die,das,Schuhe,konnten,der,wurde,übergaben,Stücke,wurden,nehme,Fernrohr,g,Blutdruck,ein,dieser,Uhr,machte,Tonnen,hatten,hatte,Betten,verlassen,dieser,stellt,Schule,g,"Uhr,",Teilnehmerinnen,der,wurden,es,dem,Kreditnehmer,haben,Lösung,Kinder,wurde,verlassen,machte,dem,sollten,äußersten,ein,können,einer,waren,den,Gäste,nehme,verbrauchen,mussten,hatten,Gäste,wurde,Autos,Linie,Stücke,hatte,Tuch,Eislaufbahnen,hat,haben,müden,Stücke,Schuhe,türmen,unserer,meinem,diesem,unserer,Uhr,haben,türmen,Uhr,Flug,ist,Kinder,mussten,der,den,verbrauchen,Schule,übergaben,meinem,stellt,keinen,Autos,Formen,der,,,,,,,,,,,,,,,,,,,,,,,7,0,7,0,0,1,1,1,,,,,,,space,0.286314964294,,,,,2017_Jan_23_1602,61.1688321158,spr_backupper,001,Mo16,
,gebrauchter,Rand,ein,war,nur,sahen,die,Kakao,Rummels,Sonne,Essen,in,dann,Tat,trotz,das,wurden,Eimer,eine,sahen,braunen,kann,Tropfen,Methode,war,mal,gebrauchte,in,keine,wurden,wegen,Methode,die,verbraucht,brauner,die,wussten,Tat,Eimer,"regnete,",Bürgermeister,sind,jede,wird,fuhren,damals,wegen,mal,Essen,immer,Rand,Tropfen,Kleidung,Studie,nur,Bürgermeister,suchen,eine,60,uns,in,suchen,trotz,beider,101,saftigen,keine,wurde,wurden,uns,jede,Teilnehmer,saftiges,in,sich,Ankunft,Studium,Zirkus,Ankunft,schlug,die,sich,schlug,zum,genau,fuhren,uns,Feier,Kakao,60,verbraucht,dem,Studium,die,Umständen,beider,wurden,Feier,,,,,,,,,,,,,,,,,,,,,,,7,0,7,0,0,2,2,2,,,,,,,space,0.276504993439,,,,,2017_Jan_23_1602,61.1688321158,spr_backupper,001,Mo16,
,Kleidung,der,Hemd,der,kleinere,wir,Leinwand,gehören,wurde,"unterging,",kann,Größe,mit,wissen,des,Auto,aus,roter,große,wir,Zuckers,schon,königliches,kann,aus,wieder,Kleidung,Dänemark,Lust,mit,des,kann,Masse,260.000,Zucker,er,überwiegend,wissen,rote,hat,beschuldigten,mit,Menge,mit,mit,schnell,dem,wieder,kann,auf,der,königlichen,bei,wurde,kleinere,beschuldigten,die,große,Liter,durch,Dänemark,die,dem,beteiligter,hält,Fleischs,Lust,dann,mit,die,Menge,wurden,Fleisch,Größe,Berge,stand,habe,werden,stand,"sporadisch,",Erlebnisse,Berge,"sporadisch,",Mond,die,mit,durch,gedachte,gehören,Liter,260.000,Mann,las,Masse,können,beteiligten,unter,gedachte,,,,,,,,,,,,,,,,,,,,,,,7,0,7,0,0,3,3,3,,,,,,,space,0.282742023468,,,,,2017_Jan_23_1602,61.1688321158,spr_backupper,001,Mo16,
,landen,Stadt,aus,vierte,"Delikte,",den,aus,immer,schon,war,ich,36,"minimalem,",wir,bekannten,dem,"wertvollem,",Farbe,Packung,den,sind,bei,Blut,man,"Japan,",viel,landen,einen,auf,"üblichem,",schönen,man,mit,Kilowattstunden,sind,"trug,","nicht,",wir,Farbe,uns,die,"sämtlichem,",alten,"reichlichem,",solch,dank,schönen,viel,ich,warmem,Stadt,Bluts,ausreichendem,jetzt,"Delikte,",die,Wohnung,Packung,sprudelndes,Büschel,gelegentlich,Wohnung,bekannten,Fahrer,nicht,wurden,auf,mit,dauerhaftem,Stimmung,alten,mit,wurden,36,schmutziger,ein,ich,die,ein,obschon,bei,schmutzige,obwohl,dauerte,richtige,solchen,Büschel,man,immer,sprudelnden,Kilowattstunden,das,ich,mit,Neuwahlen,Fahrer,"regelmäßigem,",man,,,,,,,,,,,,,,,,,,,,,,,7,0,7,0,0,4,4,4,,,,,,,space,0.268967151642,,,,,2017_Jan_23_1602,61.1688321158,spr_backupper,001,Mo16,
,im,liegen,feinem,Bundespräsident.,deren,roten,seltenem,350,immer,die,leider,hätten,sauberen,von,Skandals,Mann,klassischen,geschleudert.,salziger,roten,auf,minimalem,hat,eine,die,Lärm,im,gelegentlichen,noch,harten,Wetters,eine,einem,elektrische,auf,war,was,um,geschleudert.,die,Störenfriede,künftigem,Krams,purem,unzureichenden,täglichem,Wetter,Lärm,leider,weichem,liegen,hat,monatlichem,"nachgewiesen,",derer,Störenfriede,des,salzige,Trinkwasser.,frischen,einen,des,Skandal,wurden,am,serviert.,noch,"reichem,",feinem,ziemlich,Kram,zusätzlichem,serviert.,würden,Wäsche.,Glas,mehr,Tiere,Glas,sie,"frischem,",Wäsche.,sie,ungefähr,"Zeit,",unzureichenden,frisches,der,350,Trinkwassers.,elektrischer,Auto,mehr,einem,vor,wurden,kaltem,den,,,,,,,,,,,,,,,,,,,,,,,7,0,7,0,0,5,5,5,,,,,,,space,0.302095890045,,,,,2017_Jan_23_1602,61.1688321158,spr_backupper,001,Mo16,
,Müll.,die,dichten,nan,sie,Planet,dichten,ml,ruhig,Flut,nichts,seiner,Kraftstoff,den,wiedergewählt.,mehr,Schmuck,nan,Wurst,Planeten,jeden,täglichen,den,große,er,um,Müll.,Besucher.,eine,Schaumstoff,die,große,Esslöffel,Energie.,jeden,aus,Tupperware,die,nan,Stimmung,jeden.,Einkommen,aus,Alkohol,Helmen,grünen,die,um,nichts,Untergrund,die,den,Taschengeld,dass,sie,jeden.,Herrn,Wurst,nan,Grases,Besucher.,Herrn,wiedergewählt.,verschrottet.,Hauptbahnhof.,nan,eine,goldenen,Kunsteis,"vermiest,",aus,schwarzem,nan,seiner,nan,köstlichen,als,artgerecht,köstlicher,defekt,kaltem,nan,defekt,drei,um,Helmen,Gras,Soldaten,ml,nan,Energie.,mehr,als,Esslöffel,Dezember,verschrottet.,Abduschen,Soldaten,,,,,,,,,,,,,,,,,,,,,,,7,0,7,0,0,6,6,6,,,,,,,space,0.309708833694,,,,,2017_Jan_23_1602,61.1688321158,spr_backupper,001,Mo16,
,nan,Slums.,Stoff,nan,überführt,ganz,Gewebe,warmer,diskutiert.,zurückgekehrt.,mitbringen.,Frau,fahren.,Problemen,nan,als,umgearbeitet.,nan,mit,ganz,Fall,Einsatz,Boden,Menge,trug.,jede,nan,nan,Sammlung,gefertigt.,Wohnung.,Menge,warmen,nan,Fall,Japan.,ist.,Probleme,nan,ziemlich,nan,haftbar.,dem,verdünnt.,zur,Tee,Wohnung.,jede,mitbringen.,liegen.,Slums.,Boden,selber,das,überführt,nan,Gantenbeins.,mit,nan,zwängen.,nan,Gantenbein.,nan,nan,nan,nan,Sammlung,Besatz,eingesprüht.,dass,dem,Kaffee,nan,Frau,nan,Weins,einmal,gehalten.,Wein,war.,Saft,nan,war.,Tage.,Nadelhölzer,zur,zwängen.,des,warme,nan,nan,als,einmal,warmem,stattfinden.,nan,gehärtet.,des,,,,,,,,,,,,,,,,,,,,,,,7,0,7,0,0,7,7,7,,,,,,,space,0.352614164352,,,,,2017_Jan_23_1602,61.1688321158,spr_backupper,001,Mo16,
,nan,nan,gefertigt.,nan,wurden.,deutlich.,wiederhergestellt.,Milch.,nan,nan,nan,gepasst.,nan,im,nan,gerne.,nan,nan,an,deutlich.,genug.,sinken.,berührt.,dunkler,nan,Menge,nan,nan,dumme,nan,nan,dunkle,Honigs,nan,genug.,nan,nan,im,nan,vermiest.,nan,nan,Haus,nan,Schule.,wieder,nan,Menge,nan,nan,nan,berührt.,kaufen.,Medikament,wurden.,nan,nan,an,nan,nan,nan,nan,nan,nan,nan,nan,dummer,rekonstruiert.,nan,es,Haus,wiederbelebt.,nan,gepasst,nan,schon,Rilke,nan,schon,nan,besprochen.,nan,nan,nan,umzusetzen.,Schule.,nan,zweiten,Milch.,nan,nan,gerne.,Rilke.,Honig,nan,nan,nan,zweiten,,,,,,,,,,,,,,,,,,,,,,,7,0,7,0,0,8,8,8,,,,,,,space,0.344388008118,,,,,2017_Jan_23_1602,61.1688321158,spr_backupper,001,Mo16,
,,,,,,,,,,,,,,,,,,,,,,,,,,,,,,,,,,,,,,,,,,,,,,,,,,,,,,,,,,,,,,,,,,,,,,,,,,,,,,,,,,,,,,,,,,,,,,,,,,,,,,,,,,,,,,,,,,,,,,,,,7,0,7,0,,,,,,,,,,,,,None,n,2.47193598747,,2017_Jan_23_1602,61.1688321158,spr_backupper,001,Mo16,
,Viele,Am,Er,Walter,Es,Im,Danach,In,Fernab,Als,Außer,Die,Wir,In,Er,Wir,Die,Es,Ich,Im,100,Ihr,Nicht,Mit,Die,Man,Viele,Wir,Sie,Alle,Sie,Mit,Er,Die,100,Die,Die,In,Es,Dass,Außer,Manche,Wir,Die,Die,Ich,Sie,Man,Außer,Jungtiere,Am,Nicht,Jugendliche,In,Es,Außer,Die,Ich,Sie,Wir,Wir,Die,Er,Die,Die,Beträchtliche,Sie,Das,Die,Es,Wir,Die,Beträchtliche,Die,Dort,Bei,In,In,Bei,Die,Sie,Dort,Die,Der,Jetzt,Die,Wir,Bei,In,Sie,Die,Wir,In,Er,Unter,Die,Die,Bei,,,,,,,,,,,,,,,,,,,,,,,8,0,8,0,0,0,0,0,,,,,,None,space,0.619609832764,,,,,2017_Jan_23_1602,61.1688321158,spr_backupper,001,Mo16,
,Tonnen,äußeren,hat,Scheel,waren,Fernrohr,wurde,den,des,die,das,Schuhe,konnten,der,wurde,übergaben,Stücke,wurden,nehme,Fernrohr,g,Blutdruck,ein,dieser,Uhr,machte,Tonnen,hatten,hatte,Betten,verlassen,dieser,stellt,Schule,g,"Uhr,",Teilnehmerinnen,der,wurden,es,dem,Kreditnehmer,haben,Lösung,Kinder,wurde,verlassen,machte,dem,sollten,äußersten,ein,können,einer,waren,den,Gäste,nehme,verbrauchen,mussten,hatten,Gäste,wurde,Autos,Linie,Stücke,hatte,Tuch,Eislaufbahnen,hat,haben,müden,Stücke,Schuhe,türmen,unserer,meinem,diesem,unserer,Uhr,haben,türmen,Uhr,Flug,ist,Kinder,mussten,der,den,verbrauchen,Schule,übergaben,meinem,stellt,keinen,Autos,Formen,der,,,,,,,,,,,,,,,,,,,,,,,8,0,8,0,0,1,1,1,,,,,,,space,0.395947933197,,,,,2017_Jan_23_1602,61.1688321158,spr_backupper,001,Mo16,
,gebrauchter,Rand,ein,war,nur,sahen,die,Kakao,Rummels,Sonne,Essen,in,dann,Tat,trotz,das,wurden,Eimer,eine,sahen,braunen,kann,Tropfen,Methode,war,mal,gebrauchte,in,keine,wurden,wegen,Methode,die,verbraucht,brauner,die,wussten,Tat,Eimer,"regnete,",Bürgermeister,sind,jede,wird,fuhren,damals,wegen,mal,Essen,immer,Rand,Tropfen,Kleidung,Studie,nur,Bürgermeister,suchen,eine,60,uns,in,suchen,trotz,beider,101,saftigen,keine,wurde,wurden,uns,jede,Teilnehmer,saftiges,in,sich,Ankunft,Studium,Zirkus,Ankunft,schlug,die,sich,schlug,zum,genau,fuhren,uns,Feier,Kakao,60,verbraucht,dem,Studium,die,Umständen,beider,wurden,Feier,,,,,,,,,,,,,,,,,,,,,,,8,0,8,0,0,2,2,2,,,,,,,space,0.359844207764,,,,,2017_Jan_23_1602,61.1688321158,spr_backupper,001,Mo16,
,Kleidung,der,Hemd,der,kleinere,wir,Leinwand,gehören,wurde,"unterging,",kann,Größe,mit,wissen,des,Auto,aus,roter,große,wir,Zuckers,schon,königliches,kann,aus,wieder,Kleidung,Dänemark,Lust,mit,des,kann,Masse,260.000,Zucker,er,überwiegend,wissen,rote,hat,beschuldigten,mit,Menge,mit,mit,schnell,dem,wieder,kann,auf,der,königlichen,bei,wurde,kleinere,beschuldigten,die,große,Liter,durch,Dänemark,die,dem,beteiligter,hält,Fleischs,Lust,dann,mit,die,Menge,wurden,Fleisch,Größe,Berge,stand,habe,werden,stand,"sporadisch,",Erlebnisse,Berge,"sporadisch,",Mond,die,mit,durch,gedachte,gehören,Liter,260.000,Mann,las,Masse,können,beteiligten,unter,gedachte,,,,,,,,,,,,,,,,,,,,,,,8,0,8,0,0,3,3,3,,,,,,,space,0.335076093674,,,,,2017_Jan_23_1602,61.1688321158,spr_backupper,001,Mo16,
,landen,Stadt,aus,vierte,"Delikte,",den,aus,immer,schon,war,ich,36,"minimalem,",wir,bekannten,dem,"wertvollem,",Farbe,Packung,den,sind,bei,Blut,man,"Japan,",viel,landen,einen,auf,"üblichem,",schönen,man,mit,Kilowattstunden,sind,"trug,","nicht,",wir,Farbe,uns,die,"sämtlichem,",alten,"reichlichem,",solch,dank,schönen,viel,ich,warmem,Stadt,Bluts,ausreichendem,jetzt,"Delikte,",die,Wohnung,Packung,sprudelndes,Büschel,gelegentlich,Wohnung,bekannten,Fahrer,nicht,wurden,auf,mit,dauerhaftem,Stimmung,alten,mit,wurden,36,schmutziger,ein,ich,die,ein,obschon,bei,schmutzige,obwohl,dauerte,richtige,solchen,Büschel,man,immer,sprudelnden,Kilowattstunden,das,ich,mit,Neuwahlen,Fahrer,"regelmäßigem,",man,,,,,,,,,,,,,,,,,,,,,,,8,0,8,0,0,4,4,4,,,,,,,space,0.36905503273,,,,,2017_Jan_23_1602,61.1688321158,spr_backupper,001,Mo16,
,im,liegen,feinem,Bundespräsident.,deren,roten,seltenem,350,immer,die,leider,hätten,sauberen,von,Skandals,Mann,klassischen,geschleudert.,salziger,roten,auf,minimalem,hat,eine,die,Lärm,im,gelegentlichen,noch,harten,Wetters,eine,einem,elektrische,auf,war,was,um,geschleudert.,die,Störenfriede,künftigem,Krams,purem,unzureichenden,täglichem,Wetter,Lärm,leider,weichem,liegen,hat,monatlichem,"nachgewiesen,",derer,Störenfriede,des,salzige,Trinkwasser.,frischen,einen,des,Skandal,wurden,am,serviert.,noch,"reichem,",feinem,ziemlich,Kram,zusätzlichem,serviert.,würden,Wäsche.,Glas,mehr,Tiere,Glas,sie,"frischem,",Wäsche.,sie,ungefähr,"Zeit,",unzureichenden,frisches,der,350,Trinkwassers.,elektrischer,Auto,mehr,einem,vor,wurden,kaltem,den,,,,,,,,,,,,,,,,,,,,,,,8,0,8,0,0,5,5,5,,,,,,,space,0.386703014374,,,,,2017_Jan_23_1602,61.1688321158,spr_backupper,001,Mo16,
,Müll.,die,dichten,nan,sie,Planet,dichten,ml,ruhig,Flut,nichts,seiner,Kraftstoff,den,wiedergewählt.,mehr,Schmuck,nan,Wurst,Planeten,jeden,täglichen,den,große,er,um,Müll.,Besucher.,eine,Schaumstoff,die,große,Esslöffel,Energie.,jeden,aus,Tupperware,die,nan,Stimmung,jeden.,Einkommen,aus,Alkohol,Helmen,grünen,die,um,nichts,Untergrund,die,den,Taschengeld,dass,sie,jeden.,Herrn,Wurst,nan,Grases,Besucher.,Herrn,wiedergewählt.,verschrottet.,Hauptbahnhof.,nan,eine,goldenen,Kunsteis,"vermiest,",aus,schwarzem,nan,seiner,nan,köstlichen,als,artgerecht,köstlicher,defekt,kaltem,nan,defekt,drei,um,Helmen,Gras,Soldaten,ml,nan,Energie.,mehr,als,Esslöffel,Dezember,verschrottet.,Abduschen,Soldaten,,,,,,,,,,,,,,,,,,,,,,,8,0,8,0,0,6,6,6,,,,,,,space,0.30894112587,,,,,2017_Jan_23_1602,61.1688321158,spr_backupper,001,Mo16,
,nan,Slums.,Stoff,nan,überführt,ganz,Gewebe,warmer,diskutiert.,zurückgekehrt.,mitbringen.,Frau,fahren.,Problemen,nan,als,umgearbeitet.,nan,mit,ganz,Fall,Einsatz,Boden,Menge,trug.,jede,nan,nan,Sammlung,gefertigt.,Wohnung.,Menge,warmen,nan,Fall,Japan.,ist.,Probleme,nan,ziemlich,nan,haftbar.,dem,verdünnt.,zur,Tee,Wohnung.,jede,mitbringen.,liegen.,Slums.,Boden,selber,das,überführt,nan,Gantenbeins.,mit,nan,zwängen.,nan,Gantenbein.,nan,nan,nan,nan,Sammlung,Besatz,eingesprüht.,dass,dem,Kaffee,nan,Frau,nan,Weins,einmal,gehalten.,Wein,war.,Saft,nan,war.,Tage.,Nadelhölzer,zur,zwängen.,des,warme,nan,nan,als,einmal,warmem,stattfinden.,nan,gehärtet.,des,,,,,,,,,,,,,,,,,,,,,,,8,0,8,0,0,7,7,7,,,,,,,space,0.324120044708,,,,,2017_Jan_23_1602,61.1688321158,spr_backupper,001,Mo16,
,,,,,,,,,,,,,,,,,,,,,,,,,,,,,,,,,,,,,,,,,,,,,,,,,,,,,,,,,,,,,,,,,,,,,,,,,,,,,,,,,,,,,,,,,,,,,,,,,,,,,,,,,,,,,,,,,,,,,,,,,8,0,8,0,,,,,,,,,,,,,None,n,1.77880311012,,2017_Jan_23_1602,61.1688321158,spr_backupper,001,Mo16,
,Viele,Am,Er,Walter,Es,Im,Danach,In,Fernab,Als,Außer,Die,Wir,In,Er,Wir,Die,Es,Ich,Im,100,Ihr,Nicht,Mit,Die,Man,Viele,Wir,Sie,Alle,Sie,Mit,Er,Die,100,Die,Die,In,Es,Dass,Außer,Manche,Wir,Die,Die,Ich,Sie,Man,Außer,Jungtiere,Am,Nicht,Jugendliche,In,Es,Außer,Die,Ich,Sie,Wir,Wir,Die,Er,Die,Die,Beträchtliche,Sie,Das,Die,Es,Wir,Die,Beträchtliche,Die,Dort,Bei,In,In,Bei,Die,Sie,Dort,Die,Der,Jetzt,Die,Wir,Bei,In,Sie,Die,Wir,In,Er,Unter,Die,Die,Bei,,,,,,,,,,,,,,,,,,,,,,,9,0,9,0,0,0,0,0,,,,,,None,space,0.419411897659,,,,,2017_Jan_23_1602,61.1688321158,spr_backupper,001,Mo16,
,Tonnen,äußeren,hat,Scheel,waren,Fernrohr,wurde,den,des,die,das,Schuhe,konnten,der,wurde,übergaben,Stücke,wurden,nehme,Fernrohr,g,Blutdruck,ein,dieser,Uhr,machte,Tonnen,hatten,hatte,Betten,verlassen,dieser,stellt,Schule,g,"Uhr,",Teilnehmerinnen,der,wurden,es,dem,Kreditnehmer,haben,Lösung,Kinder,wurde,verlassen,machte,dem,sollten,äußersten,ein,können,einer,waren,den,Gäste,nehme,verbrauchen,mussten,hatten,Gäste,wurde,Autos,Linie,Stücke,hatte,Tuch,Eislaufbahnen,hat,haben,müden,Stücke,Schuhe,türmen,unserer,meinem,diesem,unserer,Uhr,haben,türmen,Uhr,Flug,ist,Kinder,mussten,der,den,verbrauchen,Schule,übergaben,meinem,stellt,keinen,Autos,Formen,der,,,,,,,,,,,,,,,,,,,,,,,9,0,9,0,0,1,1,1,,,,,,,space,0.382702112198,,,,,2017_Jan_23_1602,61.1688321158,spr_backupper,001,Mo16,
,gebrauchter,Rand,ein,war,nur,sahen,die,Kakao,Rummels,Sonne,Essen,in,dann,Tat,trotz,das,wurden,Eimer,eine,sahen,braunen,kann,Tropfen,Methode,war,mal,gebrauchte,in,keine,wurden,wegen,Methode,die,verbraucht,brauner,die,wussten,Tat,Eimer,"regnete,",Bürgermeister,sind,jede,wird,fuhren,damals,wegen,mal,Essen,immer,Rand,Tropfen,Kleidung,Studie,nur,Bürgermeister,suchen,eine,60,uns,in,suchen,trotz,beider,101,saftigen,keine,wurde,wurden,uns,jede,Teilnehmer,saftiges,in,sich,Ankunft,Studium,Zirkus,Ankunft,schlug,die,sich,schlug,zum,genau,fuhren,uns,Feier,Kakao,60,verbraucht,dem,Studium,die,Umständen,beider,wurden,Feier,,,,,,,,,,,,,,,,,,,,,,,9,0,9,0,0,2,2,2,,,,,,,space,0.319170951843,,,,,2017_Jan_23_1602,61.1688321158,spr_backupper,001,Mo16,
,Kleidung,der,Hemd,der,kleinere,wir,Leinwand,gehören,wurde,"unterging,",kann,Größe,mit,wissen,des,Auto,aus,roter,große,wir,Zuckers,schon,königliches,kann,aus,wieder,Kleidung,Dänemark,Lust,mit,des,kann,Masse,260.000,Zucker,er,überwiegend,wissen,rote,hat,beschuldigten,mit,Menge,mit,mit,schnell,dem,wieder,kann,auf,der,königlichen,bei,wurde,kleinere,beschuldigten,die,große,Liter,durch,Dänemark,die,dem,beteiligter,hält,Fleischs,Lust,dann,mit,die,Menge,wurden,Fleisch,Größe,Berge,stand,habe,werden,stand,"sporadisch,",Erlebnisse,Berge,"sporadisch,",Mond,die,mit,durch,gedachte,gehören,Liter,260.000,Mann,las,Masse,können,beteiligten,unter,gedachte,,,,,,,,,,,,,,,,,,,,,,,9,0,9,0,0,3,3,3,,,,,,,space,0.35085606575,,,,,2017_Jan_23_1602,61.1688321158,spr_backupper,001,Mo16,
,landen,Stadt,aus,vierte,"Delikte,",den,aus,immer,schon,war,ich,36,"minimalem,",wir,bekannten,dem,"wertvollem,",Farbe,Packung,den,sind,bei,Blut,man,"Japan,",viel,landen,einen,auf,"üblichem,",schönen,man,mit,Kilowattstunden,sind,"trug,","nicht,",wir,Farbe,uns,die,"sämtlichem,",alten,"reichlichem,",solch,dank,schönen,viel,ich,warmem,Stadt,Bluts,ausreichendem,jetzt,"Delikte,",die,Wohnung,Packung,sprudelndes,Büschel,gelegentlich,Wohnung,bekannten,Fahrer,nicht,wurden,auf,mit,dauerhaftem,Stimmung,alten,mit,wurden,36,schmutziger,ein,ich,die,ein,obschon,bei,schmutzige,obwohl,dauerte,richtige,solchen,Büschel,man,immer,sprudelnden,Kilowattstunden,das,ich,mit,Neuwahlen,Fahrer,"regelmäßigem,",man,,,,,,,,,,,,,,,,,,,,,,,9,0,9,0,0,4,4,4,,,,,,,space,0.351996183395,,,,,2017_Jan_23_1602,61.1688321158,spr_backupper,001,Mo16,
,im,liegen,feinem,Bundespräsident.,deren,roten,seltenem,350,immer,die,leider,hätten,sauberen,von,Skandals,Mann,klassischen,geschleudert.,salziger,roten,auf,minimalem,hat,eine,die,Lärm,im,gelegentlichen,noch,harten,Wetters,eine,einem,elektrische,auf,war,was,um,geschleudert.,die,Störenfriede,künftigem,Krams,purem,unzureichenden,täglichem,Wetter,Lärm,leider,weichem,liegen,hat,monatlichem,"nachgewiesen,",derer,Störenfriede,des,salzige,Trinkwasser.,frischen,einen,des,Skandal,wurden,am,serviert.,noch,"reichem,",feinem,ziemlich,Kram,zusätzlichem,serviert.,würden,Wäsche.,Glas,mehr,Tiere,Glas,sie,"frischem,",Wäsche.,sie,ungefähr,"Zeit,",unzureichenden,frisches,der,350,Trinkwassers.,elektrischer,Auto,mehr,einem,vor,wurden,kaltem,den,,,,,,,,,,,,,,,,,,,,,,,9,0,9,0,0,5,5,5,,,,,,,space,0.336706876755,,,,,2017_Jan_23_1602,61.1688321158,spr_backupper,001,Mo16,
,Müll.,die,dichten,nan,sie,Planet,dichten,ml,ruhig,Flut,nichts,seiner,Kraftstoff,den,wiedergewählt.,mehr,Schmuck,nan,Wurst,Planeten,jeden,täglichen,den,große,er,um,Müll.,Besucher.,eine,Schaumstoff,die,große,Esslöffel,Energie.,jeden,aus,Tupperware,die,nan,Stimmung,jeden.,Einkommen,aus,Alkohol,Helmen,grünen,die,um,nichts,Untergrund,die,den,Taschengeld,dass,sie,jeden.,Herrn,Wurst,nan,Grases,Besucher.,Herrn,wiedergewählt.,verschrottet.,Hauptbahnhof.,nan,eine,goldenen,Kunsteis,"vermiest,",aus,schwarzem,nan,seiner,nan,köstlichen,als,artgerecht,köstlicher,defekt,kaltem,nan,defekt,drei,um,Helmen,Gras,Soldaten,ml,nan,Energie.,mehr,als,Esslöffel,Dezember,verschrottet.,Abduschen,Soldaten,,,,,,,,,,,,,,,,,,,,,,,9,0,9,0,0,6,6,6,,,,,,,space,0.371408939362,,,,,2017_Jan_23_1602,61.1688321158,spr_backupper,001,Mo16,
,nan,Slums.,Stoff,nan,überführt,ganz,Gewebe,warmer,diskutiert.,zurückgekehrt.,mitbringen.,Frau,fahren.,Problemen,nan,als,umgearbeitet.,nan,mit,ganz,Fall,Einsatz,Boden,Menge,trug.,jede,nan,nan,Sammlung,gefertigt.,Wohnung.,Menge,warmen,nan,Fall,Japan.,ist.,Probleme,nan,ziemlich,nan,haftbar.,dem,verdünnt.,zur,Tee,Wohnung.,jede,mitbringen.,liegen.,Slums.,Boden,selber,das,überführt,nan,Gantenbeins.,mit,nan,zwängen.,nan,Gantenbein.,nan,nan,nan,nan,Sammlung,Besatz,eingesprüht.,dass,dem,Kaffee,nan,Frau,nan,Weins,einmal,gehalten.,Wein,war.,Saft,nan,war.,Tage.,Nadelhölzer,zur,zwängen.,des,warme,nan,nan,als,einmal,warmem,stattfinden.,nan,gehärtet.,des,,,,,,,,,,,,,,,,,,,,,,,9,0,9,0,0,7,7,7,,,,,,,space,0.350311994553,,,,,2017_Jan_23_1602,61.1688321158,spr_backupper,001,Mo16,
,nan,nan,gefertigt.,nan,wurden.,deutlich.,wiederhergestellt.,Milch.,nan,nan,nan,gepasst.,nan,im,nan,gerne.,nan,nan,an,deutlich.,genug.,sinken.,berührt.,dunkler,nan,Menge,nan,nan,dumme,nan,nan,dunkle,Honigs,nan,genug.,nan,nan,im,nan,vermiest.,nan,nan,Haus,nan,Schule.,wieder,nan,Menge,nan,nan,nan,berührt.,kaufen.,Medikament,wurden.,nan,nan,an,nan,nan,nan,nan,nan,nan,nan,nan,dummer,rekonstruiert.,nan,es,Haus,wiederbelebt.,nan,gepasst,nan,schon,Rilke,nan,schon,nan,besprochen.,nan,nan,nan,umzusetzen.,Schule.,nan,zweiten,Milch.,nan,nan,gerne.,Rilke.,Honig,nan,nan,nan,zweiten,,,,,,,,,,,,,,,,,,,,,,,9,0,9,0,0,8,8,8,,,,,,,space,0.322996854782,,,,,2017_Jan_23_1602,61.1688321158,spr_backupper,001,Mo16,
,nan,nan,nan,nan,nan,nan,nan,nan,nan,nan,nan,nan,nan,Landkreis.,nan,nan,nan,nan,den,nan,nan,nan,nan,Materie,nan,heiße,nan,nan,Sprüche.,nan,nan,Materie,her.,nan,nan,nan,nan,Landkreis.,nan,nan,nan,nan,geschafft.,nan,nan,fit.,nan,heißer,nan,nan,nan,nan,nan,nicht,nan,nan,nan,den,nan,nan,nan,nan,nan,nan,nan,nan,Sprüche.,nan,nan,regnete.,geschafft.,nan,nan,haben.,nan,auf,gelesen.,nan,auf,nan,nan,nan,nan,nan,nan,nan,nan,Weltkriegs.,nan,nan,nan,nan,nan,her.,nan,nan,nan,Weltkriegs.,,,,,,,,,,,,,,,,,,,,,,,9,0,9,0,0,9,9,9,,,,,,,space,0.341549873352,,,,,2017_Jan_23_1602,61.1688321158,spr_backupper,001,Mo16,
,nan,nan,nan,nan,nan,nan,nan,nan,nan,nan,nan,nan,nan,nan,nan,nan,nan,nan,See.,nan,nan,nan,nan,erzeugen.,nan,Luft.,nan,nan,nan,nan,nan,erzeugen.,nan,nan,nan,nan,nan,nan,nan,nan,nan,nan,nan,nan,nan,nan,nan,Luft.,nan,nan,nan,nan,nan,wirkt.,nan,nan,nan,See.,nan,nan,nan,nan,nan,nan,nan,nan,nan,nan,nan,nan,nan,nan,nan,nan,nan,dem,nan,nan,dem,nan,nan,nan,nan,nan,nan,nan,nan,nan,nan,nan,nan,nan,nan,nan,nan,nan,nan,nan,,,,,,,,,,,,,,,,,,,,,,,9,0,9,0,0,10,10,10,,,,,,,space,0.369830131531,,,,,2017_Jan_23_1602,61.1688321158,spr_backupper,001,Mo16,
,,,,,,,,,,,,,,,,,,,,,,,,,,,,,,,,,,,,,,,,,,,,,,,,,,,,,,,,,,,,,,,,,,,,,,,,,,,,,,,,,,,,,,,,,,,,,,,,,,,,,,,,,,,,,,,,,,,,,,,,,9,0,9,0,,,,,,,,,,,,,None,j,9.13157606125,,2017_Jan_23_1602,61.1688321158,spr_backupper,001,Mo16,
,Viele,Am,Er,Walter,Es,Im,Danach,In,Fernab,Als,Außer,Die,Wir,In,Er,Wir,Die,Es,Ich,Im,100,Ihr,Nicht,Mit,Die,Man,Viele,Wir,Sie,Alle,Sie,Mit,Er,Die,100,Die,Die,In,Es,Dass,Außer,Manche,Wir,Die,Die,Ich,Sie,Man,Außer,Jungtiere,Am,Nicht,Jugendliche,In,Es,Außer,Die,Ich,Sie,Wir,Wir,Die,Er,Die,Die,Beträchtliche,Sie,Das,Die,Es,Wir,Die,Beträchtliche,Die,Dort,Bei,In,In,Bei,Die,Sie,Dort,Die,Der,Jetzt,Die,Wir,Bei,In,Sie,Die,Wir,In,Er,Unter,Die,Die,Bei,,,,,,,,,,,,,,,,,,,,,,,10,0,10,0,0,0,0,0,,,,,,None,space,1.04109787941,,,,,2017_Jan_23_1602,61.1688321158,spr_backupper,001,Mo16,
,Tonnen,äußeren,hat,Scheel,waren,Fernrohr,wurde,den,des,die,das,Schuhe,konnten,der,wurde,übergaben,Stücke,wurden,nehme,Fernrohr,g,Blutdruck,ein,dieser,Uhr,machte,Tonnen,hatten,hatte,Betten,verlassen,dieser,stellt,Schule,g,"Uhr,",Teilnehmerinnen,der,wurden,es,dem,Kreditnehmer,haben,Lösung,Kinder,wurde,verlassen,machte,dem,sollten,äußersten,ein,können,einer,waren,den,Gäste,nehme,verbrauchen,mussten,hatten,Gäste,wurde,Autos,Linie,Stücke,hatte,Tuch,Eislaufbahnen,hat,haben,müden,Stücke,Schuhe,türmen,unserer,meinem,diesem,unserer,Uhr,haben,türmen,Uhr,Flug,ist,Kinder,mussten,der,den,verbrauchen,Schule,übergaben,meinem,stellt,keinen,Autos,Formen,der,,,,,,,,,,,,,,,,,,,,,,,10,0,10,0,0,1,1,1,,,,,,,space,0.309862852097,,,,,2017_Jan_23_1602,61.1688321158,spr_backupper,001,Mo16,
,gebrauchter,Rand,ein,war,nur,sahen,die,Kakao,Rummels,Sonne,Essen,in,dann,Tat,trotz,das,wurden,Eimer,eine,sahen,braunen,kann,Tropfen,Methode,war,mal,gebrauchte,in,keine,wurden,wegen,Methode,die,verbraucht,brauner,die,wussten,Tat,Eimer,"regnete,",Bürgermeister,sind,jede,wird,fuhren,damals,wegen,mal,Essen,immer,Rand,Tropfen,Kleidung,Studie,nur,Bürgermeister,suchen,eine,60,uns,in,suchen,trotz,beider,101,saftigen,keine,wurde,wurden,uns,jede,Teilnehmer,saftiges,in,sich,Ankunft,Studium,Zirkus,Ankunft,schlug,die,sich,schlug,zum,genau,fuhren,uns,Feier,Kakao,60,verbraucht,dem,Studium,die,Umständen,beider,wurden,Feier,,,,,,,,,,,,,,,,,,,,,,,10,0,10,0,0,2,2,2,,,,,,,space,0.31828212738,,,,,2017_Jan_23_1602,61.1688321158,spr_backupper,001,Mo16,
,Kleidung,der,Hemd,der,kleinere,wir,Leinwand,gehören,wurde,"unterging,",kann,Größe,mit,wissen,des,Auto,aus,roter,große,wir,Zuckers,schon,königliches,kann,aus,wieder,Kleidung,Dänemark,Lust,mit,des,kann,Masse,260.000,Zucker,er,überwiegend,wissen,rote,hat,beschuldigten,mit,Menge,mit,mit,schnell,dem,wieder,kann,auf,der,königlichen,bei,wurde,kleinere,beschuldigten,die,große,Liter,durch,Dänemark,die,dem,beteiligter,hält,Fleischs,Lust,dann,mit,die,Menge,wurden,Fleisch,Größe,Berge,stand,habe,werden,stand,"sporadisch,",Erlebnisse,Berge,"sporadisch,",Mond,die,mit,durch,gedachte,gehören,Liter,260.000,Mann,las,Masse,können,beteiligten,unter,gedachte,,,,,,,,,,,,,,,,,,,,,,,10,0,10,0,0,3,3,3,,,,,,,space,0.302843093872,,,,,2017_Jan_23_1602,61.1688321158,spr_backupper,001,Mo16,
,landen,Stadt,aus,vierte,"Delikte,",den,aus,immer,schon,war,ich,36,"minimalem,",wir,bekannten,dem,"wertvollem,",Farbe,Packung,den,sind,bei,Blut,man,"Japan,",viel,landen,einen,auf,"üblichem,",schönen,man,mit,Kilowattstunden,sind,"trug,","nicht,",wir,Farbe,uns,die,"sämtlichem,",alten,"reichlichem,",solch,dank,schönen,viel,ich,warmem,Stadt,Bluts,ausreichendem,jetzt,"Delikte,",die,Wohnung,Packung,sprudelndes,Büschel,gelegentlich,Wohnung,bekannten,Fahrer,nicht,wurden,auf,mit,dauerhaftem,Stimmung,alten,mit,wurden,36,schmutziger,ein,ich,die,ein,obschon,bei,schmutzige,obwohl,dauerte,richtige,solchen,Büschel,man,immer,sprudelnden,Kilowattstunden,das,ich,mit,Neuwahlen,Fahrer,"regelmäßigem,",man,,,,,,,,,,,,,,,,,,,,,,,10,0,10,0,0,4,4,4,,,,,,,space,0.392996072769,,,,,2017_Jan_23_1602,61.1688321158,spr_backupper,001,Mo16,
,im,liegen,feinem,Bundespräsident.,deren,roten,seltenem,350,immer,die,leider,hätten,sauberen,von,Skandals,Mann,klassischen,geschleudert.,salziger,roten,auf,minimalem,hat,eine,die,Lärm,im,gelegentlichen,noch,harten,Wetters,eine,einem,elektrische,auf,war,was,um,geschleudert.,die,Störenfriede,künftigem,Krams,purem,unzureichenden,täglichem,Wetter,Lärm,leider,weichem,liegen,hat,monatlichem,"nachgewiesen,",derer,Störenfriede,des,salzige,Trinkwasser.,frischen,einen,des,Skandal,wurden,am,serviert.,noch,"reichem,",feinem,ziemlich,Kram,zusätzlichem,serviert.,würden,Wäsche.,Glas,mehr,Tiere,Glas,sie,"frischem,",Wäsche.,sie,ungefähr,"Zeit,",unzureichenden,frisches,der,350,Trinkwassers.,elektrischer,Auto,mehr,einem,vor,wurden,kaltem,den,,,,,,,,,,,,,,,,,,,,,,,10,0,10,0,0,5,5,5,,,,,,,space,0.368942022324,,,,,2017_Jan_23_1602,61.1688321158,spr_backupper,001,Mo16,
,Müll.,die,dichten,nan,sie,Planet,dichten,ml,ruhig,Flut,nichts,seiner,Kraftstoff,den,wiedergewählt.,mehr,Schmuck,nan,Wurst,Planeten,jeden,täglichen,den,große,er,um,Müll.,Besucher.,eine,Schaumstoff,die,große,Esslöffel,Energie.,jeden,aus,Tupperware,die,nan,Stimmung,jeden.,Einkommen,aus,Alkohol,Helmen,grünen,die,um,nichts,Untergrund,die,den,Taschengeld,dass,sie,jeden.,Herrn,Wurst,nan,Grases,Besucher.,Herrn,wiedergewählt.,verschrottet.,Hauptbahnhof.,nan,eine,goldenen,Kunsteis,"vermiest,",aus,schwarzem,nan,seiner,nan,köstlichen,als,artgerecht,köstlicher,defekt,kaltem,nan,defekt,drei,um,Helmen,Gras,Soldaten,ml,nan,Energie.,mehr,als,Esslöffel,Dezember,verschrottet.,Abduschen,Soldaten,,,,,,,,,,,,,,,,,,,,,,,10,0,10,0,0,6,6,6,,,,,,,space,0.318711042404,,,,,2017_Jan_23_1602,61.1688321158,spr_backupper,001,Mo16,
,nan,Slums.,Stoff,nan,überführt,ganz,Gewebe,warmer,diskutiert.,zurückgekehrt.,mitbringen.,Frau,fahren.,Problemen,nan,als,umgearbeitet.,nan,mit,ganz,Fall,Einsatz,Boden,Menge,trug.,jede,nan,nan,Sammlung,gefertigt.,Wohnung.,Menge,warmen,nan,Fall,Japan.,ist.,Probleme,nan,ziemlich,nan,haftbar.,dem,verdünnt.,zur,Tee,Wohnung.,jede,mitbringen.,liegen.,Slums.,Boden,selber,das,überführt,nan,Gantenbeins.,mit,nan,zwängen.,nan,Gantenbein.,nan,nan,nan,nan,Sammlung,Besatz,eingesprüht.,dass,dem,Kaffee,nan,Frau,nan,Weins,einmal,gehalten.,Wein,war.,Saft,nan,war.,Tage.,Nadelhölzer,zur,zwängen.,des,warme,nan,nan,als,einmal,warmem,stattfinden.,nan,gehärtet.,des,,,,,,,,,,,,,,,,,,,,,,,10,0,10,0,0,7,7,7,,,,,,,space,0.331942081451,,,,,2017_Jan_23_1602,61.1688321158,spr_backupper,001,Mo16,
,nan,nan,gefertigt.,nan,wurden.,deutlich.,wiederhergestellt.,Milch.,nan,nan,nan,gepasst.,nan,im,nan,gerne.,nan,nan,an,deutlich.,genug.,sinken.,berührt.,dunkler,nan,Menge,nan,nan,dumme,nan,nan,dunkle,Honigs,nan,genug.,nan,nan,im,nan,vermiest.,nan,nan,Haus,nan,Schule.,wieder,nan,Menge,nan,nan,nan,berührt.,kaufen.,Medikament,wurden.,nan,nan,an,nan,nan,nan,nan,nan,nan,nan,nan,dummer,rekonstruiert.,nan,es,Haus,wiederbelebt.,nan,gepasst,nan,schon,Rilke,nan,schon,nan,besprochen.,nan,nan,nan,umzusetzen.,Schule.,nan,zweiten,Milch.,nan,nan,gerne.,Rilke.,Honig,nan,nan,nan,zweiten,,,,,,,,,,,,,,,,,,,,,,,10,0,10,0,0,8,8,8,,,,,,,space,0.368273973465,,,,,2017_Jan_23_1602,61.1688321158,spr_backupper,001,Mo16,
,,,,,,,,,,,,,,,,,,,,,,,,,,,,,,,,,,,,,,,,,,,,,,,,,,,,,,,,,,,,,,,,,,,,,,,,,,,,,,,,,,,,,,,,,,,,,,,,,,,,,,,,,,,,,,,,,,,,,,,,,10,0,10,0,,,,,,,,,,,,,None,n,2.21340608597,,2017_Jan_23_1602,61.1688321158,spr_backupper,001,Mo16,
,Viele,Am,Er,Walter,Es,Im,Danach,In,Fernab,Als,Außer,Die,Wir,In,Er,Wir,Die,Es,Ich,Im,100,Ihr,Nicht,Mit,Die,Man,Viele,Wir,Sie,Alle,Sie,Mit,Er,Die,100,Die,Die,In,Es,Dass,Außer,Manche,Wir,Die,Die,Ich,Sie,Man,Außer,Jungtiere,Am,Nicht,Jugendliche,In,Es,Außer,Die,Ich,Sie,Wir,Wir,Die,Er,Die,Die,Beträchtliche,Sie,Das,Die,Es,Wir,Die,Beträchtliche,Die,Dort,Bei,In,In,Bei,Die,Sie,Dort,Die,Der,Jetzt,Die,Wir,Bei,In,Sie,Die,Wir,In,Er,Unter,Die,Die,Bei,,,,,,,,,,,,,,,,,,,,,,,11,0,11,0,0,0,0,0,,,,,,None,space,0.355203151703,,,,,2017_Jan_23_1602,61.1688321158,spr_backupper,001,Mo16,
,Tonnen,äußeren,hat,Scheel,waren,Fernrohr,wurde,den,des,die,das,Schuhe,konnten,der,wurde,übergaben,Stücke,wurden,nehme,Fernrohr,g,Blutdruck,ein,dieser,Uhr,machte,Tonnen,hatten,hatte,Betten,verlassen,dieser,stellt,Schule,g,"Uhr,",Teilnehmerinnen,der,wurden,es,dem,Kreditnehmer,haben,Lösung,Kinder,wurde,verlassen,machte,dem,sollten,äußersten,ein,können,einer,waren,den,Gäste,nehme,verbrauchen,mussten,hatten,Gäste,wurde,Autos,Linie,Stücke,hatte,Tuch,Eislaufbahnen,hat,haben,müden,Stücke,Schuhe,türmen,unserer,meinem,diesem,unserer,Uhr,haben,türmen,Uhr,Flug,ist,Kinder,mussten,der,den,verbrauchen,Schule,übergaben,meinem,stellt,keinen,Autos,Formen,der,,,,,,,,,,,,,,,,,,,,,,,11,0,11,0,0,1,1,1,,,,,,,space,0.319607973099,,,,,2017_Jan_23_1602,61.1688321158,spr_backupper,001,Mo16,
,gebrauchter,Rand,ein,war,nur,sahen,die,Kakao,Rummels,Sonne,Essen,in,dann,Tat,trotz,das,wurden,Eimer,eine,sahen,braunen,kann,Tropfen,Methode,war,mal,gebrauchte,in,keine,wurden,wegen,Methode,die,verbraucht,brauner,die,wussten,Tat,Eimer,"regnete,",Bürgermeister,sind,jede,wird,fuhren,damals,wegen,mal,Essen,immer,Rand,Tropfen,Kleidung,Studie,nur,Bürgermeister,suchen,eine,60,uns,in,suchen,trotz,beider,101,saftigen,keine,wurde,wurden,uns,jede,Teilnehmer,saftiges,in,sich,Ankunft,Studium,Zirkus,Ankunft,schlug,die,sich,schlug,zum,genau,fuhren,uns,Feier,Kakao,60,verbraucht,dem,Studium,die,Umständen,beider,wurden,Feier,,,,,,,,,,,,,,,,,,,,,,,11,0,11,0,0,2,2,2,,,,,,,space,0.529694080353,,,,,2017_Jan_23_1602,61.1688321158,spr_backupper,001,Mo16,
,Kleidung,der,Hemd,der,kleinere,wir,Leinwand,gehören,wurde,"unterging,",kann,Größe,mit,wissen,des,Auto,aus,roter,große,wir,Zuckers,schon,königliches,kann,aus,wieder,Kleidung,Dänemark,Lust,mit,des,kann,Masse,260.000,Zucker,er,überwiegend,wissen,rote,hat,beschuldigten,mit,Menge,mit,mit,schnell,dem,wieder,kann,auf,der,königlichen,bei,wurde,kleinere,beschuldigten,die,große,Liter,durch,Dänemark,die,dem,beteiligter,hält,Fleischs,Lust,dann,mit,die,Menge,wurden,Fleisch,Größe,Berge,stand,habe,werden,stand,"sporadisch,",Erlebnisse,Berge,"sporadisch,",Mond,die,mit,durch,gedachte,gehören,Liter,260.000,Mann,las,Masse,können,beteiligten,unter,gedachte,,,,,,,,,,,,,,,,,,,,,,,11,0,11,0,0,3,3,3,,,,,,,space,0.336090803146,,,,,2017_Jan_23_1602,61.1688321158,spr_backupper,001,Mo16,
,landen,Stadt,aus,vierte,"Delikte,",den,aus,immer,schon,war,ich,36,"minimalem,",wir,bekannten,dem,"wertvollem,",Farbe,Packung,den,sind,bei,Blut,man,"Japan,",viel,landen,einen,auf,"üblichem,",schönen,man,mit,Kilowattstunden,sind,"trug,","nicht,",wir,Farbe,uns,die,"sämtlichem,",alten,"reichlichem,",solch,dank,schönen,viel,ich,warmem,Stadt,Bluts,ausreichendem,jetzt,"Delikte,",die,Wohnung,Packung,sprudelndes,Büschel,gelegentlich,Wohnung,bekannten,Fahrer,nicht,wurden,auf,mit,dauerhaftem,Stimmung,alten,mit,wurden,36,schmutziger,ein,ich,die,ein,obschon,bei,schmutzige,obwohl,dauerte,richtige,solchen,Büschel,man,immer,sprudelnden,Kilowattstunden,das,ich,mit,Neuwahlen,Fahrer,"regelmäßigem,",man,,,,,,,,,,,,,,,,,,,,,,,11,0,11,0,0,4,4,4,,,,,,,space,0.310044050217,,,,,2017_Jan_23_1602,61.1688321158,spr_backupper,001,Mo16,
,im,liegen,feinem,Bundespräsident.,deren,roten,seltenem,350,immer,die,leider,hätten,sauberen,von,Skandals,Mann,klassischen,geschleudert.,salziger,roten,auf,minimalem,hat,eine,die,Lärm,im,gelegentlichen,noch,harten,Wetters,eine,einem,elektrische,auf,war,was,um,geschleudert.,die,Störenfriede,künftigem,Krams,purem,unzureichenden,täglichem,Wetter,Lärm,leider,weichem,liegen,hat,monatlichem,"nachgewiesen,",derer,Störenfriede,des,salzige,Trinkwasser.,frischen,einen,des,Skandal,wurden,am,serviert.,noch,"reichem,",feinem,ziemlich,Kram,zusätzlichem,serviert.,würden,Wäsche.,Glas,mehr,Tiere,Glas,sie,"frischem,",Wäsche.,sie,ungefähr,"Zeit,",unzureichenden,frisches,der,350,Trinkwassers.,elektrischer,Auto,mehr,einem,vor,wurden,kaltem,den,,,,,,,,,,,,,,,,,,,,,,,11,0,11,0,0,5,5,5,,,,,,,space,0.307538032532,,,,,2017_Jan_23_1602,61.1688321158,spr_backupper,001,Mo16,
,Müll.,die,dichten,nan,sie,Planet,dichten,ml,ruhig,Flut,nichts,seiner,Kraftstoff,den,wiedergewählt.,mehr,Schmuck,nan,Wurst,Planeten,jeden,täglichen,den,große,er,um,Müll.,Besucher.,eine,Schaumstoff,die,große,Esslöffel,Energie.,jeden,aus,Tupperware,die,nan,Stimmung,jeden.,Einkommen,aus,Alkohol,Helmen,grünen,die,um,nichts,Untergrund,die,den,Taschengeld,dass,sie,jeden.,Herrn,Wurst,nan,Grases,Besucher.,Herrn,wiedergewählt.,verschrottet.,Hauptbahnhof.,nan,eine,goldenen,Kunsteis,"vermiest,",aus,schwarzem,nan,seiner,nan,köstlichen,als,artgerecht,köstlicher,defekt,kaltem,nan,defekt,drei,um,Helmen,Gras,Soldaten,ml,nan,Energie.,mehr,als,Esslöffel,Dezember,verschrottet.,Abduschen,Soldaten,,,,,,,,,,,,,,,,,,,,,,,11,0,11,0,0,6,6,6,,,,,,,space,0.40752696991,,,,,2017_Jan_23_1602,61.1688321158,spr_backupper,001,Mo16,
,nan,Slums.,Stoff,nan,überführt,ganz,Gewebe,warmer,diskutiert.,zurückgekehrt.,mitbringen.,Frau,fahren.,Problemen,nan,als,umgearbeitet.,nan,mit,ganz,Fall,Einsatz,Boden,Menge,trug.,jede,nan,nan,Sammlung,gefertigt.,Wohnung.,Menge,warmen,nan,Fall,Japan.,ist.,Probleme,nan,ziemlich,nan,haftbar.,dem,verdünnt.,zur,Tee,Wohnung.,jede,mitbringen.,liegen.,Slums.,Boden,selber,das,überführt,nan,Gantenbeins.,mit,nan,zwängen.,nan,Gantenbein.,nan,nan,nan,nan,Sammlung,Besatz,eingesprüht.,dass,dem,Kaffee,nan,Frau,nan,Weins,einmal,gehalten.,Wein,war.,Saft,nan,war.,Tage.,Nadelhölzer,zur,zwängen.,des,warme,nan,nan,als,einmal,warmem,stattfinden.,nan,gehärtet.,des,,,,,,,,,,,,,,,,,,,,,,,11,0,11,0,0,7,7,7,,,,,,,space,0.369709968567,,,,,2017_Jan_23_1602,61.1688321158,spr_backupper,001,Mo16,
,nan,nan,gefertigt.,nan,wurden.,deutlich.,wiederhergestellt.,Milch.,nan,nan,nan,gepasst.,nan,im,nan,gerne.,nan,nan,an,deutlich.,genug.,sinken.,berührt.,dunkler,nan,Menge,nan,nan,dumme,nan,nan,dunkle,Honigs,nan,genug.,nan,nan,im,nan,vermiest.,nan,nan,Haus,nan,Schule.,wieder,nan,Menge,nan,nan,nan,berührt.,kaufen.,Medikament,wurden.,nan,nan,an,nan,nan,nan,nan,nan,nan,nan,nan,dummer,rekonstruiert.,nan,es,Haus,wiederbelebt.,nan,gepasst,nan,schon,Rilke,nan,schon,nan,besprochen.,nan,nan,nan,umzusetzen.,Schule.,nan,zweiten,Milch.,nan,nan,gerne.,Rilke.,Honig,nan,nan,nan,zweiten,,,,,,,,,,,,,,,,,,,,,,,11,0,11,0,0,8,8,8,,,,,,,space,0.324253082275,,,,,2017_Jan_23_1602,61.1688321158,spr_backupper,001,Mo16,
,,,,,,,,,,,,,,,,,,,,,,,,,,,,,,,,,,,,,,,,,,,,,,,,,,,,,,,,,,,,,,,,,,,,,,,,,,,,,,,,,,,,,,,,,,,,,,,,,,,,,,,,,,,,,,,,,,,,,,,,,11,0,11,0,,,,,,,,,,,,,None,j,2.91589403152,,2017_Jan_23_1602,61.1688321158,spr_backupper,001,Mo16,
,Viele,Am,Er,Walter,Es,Im,Danach,In,Fernab,Als,Außer,Die,Wir,In,Er,Wir,Die,Es,Ich,Im,100,Ihr,Nicht,Mit,Die,Man,Viele,Wir,Sie,Alle,Sie,Mit,Er,Die,100,Die,Die,In,Es,Dass,Außer,Manche,Wir,Die,Die,Ich,Sie,Man,Außer,Jungtiere,Am,Nicht,Jugendliche,In,Es,Außer,Die,Ich,Sie,Wir,Wir,Die,Er,Die,Die,Beträchtliche,Sie,Das,Die,Es,Wir,Die,Beträchtliche,Die,Dort,Bei,In,In,Bei,Die,Sie,Dort,Die,Der,Jetzt,Die,Wir,Bei,In,Sie,Die,Wir,In,Er,Unter,Die,Die,Bei,,,,,,,,,,,,,,,,,,,,,,,12,0,12,0,0,0,0,0,,,,,,None,space,0.362979888916,,,,,2017_Jan_23_1602,61.1688321158,spr_backupper,001,Mo16,
,Tonnen,äußeren,hat,Scheel,waren,Fernrohr,wurde,den,des,die,das,Schuhe,konnten,der,wurde,übergaben,Stücke,wurden,nehme,Fernrohr,g,Blutdruck,ein,dieser,Uhr,machte,Tonnen,hatten,hatte,Betten,verlassen,dieser,stellt,Schule,g,"Uhr,",Teilnehmerinnen,der,wurden,es,dem,Kreditnehmer,haben,Lösung,Kinder,wurde,verlassen,machte,dem,sollten,äußersten,ein,können,einer,waren,den,Gäste,nehme,verbrauchen,mussten,hatten,Gäste,wurde,Autos,Linie,Stücke,hatte,Tuch,Eislaufbahnen,hat,haben,müden,Stücke,Schuhe,türmen,unserer,meinem,diesem,unserer,Uhr,haben,türmen,Uhr,Flug,ist,Kinder,mussten,der,den,verbrauchen,Schule,übergaben,meinem,stellt,keinen,Autos,Formen,der,,,,,,,,,,,,,,,,,,,,,,,12,0,12,0,0,1,1,1,,,,,,,space,0.30827999115,,,,,2017_Jan_23_1602,61.1688321158,spr_backupper,001,Mo16,
,gebrauchter,Rand,ein,war,nur,sahen,die,Kakao,Rummels,Sonne,Essen,in,dann,Tat,trotz,das,wurden,Eimer,eine,sahen,braunen,kann,Tropfen,Methode,war,mal,gebrauchte,in,keine,wurden,wegen,Methode,die,verbraucht,brauner,die,wussten,Tat,Eimer,"regnete,",Bürgermeister,sind,jede,wird,fuhren,damals,wegen,mal,Essen,immer,Rand,Tropfen,Kleidung,Studie,nur,Bürgermeister,suchen,eine,60,uns,in,suchen,trotz,beider,101,saftigen,keine,wurde,wurden,uns,jede,Teilnehmer,saftiges,in,sich,Ankunft,Studium,Zirkus,Ankunft,schlug,die,sich,schlug,zum,genau,fuhren,uns,Feier,Kakao,60,verbraucht,dem,Studium,die,Umständen,beider,wurden,Feier,,,,,,,,,,,,,,,,,,,,,,,12,0,12,0,0,2,2,2,,,,,,,space,0.351883172989,,,,,2017_Jan_23_1602,61.1688321158,spr_backupper,001,Mo16,
,Kleidung,der,Hemd,der,kleinere,wir,Leinwand,gehören,wurde,"unterging,",kann,Größe,mit,wissen,des,Auto,aus,roter,große,wir,Zuckers,schon,königliches,kann,aus,wieder,Kleidung,Dänemark,Lust,mit,des,kann,Masse,260.000,Zucker,er,überwiegend,wissen,rote,hat,beschuldigten,mit,Menge,mit,mit,schnell,dem,wieder,kann,auf,der,königlichen,bei,wurde,kleinere,beschuldigten,die,große,Liter,durch,Dänemark,die,dem,beteiligter,hält,Fleischs,Lust,dann,mit,die,Menge,wurden,Fleisch,Größe,Berge,stand,habe,werden,stand,"sporadisch,",Erlebnisse,Berge,"sporadisch,",Mond,die,mit,durch,gedachte,gehören,Liter,260.000,Mann,las,Masse,können,beteiligten,unter,gedachte,,,,,,,,,,,,,,,,,,,,,,,12,0,12,0,0,3,3,3,,,,,,,space,0.4032330513,,,,,2017_Jan_23_1602,61.1688321158,spr_backupper,001,Mo16,
,landen,Stadt,aus,vierte,"Delikte,",den,aus,immer,schon,war,ich,36,"minimalem,",wir,bekannten,dem,"wertvollem,",Farbe,Packung,den,sind,bei,Blut,man,"Japan,",viel,landen,einen,auf,"üblichem,",schönen,man,mit,Kilowattstunden,sind,"trug,","nicht,",wir,Farbe,uns,die,"sämtlichem,",alten,"reichlichem,",solch,dank,schönen,viel,ich,warmem,Stadt,Bluts,ausreichendem,jetzt,"Delikte,",die,Wohnung,Packung,sprudelndes,Büschel,gelegentlich,Wohnung,bekannten,Fahrer,nicht,wurden,auf,mit,dauerhaftem,Stimmung,alten,mit,wurden,36,schmutziger,ein,ich,die,ein,obschon,bei,schmutzige,obwohl,dauerte,richtige,solchen,Büschel,man,immer,sprudelnden,Kilowattstunden,das,ich,mit,Neuwahlen,Fahrer,"regelmäßigem,",man,,,,,,,,,,,,,,,,,,,,,,,12,0,12,0,0,4,4,4,,,,,,,space,0.35249710083,,,,,2017_Jan_23_1602,61.1688321158,spr_backupper,001,Mo16,
,im,liegen,feinem,Bundespräsident.,deren,roten,seltenem,350,immer,die,leider,hätten,sauberen,von,Skandals,Mann,klassischen,geschleudert.,salziger,roten,auf,minimalem,hat,eine,die,Lärm,im,gelegentlichen,noch,harten,Wetters,eine,einem,elektrische,auf,war,was,um,geschleudert.,die,Störenfriede,künftigem,Krams,purem,unzureichenden,täglichem,Wetter,Lärm,leider,weichem,liegen,hat,monatlichem,"nachgewiesen,",derer,Störenfriede,des,salzige,Trinkwasser.,frischen,einen,des,Skandal,wurden,am,serviert.,noch,"reichem,",feinem,ziemlich,Kram,zusätzlichem,serviert.,würden,Wäsche.,Glas,mehr,Tiere,Glas,sie,"frischem,",Wäsche.,sie,ungefähr,"Zeit,",unzureichenden,frisches,der,350,Trinkwassers.,elektrischer,Auto,mehr,einem,vor,wurden,kaltem,den,,,,,,,,,,,,,,,,,,,,,,,12,0,12,0,0,5,5,5,,,,,,,space,0.333578109741,,,,,2017_Jan_23_1602,61.1688321158,spr_backupper,001,Mo16,
,Müll.,die,dichten,nan,sie,Planet,dichten,ml,ruhig,Flut,nichts,seiner,Kraftstoff,den,wiedergewählt.,mehr,Schmuck,nan,Wurst,Planeten,jeden,täglichen,den,große,er,um,Müll.,Besucher.,eine,Schaumstoff,die,große,Esslöffel,Energie.,jeden,aus,Tupperware,die,nan,Stimmung,jeden.,Einkommen,aus,Alkohol,Helmen,grünen,die,um,nichts,Untergrund,die,den,Taschengeld,dass,sie,jeden.,Herrn,Wurst,nan,Grases,Besucher.,Herrn,wiedergewählt.,verschrottet.,Hauptbahnhof.,nan,eine,goldenen,Kunsteis,"vermiest,",aus,schwarzem,nan,seiner,nan,köstlichen,als,artgerecht,köstlicher,defekt,kaltem,nan,defekt,drei,um,Helmen,Gras,Soldaten,ml,nan,Energie.,mehr,als,Esslöffel,Dezember,verschrottet.,Abduschen,Soldaten,,,,,,,,,,,,,,,,,,,,,,,12,0,12,0,0,6,6,6,,,,,,,space,0.352205038071,,,,,2017_Jan_23_1602,61.1688321158,spr_backupper,001,Mo16,
,nan,Slums.,Stoff,nan,überführt,ganz,Gewebe,warmer,diskutiert.,zurückgekehrt.,mitbringen.,Frau,fahren.,Problemen,nan,als,umgearbeitet.,nan,mit,ganz,Fall,Einsatz,Boden,Menge,trug.,jede,nan,nan,Sammlung,gefertigt.,Wohnung.,Menge,warmen,nan,Fall,Japan.,ist.,Probleme,nan,ziemlich,nan,haftbar.,dem,verdünnt.,zur,Tee,Wohnung.,jede,mitbringen.,liegen.,Slums.,Boden,selber,das,überführt,nan,Gantenbeins.,mit,nan,zwängen.,nan,Gantenbein.,nan,nan,nan,nan,Sammlung,Besatz,eingesprüht.,dass,dem,Kaffee,nan,Frau,nan,Weins,einmal,gehalten.,Wein,war.,Saft,nan,war.,Tage.,Nadelhölzer,zur,zwängen.,des,warme,nan,nan,als,einmal,warmem,stattfinden.,nan,gehärtet.,des,,,,,,,,,,,,,,,,,,,,,,,12,0,12,0,0,7,7,7,,,,,,,space,0.35263800621,,,,,2017_Jan_23_1602,61.1688321158,spr_backupper,001,Mo16,
,nan,nan,gefertigt.,nan,wurden.,deutlich.,wiederhergestellt.,Milch.,nan,nan,nan,gepasst.,nan,im,nan,gerne.,nan,nan,an,deutlich.,genug.,sinken.,berührt.,dunkler,nan,Menge,nan,nan,dumme,nan,nan,dunkle,Honigs,nan,genug.,nan,nan,im,nan,vermiest.,nan,nan,Haus,nan,Schule.,wieder,nan,Menge,nan,nan,nan,berührt.,kaufen.,Medikament,wurden.,nan,nan,an,nan,nan,nan,nan,nan,nan,nan,nan,dummer,rekonstruiert.,nan,es,Haus,wiederbelebt.,nan,gepasst,nan,schon,Rilke,nan,schon,nan,besprochen.,nan,nan,nan,umzusetzen.,Schule.,nan,zweiten,Milch.,nan,nan,gerne.,Rilke.,Honig,nan,nan,nan,zweiten,,,,,,,,,,,,,,,,,,,,,,,12,0,12,0,0,8,8,8,,,,,,,space,0.351892948151,,,,,2017_Jan_23_1602,61.1688321158,spr_backupper,001,Mo16,
,,,,,,,,,,,,,,,,,,,,,,,,,,,,,,,,,,,,,,,,,,,,,,,,,,,,,,,,,,,,,,,,,,,,,,,,,,,,,,,,,,,,,,,,,,,,,,,,,,,,,,,,,,,,,,,,,,,,,,,,,12,0,12,0,,,,,,,,,,,,,None,j,6.79266190529,,2017_Jan_23_1602,61.1688321158,spr_backupper,001,Mo16,
,Viele,Am,Er,Walter,Es,Im,Danach,In,Fernab,Als,Außer,Die,Wir,In,Er,Wir,Die,Es,Ich,Im,100,Ihr,Nicht,Mit,Die,Man,Viele,Wir,Sie,Alle,Sie,Mit,Er,Die,100,Die,Die,In,Es,Dass,Außer,Manche,Wir,Die,Die,Ich,Sie,Man,Außer,Jungtiere,Am,Nicht,Jugendliche,In,Es,Außer,Die,Ich,Sie,Wir,Wir,Die,Er,Die,Die,Beträchtliche,Sie,Das,Die,Es,Wir,Die,Beträchtliche,Die,Dort,Bei,In,In,Bei,Die,Sie,Dort,Die,Der,Jetzt,Die,Wir,Bei,In,Sie,Die,Wir,In,Er,Unter,Die,Die,Bei,,,,,,,,,,,,,,,,,,,,,,,13,0,13,0,0,0,0,0,,,,,,None,space,0.55282497406,,,,,2017_Jan_23_1602,61.1688321158,spr_backupper,001,Mo16,
,Tonnen,äußeren,hat,Scheel,waren,Fernrohr,wurde,den,des,die,das,Schuhe,konnten,der,wurde,übergaben,Stücke,wurden,nehme,Fernrohr,g,Blutdruck,ein,dieser,Uhr,machte,Tonnen,hatten,hatte,Betten,verlassen,dieser,stellt,Schule,g,"Uhr,",Teilnehmerinnen,der,wurden,es,dem,Kreditnehmer,haben,Lösung,Kinder,wurde,verlassen,machte,dem,sollten,äußersten,ein,können,einer,waren,den,Gäste,nehme,verbrauchen,mussten,hatten,Gäste,wurde,Autos,Linie,Stücke,hatte,Tuch,Eislaufbahnen,hat,haben,müden,Stücke,Schuhe,türmen,unserer,meinem,diesem,unserer,Uhr,haben,türmen,Uhr,Flug,ist,Kinder,mussten,der,den,verbrauchen,Schule,übergaben,meinem,stellt,keinen,Autos,Formen,der,,,,,,,,,,,,,,,,,,,,,,,13,0,13,0,0,1,1,1,,,,,,,space,0.302822828293,,,,,2017_Jan_23_1602,61.1688321158,spr_backupper,001,Mo16,
,gebrauchter,Rand,ein,war,nur,sahen,die,Kakao,Rummels,Sonne,Essen,in,dann,Tat,trotz,das,wurden,Eimer,eine,sahen,braunen,kann,Tropfen,Methode,war,mal,gebrauchte,in,keine,wurden,wegen,Methode,die,verbraucht,brauner,die,wussten,Tat,Eimer,"regnete,",Bürgermeister,sind,jede,wird,fuhren,damals,wegen,mal,Essen,immer,Rand,Tropfen,Kleidung,Studie,nur,Bürgermeister,suchen,eine,60,uns,in,suchen,trotz,beider,101,saftigen,keine,wurde,wurden,uns,jede,Teilnehmer,saftiges,in,sich,Ankunft,Studium,Zirkus,Ankunft,schlug,die,sich,schlug,zum,genau,fuhren,uns,Feier,Kakao,60,verbraucht,dem,Studium,die,Umständen,beider,wurden,Feier,,,,,,,,,,,,,,,,,,,,,,,13,0,13,0,0,2,2,2,,,,,,,space,0.281327962875,,,,,2017_Jan_23_1602,61.1688321158,spr_backupper,001,Mo16,
,Kleidung,der,Hemd,der,kleinere,wir,Leinwand,gehören,wurde,"unterging,",kann,Größe,mit,wissen,des,Auto,aus,roter,große,wir,Zuckers,schon,königliches,kann,aus,wieder,Kleidung,Dänemark,Lust,mit,des,kann,Masse,260.000,Zucker,er,überwiegend,wissen,rote,hat,beschuldigten,mit,Menge,mit,mit,schnell,dem,wieder,kann,auf,der,königlichen,bei,wurde,kleinere,beschuldigten,die,große,Liter,durch,Dänemark,die,dem,beteiligter,hält,Fleischs,Lust,dann,mit,die,Menge,wurden,Fleisch,Größe,Berge,stand,habe,werden,stand,"sporadisch,",Erlebnisse,Berge,"sporadisch,",Mond,die,mit,durch,gedachte,gehören,Liter,260.000,Mann,las,Masse,können,beteiligten,unter,gedachte,,,,,,,,,,,,,,,,,,,,,,,13,0,13,0,0,3,3,3,,,,,,,space,0.344226121902,,,,,2017_Jan_23_1602,61.1688321158,spr_backupper,001,Mo16,
,landen,Stadt,aus,vierte,"Delikte,",den,aus,immer,schon,war,ich,36,"minimalem,",wir,bekannten,dem,"wertvollem,",Farbe,Packung,den,sind,bei,Blut,man,"Japan,",viel,landen,einen,auf,"üblichem,",schönen,man,mit,Kilowattstunden,sind,"trug,","nicht,",wir,Farbe,uns,die,"sämtlichem,",alten,"reichlichem,",solch,dank,schönen,viel,ich,warmem,Stadt,Bluts,ausreichendem,jetzt,"Delikte,",die,Wohnung,Packung,sprudelndes,Büschel,gelegentlich,Wohnung,bekannten,Fahrer,nicht,wurden,auf,mit,dauerhaftem,Stimmung,alten,mit,wurden,36,schmutziger,ein,ich,die,ein,obschon,bei,schmutzige,obwohl,dauerte,richtige,solchen,Büschel,man,immer,sprudelnden,Kilowattstunden,das,ich,mit,Neuwahlen,Fahrer,"regelmäßigem,",man,,,,,,,,,,,,,,,,,,,,,,,13,0,13,0,0,4,4,4,,,,,,,space,0.30716085434,,,,,2017_Jan_23_1602,61.1688321158,spr_backupper,001,Mo16,
