text,sent48,sent9,sent8,sent15,sent3,sent2,sent1,sent14,sent7,sent6,sent5,sent4,sent57,sent56,sent55,sent54,sent53,sent52,sent51,sent50,sent13,sent12,sent11,sent10,sent17,sent16,sent59,sent58,sent93,sent92,sent91,sent90,sent97,sent96,sent95,sent94,sent98,sent22,sent23,sent20,sent21,sent26,sent27,sent24,sent25,sent28,sent29,sent68,sent69,sent66,sent67,sent64,sent65,sent62,sent63,sent60,sent61,sent31,sent30,sent33,sent32,sent35,sent34,sent37,sent36,sent39,sent38,sent79,sent78,sent75,sent74,sent77,sent76,sent71,sent70,sent73,sent72,sent19,sent49,sent18,sent44,sent45,sent84,sent85,sent86,sent87,sent80,sent81,sent82,sent83,sent40,sent41,sent42,sent43,sent88,sent89,sent46,sent47,intros.thisRepN,intros.thisTrialN,intros.thisN,intros.thisIndex,trials.thisRepN,trials.thisTrialN,trials.thisN,trials.thisIndex,testWords.thisRepN,testWords.thisTrialN,testWords.thisN,testWords.thisIndex,test1,test3,test2,test5,test4,test7,test6,test9,test8,test10,realTrials.thisRepN,realTrials.thisTrialN,realTrials.thisN,realTrials.thisIndex,words.thisRepN,words.thisTrialN,words.thisN,words.thisIndex,key_resp_3.keys,key_resp_3.rt,key_resp_8.keys,key_resp_10.keys,key_resp_10.rt,key_resp_6.keys,wordRead.keys,wordRead.rt,key_resp_5.keys,questAnswer.keys,questAnswer.rt,key_resp_5.rt,date,frameRate,expName,session,participant,
"Vielen Dank, dass Sie an diesem Experiment teilnehmen. Vor dem eigentlichen Experiment sehen Sie nun zuerst eine kurze Erläuterung, und Sie absolvieren ein kurze Übungsphase.

Das Experiment dauert insgesamt nicht mehr als 45 Minuten.",,,,,,,,,,,,,,,,,,,,,,,,,,,,,,,,,,,,,,,,,,,,,,,,,,,,,,,,,,,,,,,,,,,,,,,,,,,,,,,,,,,,,,,,,,,,,,,,,,,0,0,0,0,,,,,,,,,,,,,,,,,,,,,,,,,,,,,,,,,,,,,,,2017_Jan_23_1652,59.7689500437,spr_backupper,001,Mo17,
"In diesem Experiment lesen Sie deutsche Sätze, indem Sie sich von Wort zu Wort mit der Leertaste durch den Satz klicken.",,,,,,,,,,,,,,,,,,,,,,,,,,,,,,,,,,,,,,,,,,,,,,,,,,,,,,,,,,,,,,,,,,,,,,,,,,,,,,,,,,,,,,,,,,,,,,,,,,,0,1,1,1,,,,,,,,,,,,,,,,,,,,,,,,,,,,,,,,,,,,,,,2017_Jan_23_1652,59.7689500437,spr_backupper,001,Mo17,
"Sie sehen dabei immer nur das aktuelle Wort. Die Lesegeschwindigkeit bestimmen Sie vollständig selber. Vor jedem Satz sehen Sie in der Bildschirmmitte für zwei Sekunden ein + an der Stelle, an der dann die Wörter erscheinen.",,,,,,,,,,,,,,,,,,,,,,,,,,,,,,,,,,,,,,,,,,,,,,,,,,,,,,,,,,,,,,,,,,,,,,,,,,,,,,,,,,,,,,,,,,,,,,,,,,,0,2,2,2,,,,,,,,,,,,,,,,,,,,,,,,,,,,,,,,,,,,,,,2017_Jan_23_1652,59.7689500437,spr_backupper,001,Mo17,
"Nach jedem Satz wird Ihnen eine Ja/Nein-Verständnisfrage zum zuvor gelesenen Satz gestellt, die Sie mit der J-Taste für "Ja" und der N-Taste für "Nein" beantworten. Antworten Sie möglichst spontan und ohne lange Nachzudenken.",,,,,,,,,,,,,,,,,,,,,,,,,,,,,,,,,,,,,,,,,,,,,,,,,,,,,,,,,,,,,,,,,,,,,,,,,,,,,,,,,,,,,,,,,,,,,,,,,,,0,3,3,3,,,,,,,,,,,,,,,,,,,,,,,,,,,,,,,,,,,,,,,2017_Jan_23_1652,59.7689500437,spr_backupper,001,Mo17,
"Unterbrechen Sie das Experiment bitte auf keinen Fall, stellen Sie den ExperimentatorInnen nach dem Experimentbeginn keine Fragen, und lassen Sie sich nicht durch Umgebungsgeräusche ablenken.",,,,,,,,,,,,,,,,,,,,,,,,,,,,,,,,,,,,,,,,,,,,,,,,,,,,,,,,,,,,,,,,,,,,,,,,,,,,,,,,,,,,,,,,,,,,,,,,,,,0,4,4,4,,,,,,,,,,,,,,,,,,,,,,,,,,,,,,,,,,,,,,,2017_Jan_23_1652,59.7689500437,spr_backupper,001,Mo17,
"Im nächsten Schritt beantworten Sie bitte eine Frage zu Ihren Deutschkenntnissen. Danach beginnt eine Übungseinheit, mit der Sie sich an die Art der Durchführung dieses Experiments gewöhnen können.",,,,,,,,,,,,,,,,,,,,,,,,,,,,,,,,,,,,,,,,,,,,,,,,,,,,,,,,,,,,,,,,,,,,,,,,,,,,,,,,,,,,,,,,,,,,,,,,,,,0,5,5,5,,,,,,,,,,,,,,,,,,,,,,,,,,,,,,,,,,,,,,,2017_Jan_23_1652,59.7689500437,spr_backupper,001,Mo17,
,,,,,,,,,,,,,,,,,,,,,,,,,,,,,,,,,,,,,,,,,,,,,,,,,,,,,,,,,,,,,,,,,,,,,,,,,,,,,,,,,,,,,,,,,,,,,,,,,,,,,,,,,,,,,,,,,,,,,,,,,,,,,,,,,j,7.04404520988,,,,,,,,,,,2017_Jan_23_1652,59.7689500437,spr_backupper,001,Mo17,
,,,,,,,,,,,,,,,,,,,,,,,,,,,,,,,,,,,,,,,,,,,,,,,,,,,,,,,,,,,,,,,,,,,,,,,,,,,,,,,,,,,,,,,,,,,,,,,,,,,,,,,0,0,0,0,,,,,,,,,,,,,,,,,,,,,,,,,None,,,,,,,,,,2017_Jan_23_1652,59.7689500437,spr_backupper,001,Mo17,
,,,,,,,,,,,,,,,,,,,,,,,,,,,,,,,,,,,,,,,,,,,,,,,,,,,,,,,,,,,,,,,,,,,,,,,,,,,,,,,,,,,,,,,,,,,,,,,,,,,,,,,1,0,1,0,,,,,,,,,,,,,,,,,,,,,,,,,None,,,,,,,,,,2017_Jan_23_1652,59.7689500437,spr_backupper,001,Mo17,
,,,,,,,,,,,,,,,,,,,,,,,,,,,,,,,,,,,,,,,,,,,,,,,,,,,,,,,,,,,,,,,,,,,,,,,,,,,,,,,,,,,,,,,,,,,,,,,,,,,,,,,2,0,2,0,,,,,,,,,,,,,,,,,,,,,,,,,None,,,,,,,,,,2017_Jan_23_1652,59.7689500437,spr_backupper,001,Mo17,
,,,,,,,,,,,,,,,,,,,,,,,,,,,,,,,,,,,,,,,,,,,,,,,,,,,,,,,,,,,,,,,,,,,,,,,,,,,,,,,,,,,,,,,,,,,,,,,,,,,,,,,3,0,3,0,,,,,,,,,,,,,,,,,,,,,,,,,None,,,,,,,,,,2017_Jan_23_1652,59.7689500437,spr_backupper,001,Mo17,
,,,,,,,,,,,,,,,,,,,,,,,,,,,,,,,,,,,,,,,,,,,,,,,,,,,,,,,,,,,,,,,,,,,,,,,,,,,,,,,,,,,,,,,,,,,,,,,,,,,,,,,4,0,4,0,,,,,,,,,,,,,,,,,,,,,,,,,None,,,,,,,,,,2017_Jan_23_1652,59.7689500437,spr_backupper,001,Mo17,
,,,,,,,,,,,,,,,,,,,,,,,,,,,,,,,,,,,,,,,,,,,,,,,,,,,,,,,,,,,,,,,,,,,,,,,,,,,,,,,,,,,,,,,,,,,,,,,,,,,,,,,5,0,5,0,,,,,,,,,,,,,,,,,,,,,,,,,None,,,,,,,,,,2017_Jan_23_1652,59.7689500437,spr_backupper,001,Mo17,
,,,,,,,,,,,,,,,,,,,,,,,,,,,,,,,,,,,,,,,,,,,,,,,,,,,,,,,,,,,,,,,,,,,,,,,,,,,,,,,,,,,,,,,,,,,,,,,,,,,,,,,6,0,6,0,,,,,,,,,,,,,,,,,,,,,,,,,None,,,,,,,,,,2017_Jan_23_1652,59.7689500437,spr_backupper,001,Mo17,
,,,,,,,,,,,,,,,,,,,,,,,,,,,,,,,,,,,,,,,,,,,,,,,,,,,,,,,,,,,,,,,,,,,,,,,,,,,,,,,,,,,,,,,,,,,,,,,,,,,,,,,7,0,7,0,,,,,,,,,,,,,,,,,,,,,,,,,None,,,,,,,,,,2017_Jan_23_1652,59.7689500437,spr_backupper,001,Mo17,
,,,,,,,,,,,,,,,,,,,,,,,,,,,,,,,,,,,,,,,,,,,,,,,,,,,,,,,,,,,,,,,,,,,,,,,,,,,,,,,,,,,,,,,,,,,,,,,,,,,,,,,8,0,8,0,,,,,,,,,,,,,,,,,,,,,,,,,None,,,,,,,,,,2017_Jan_23_1652,59.7689500437,spr_backupper,001,Mo17,
,,,,,,,,,,,,,,,,,,,,,,,,,,,,,,,,,,,,,,,,,,,,,,,,,,,,,,,,,,,,,,,,,,,,,,,,,,,,,,,,,,,,,,,,,,,,,,,,,,,,,,,9,0,9,0,,,,,,,,,,,,,,,,,,,,,,,,,None,,,,,,,,,,2017_Jan_23_1652,59.7689500437,spr_backupper,001,Mo17,
,,,,,,,,,,,,,,,,,,,,,,,,,,,,,,,,,,,,,,,,,,,,,,,,,,,,,,,,,,,,,,,,,,,,,,,,,,,,,,,,,,,,,,,,,,,,,,,,,,,,,,,,,,,,,,,,,,,,,,,,,,,,,,,,,,,,space,3.03518199921,,,,,,,,2017_Jan_23_1652,59.7689500437,spr_backupper,001,Mo17,
,Nicht,Unter,Die,Wir,Mit,Sie,In,Er,Außer,Jugendliche,Viele,Alle,Er,Die,Wir,Ihr,Er,Man,Außer,Er,Die,Die,Er,In,Sie,Die,Die,Walter,Bei,Fernab,Die,100,Wir,Die,In,Als,Die,Bei,Es,Der,Bei,Die,Das,100,Es,Es,In,Sie,Ich,In,Sie,Die,Es,Wir,Dort,Viele,In,Die,Jetzt,Dort,Die,Die,Die,Die,Man,In,Außer,Ich,Nicht,Beträchtliche,Mit,Dass,Danach,Außer,Bei,Die,Wir,Wir,Jungtiere,Wir,Sie,Beträchtliche,Die,Die,Im,Es,Sie,Die,Am,Sie,Am,Wir,Wir,Die,Manche,In,Im,Ich,,,,,,,,,,,,,,,,,,,,,,,0,0,0,0,0,0,0,0,,,,,,None,space,0.969158887863,,,,,2017_Jan_23_1652,59.7689500437,spr_backupper,001,Mo17,
,ein,keinen,"Uhr,",haben,dieser,verlassen,meinem,wurde,dem,können,Tonnen,Betten,hat,Formen,hatten,Blutdruck,wurde,machte,das,stellt,Uhr,Autos,stellt,der,verbrauchen,Schule,Schule,Scheel,unserer,des,Autos,g,haben,Uhr,meinem,die,Lösung,der,hat,Flug,unserer,Stücke,Tuch,g,wurden,waren,einer,verlassen,nehme,diesem,verbrauchen,Linie,waren,übergaben,türmen,Tonnen,der,müden,ist,türmen,Eislaufbahnen,Schuhe,Teilnehmerinnen,Kinder,machte,den,den,wurde,ein,Stücke,dieser,es,wurde,dem,der,Uhr,mussten,konnten,sollten,mussten,hatte,Stücke,Kinder,Gäste,Fernrohr,wurden,hatte,Schuhe,äußeren,haben,äußersten,hatten,übergaben,Gäste,Kreditnehmer,den,Fernrohr,nehme,,,,,,,,,,,,,,,,,,,,,,,0,0,0,0,0,1,1,1,,,,,,,space,0.722522974014,,,,,2017_Jan_23_1652,59.7689500437,spr_backupper,001,Mo17,
,Tropfen,Umständen,die,jede,Methode,wegen,Studium,trotz,Essen,Kleidung,gebrauchte,wurden,ein,wurden,in,kann,trotz,mal,Essen,die,schlug,beider,die,Tat,60,verbraucht,verbraucht,war,Ankunft,Rummels,beider,braunen,jede,schlug,Studium,Sonne,wird,Feier,uns,zum,Ankunft,wurden,wurde,brauner,Eimer,nur,Studie,wegen,eine,Zirkus,60,101,nur,dem,sich,gebrauchter,Tat,Teilnehmer,genau,sich,wurden,in,wussten,fuhren,mal,Kakao,Bürgermeister,damals,Tropfen,saftigen,Methode,"regnete,",die,Bürgermeister,Feier,war,uns,dann,immer,uns,keine,saftiges,fuhren,suchen,sahen,Eimer,keine,in,Rand,die,Rand,in,das,suchen,sind,Kakao,sahen,eine,,,,,,,,,,,,,,,,,,,,,,,0,0,0,0,0,2,2,2,,,,,,,space,0.679569959641,,,,,2017_Jan_23_1652,59.7689500437,spr_backupper,001,Mo17,
,königlichen,können,er,Menge,kann,des,habe,des,kann,bei,Kleidung,mit,Hemd,unter,Dänemark,schon,dem,wieder,kann,Masse,"sporadisch,",beteiligten,Masse,wissen,Liter,260.000,260.000,der,stand,wurde,beteiligter,Zuckers,Menge,"sporadisch,",las,"unterging,",mit,gedachte,die,Mond,stand,aus,dann,Zucker,roter,kleinere,wurde,dem,große,werden,Liter,hält,kleinere,Mann,Berge,Kleidung,wissen,wurden,die,Berge,mit,Größe,überwiegend,mit,wieder,gehören,beschuldigten,schnell,königliches,Fleischs,kann,hat,Leinwand,beschuldigten,gedachte,aus,durch,mit,auf,durch,Lust,Fleisch,mit,die,wir,rote,Lust,Größe,der,Erlebnisse,der,Dänemark,Auto,die,mit,gehören,wir,große,,,,,,,,,,,,,,,,,,,,,,,0,0,0,0,0,3,3,3,,,,,,,space,0.631248950958,,,,,2017_Jan_23_1652,59.7689500437,spr_backupper,001,Mo17,
,Bluts,Neuwahlen,"trug,",alten,man,schönen,ich,bekannten,ich,ausreichendem,landen,"üblichem,",aus,"regelmäßigem,",gelegentlich,bei,bekannten,viel,ich,mit,obwohl,Fahrer,mit,wir,sprudelnden,Kilowattstunden,Kilowattstunden,vierte,ein,schon,Fahrer,sind,alten,obschon,ich,war,"reichlichem,",man,Stimmung,dauerte,ein,"wertvollem,",mit,sind,Farbe,"Delikte,",jetzt,schönen,Packung,die,sprudelndes,nicht,"Delikte,",das,schmutzige,landen,wir,mit,richtige,schmutziger,dauerhaftem,36,"nicht,",solchen,viel,immer,die,dank,Blut,wurden,man,uns,aus,die,man,"Japan,",Büschel,"minimalem,",warmem,Büschel,auf,wurden,solch,Wohnung,den,Farbe,auf,36,Stadt,bei,Stadt,einen,dem,Wohnung,"sämtlichem,",immer,den,Packung,,,,,,,,,,,,,,,,,,,,,,,0,0,0,0,0,4,4,4,,,,,,,space,0.537230014801,,,,,2017_Jan_23_1652,59.7689500437,spr_backupper,001,Mo17,
,hat,vor,war,Kram,eine,Wetters,mehr,Skandals,leider,monatlichem,im,harten,feinem,kaltem,einen,minimalem,Skandal,Lärm,leider,einem,sie,wurden,einem,von,Trinkwassers.,elektrische,elektrischer,Bundespräsident.,Glas,immer,wurden,auf,Krams,sie,mehr,die,purem,der,ziemlich,ungefähr,Glas,klassischen,"reichem,",auf,geschleudert.,derer,"nachgewiesen,",Wetter,salzige,Tiere,Trinkwasser.,am,deren,Auto,Wäsche.,im,um,zusätzlichem,"Zeit,",Wäsche.,feinem,würden,was,unzureichenden,Lärm,350,Störenfriede,täglichem,hat,serviert.,eine,die,seltenem,Störenfriede,den,die,frischen,sauberen,weichem,frisches,noch,serviert.,unzureichenden,des,roten,geschleudert.,noch,hätten,liegen,"frischem,",liegen,gelegentlichen,Mann,des,künftigem,350,roten,salziger,,,,,,,,,,,,,,,,,,,,,,,0,0,0,0,0,5,5,5,,,,,,,space,0.520054101944,,,,,2017_Jan_23_1652,59.7689500437,spr_backupper,001,Mo17,
,den,Dezember,aus,aus,große,die,als,wiedergewählt.,nichts,Taschengeld,Müll.,Schaumstoff,dichten,Abduschen,Besucher.,täglichen,wiedergewählt.,um,nichts,Esslöffel,defekt,verschrottet.,Esslöffel,den,nan,Energie.,Energie.,nan,köstlicher,ruhig,verschrottet.,jeden,aus,defekt,als,Flut,Alkohol,Soldaten,"vermiest,",drei,köstlichen,Schmuck,goldenen,jeden,nan,sie,dass,die,Wurst,artgerecht,nan,Hauptbahnhof.,sie,mehr,nan,Müll.,die,schwarzem,um,nan,Kunsteis,seiner,Tupperware,Helmen,um,ml,jeden.,grünen,den,nan,große,Stimmung,dichten,jeden.,Soldaten,er,Grases,Kraftstoff,Untergrund,Gras,eine,nan,Helmen,Herrn,Planet,nan,eine,seiner,die,kaltem,die,Besucher.,mehr,Herrn,Einkommen,ml,Planeten,Wurst,,,,,,,,,,,,,,,,,,,,,,,0,0,0,0,0,6,6,6,,,,,,,space,0.470938920975,,,,,2017_Jan_23_1652,59.7689500437,spr_backupper,001,Mo17,
,Boden,stattfinden.,Japan.,dem,Menge,Wohnung.,einmal,nan,mitbringen.,selber,nan,gefertigt.,Stoff,gehärtet.,nan,Einsatz,nan,jede,mitbringen.,warmem,war.,nan,warmen,Problemen,nan,nan,nan,nan,Wein,diskutiert.,nan,Fall,dem,war.,einmal,zurückgekehrt.,verdünnt.,des,dass,Tage.,Weins,umgearbeitet.,Besatz,Fall,nan,überführt,das,Wohnung.,mit,gehalten.,nan,nan,überführt,als,nan,nan,Probleme,Kaffee,Nadelhölzer,nan,eingesprüht.,Frau,ist.,zur,jede,warme,nan,Tee,Boden,nan,Menge,ziemlich,Gewebe,nan,des,trug.,zwängen.,fahren.,liegen.,zwängen.,Sammlung,nan,zur,Gantenbein.,ganz,nan,Sammlung,Frau,Slums.,Saft,Slums.,nan,als,Gantenbeins.,haftbar.,warmer,ganz,mit,,,,,,,,,,,,,,,,,,,,,,,0,0,0,0,0,7,7,7,,,,,,,space,0.564833879471,,,,,2017_Jan_23_1652,59.7689500437,spr_backupper,001,Mo17,
,berührt.,nan,nan,Haus,dunkle,nan,Rilke,nan,nan,kaufen.,nan,nan,gefertigt.,nan,nan,sinken.,nan,Menge,nan,Honig,nan,nan,Honigs,im,nan,nan,nan,nan,schon,nan,nan,genug.,Haus,nan,Rilke.,nan,nan,zweiten,es,nan,schon,nan,rekonstruiert.,genug.,nan,wurden.,Medikament,nan,an,nan,nan,nan,wurden.,gerne.,nan,nan,im,wiederbelebt.,umzusetzen.,nan,nan,gepasst,nan,Schule.,Menge,Milch.,nan,wieder,berührt.,nan,dunkler,vermiest.,wiederhergestellt.,nan,zweiten,nan,nan,nan,nan,nan,dumme,nan,Schule.,nan,deutlich.,nan,dummer,gepasst.,nan,besprochen.,nan,nan,gerne.,nan,nan,Milch.,deutlich.,an,,,,,,,,,,,,,,,,,,,,,,,0,0,0,0,0,8,8,8,,,,,,,space,0.746201992035,,,,,2017_Jan_23_1652,59.7689500437,spr_backupper,001,Mo17,
,nan,nan,nan,geschafft.,Materie,nan,gelesen.,nan,nan,nan,nan,nan,nan,nan,nan,nan,nan,heiße,nan,her.,nan,nan,her.,Landkreis.,nan,nan,nan,nan,auf,nan,nan,nan,geschafft.,nan,nan,nan,nan,Weltkriegs.,regnete.,nan,auf,nan,nan,nan,nan,nan,nicht,nan,den,nan,nan,nan,nan,nan,nan,nan,Landkreis.,nan,nan,nan,nan,haben.,nan,nan,heißer,nan,nan,fit.,nan,nan,Materie,nan,nan,nan,Weltkriegs.,nan,nan,nan,nan,nan,Sprüche.,nan,nan,nan,nan,nan,Sprüche.,nan,nan,nan,nan,nan,nan,nan,nan,nan,nan,den,,,,,,,,,,,,,,,,,,,,,,,0,0,0,0,0,9,9,9,,,,,,,space,0.515682935715,,,,,2017_Jan_23_1652,59.7689500437,spr_backupper,001,Mo17,
,,,,,,,,,,,,,,,,,,,,,,,,,,,,,,,,,,,,,,,,,,,,,,,,,,,,,,,,,,,,,,,,,,,,,,,,,,,,,,,,,,,,,,,,,,,,,,,,,,,,,,,,,,,,,,,,,,,,,,,,,0,0,0,0,,,,,,,,,,,,,None,j,3.98366189003,,2017_Jan_23_1652,59.7689500437,spr_backupper,001,Mo17,
,Nicht,Unter,Die,Wir,Mit,Sie,In,Er,Außer,Jugendliche,Viele,Alle,Er,Die,Wir,Ihr,Er,Man,Außer,Er,Die,Die,Er,In,Sie,Die,Die,Walter,Bei,Fernab,Die,100,Wir,Die,In,Als,Die,Bei,Es,Der,Bei,Die,Das,100,Es,Es,In,Sie,Ich,In,Sie,Die,Es,Wir,Dort,Viele,In,Die,Jetzt,Dort,Die,Die,Die,Die,Man,In,Außer,Ich,Nicht,Beträchtliche,Mit,Dass,Danach,Außer,Bei,Die,Wir,Wir,Jungtiere,Wir,Sie,Beträchtliche,Die,Die,Im,Es,Sie,Die,Am,Sie,Am,Wir,Wir,Die,Manche,In,Im,Ich,,,,,,,,,,,,,,,,,,,,,,,1,0,1,0,0,0,0,0,,,,,,None,space,0.515661001205,,,,,2017_Jan_23_1652,59.7689500437,spr_backupper,001,Mo17,
,ein,keinen,"Uhr,",haben,dieser,verlassen,meinem,wurde,dem,können,Tonnen,Betten,hat,Formen,hatten,Blutdruck,wurde,machte,das,stellt,Uhr,Autos,stellt,der,verbrauchen,Schule,Schule,Scheel,unserer,des,Autos,g,haben,Uhr,meinem,die,Lösung,der,hat,Flug,unserer,Stücke,Tuch,g,wurden,waren,einer,verlassen,nehme,diesem,verbrauchen,Linie,waren,übergaben,türmen,Tonnen,der,müden,ist,türmen,Eislaufbahnen,Schuhe,Teilnehmerinnen,Kinder,machte,den,den,wurde,ein,Stücke,dieser,es,wurde,dem,der,Uhr,mussten,konnten,sollten,mussten,hatte,Stücke,Kinder,Gäste,Fernrohr,wurden,hatte,Schuhe,äußeren,haben,äußersten,hatten,übergaben,Gäste,Kreditnehmer,den,Fernrohr,nehme,,,,,,,,,,,,,,,,,,,,,,,1,0,1,0,0,1,1,1,,,,,,,space,0.573989152908,,,,,2017_Jan_23_1652,59.7689500437,spr_backupper,001,Mo17,
,Tropfen,Umständen,die,jede,Methode,wegen,Studium,trotz,Essen,Kleidung,gebrauchte,wurden,ein,wurden,in,kann,trotz,mal,Essen,die,schlug,beider,die,Tat,60,verbraucht,verbraucht,war,Ankunft,Rummels,beider,braunen,jede,schlug,Studium,Sonne,wird,Feier,uns,zum,Ankunft,wurden,wurde,brauner,Eimer,nur,Studie,wegen,eine,Zirkus,60,101,nur,dem,sich,gebrauchter,Tat,Teilnehmer,genau,sich,wurden,in,wussten,fuhren,mal,Kakao,Bürgermeister,damals,Tropfen,saftigen,Methode,"regnete,",die,Bürgermeister,Feier,war,uns,dann,immer,uns,keine,saftiges,fuhren,suchen,sahen,Eimer,keine,in,Rand,die,Rand,in,das,suchen,sind,Kakao,sahen,eine,,,,,,,,,,,,,,,,,,,,,,,1,0,1,0,0,2,2,2,,,,,,,space,0.577324867249,,,,,2017_Jan_23_1652,59.7689500437,spr_backupper,001,Mo17,
,königlichen,können,er,Menge,kann,des,habe,des,kann,bei,Kleidung,mit,Hemd,unter,Dänemark,schon,dem,wieder,kann,Masse,"sporadisch,",beteiligten,Masse,wissen,Liter,260.000,260.000,der,stand,wurde,beteiligter,Zuckers,Menge,"sporadisch,",las,"unterging,",mit,gedachte,die,Mond,stand,aus,dann,Zucker,roter,kleinere,wurde,dem,große,werden,Liter,hält,kleinere,Mann,Berge,Kleidung,wissen,wurden,die,Berge,mit,Größe,überwiegend,mit,wieder,gehören,beschuldigten,schnell,königliches,Fleischs,kann,hat,Leinwand,beschuldigten,gedachte,aus,durch,mit,auf,durch,Lust,Fleisch,mit,die,wir,rote,Lust,Größe,der,Erlebnisse,der,Dänemark,Auto,die,mit,gehören,wir,große,,,,,,,,,,,,,,,,,,,,,,,1,0,1,0,0,3,3,3,,,,,,,space,0.39407992363,,,,,2017_Jan_23_1652,59.7689500437,spr_backupper,001,Mo17,
,Bluts,Neuwahlen,"trug,",alten,man,schönen,ich,bekannten,ich,ausreichendem,landen,"üblichem,",aus,"regelmäßigem,",gelegentlich,bei,bekannten,viel,ich,mit,obwohl,Fahrer,mit,wir,sprudelnden,Kilowattstunden,Kilowattstunden,vierte,ein,schon,Fahrer,sind,alten,obschon,ich,war,"reichlichem,",man,Stimmung,dauerte,ein,"wertvollem,",mit,sind,Farbe,"Delikte,",jetzt,schönen,Packung,die,sprudelndes,nicht,"Delikte,",das,schmutzige,landen,wir,mit,richtige,schmutziger,dauerhaftem,36,"nicht,",solchen,viel,immer,die,dank,Blut,wurden,man,uns,aus,die,man,"Japan,",Büschel,"minimalem,",warmem,Büschel,auf,wurden,solch,Wohnung,den,Farbe,auf,36,Stadt,bei,Stadt,einen,dem,Wohnung,"sämtlichem,",immer,den,Packung,,,,,,,,,,,,,,,,,,,,,,,1,0,1,0,0,4,4,4,,,,,,,space,0.487215042114,,,,,2017_Jan_23_1652,59.7689500437,spr_backupper,001,Mo17,
,hat,vor,war,Kram,eine,Wetters,mehr,Skandals,leider,monatlichem,im,harten,feinem,kaltem,einen,minimalem,Skandal,Lärm,leider,einem,sie,wurden,einem,von,Trinkwassers.,elektrische,elektrischer,Bundespräsident.,Glas,immer,wurden,auf,Krams,sie,mehr,die,purem,der,ziemlich,ungefähr,Glas,klassischen,"reichem,",auf,geschleudert.,derer,"nachgewiesen,",Wetter,salzige,Tiere,Trinkwasser.,am,deren,Auto,Wäsche.,im,um,zusätzlichem,"Zeit,",Wäsche.,feinem,würden,was,unzureichenden,Lärm,350,Störenfriede,täglichem,hat,serviert.,eine,die,seltenem,Störenfriede,den,die,frischen,sauberen,weichem,frisches,noch,serviert.,unzureichenden,des,roten,geschleudert.,noch,hätten,liegen,"frischem,",liegen,gelegentlichen,Mann,des,künftigem,350,roten,salziger,,,,,,,,,,,,,,,,,,,,,,,1,0,1,0,0,5,5,5,,,,,,,space,0.940044879913,,,,,2017_Jan_23_1652,59.7689500437,spr_backupper,001,Mo17,
,den,Dezember,aus,aus,große,die,als,wiedergewählt.,nichts,Taschengeld,Müll.,Schaumstoff,dichten,Abduschen,Besucher.,täglichen,wiedergewählt.,um,nichts,Esslöffel,defekt,verschrottet.,Esslöffel,den,nan,Energie.,Energie.,nan,köstlicher,ruhig,verschrottet.,jeden,aus,defekt,als,Flut,Alkohol,Soldaten,"vermiest,",drei,köstlichen,Schmuck,goldenen,jeden,nan,sie,dass,die,Wurst,artgerecht,nan,Hauptbahnhof.,sie,mehr,nan,Müll.,die,schwarzem,um,nan,Kunsteis,seiner,Tupperware,Helmen,um,ml,jeden.,grünen,den,nan,große,Stimmung,dichten,jeden.,Soldaten,er,Grases,Kraftstoff,Untergrund,Gras,eine,nan,Helmen,Herrn,Planet,nan,eine,seiner,die,kaltem,die,Besucher.,mehr,Herrn,Einkommen,ml,Planeten,Wurst,,,,,,,,,,,,,,,,,,,,,,,1,0,1,0,0,6,6,6,,,,,,,space,0.76894402504,,,,,2017_Jan_23_1652,59.7689500437,spr_backupper,001,Mo17,
,Boden,stattfinden.,Japan.,dem,Menge,Wohnung.,einmal,nan,mitbringen.,selber,nan,gefertigt.,Stoff,gehärtet.,nan,Einsatz,nan,jede,mitbringen.,warmem,war.,nan,warmen,Problemen,nan,nan,nan,nan,Wein,diskutiert.,nan,Fall,dem,war.,einmal,zurückgekehrt.,verdünnt.,des,dass,Tage.,Weins,umgearbeitet.,Besatz,Fall,nan,überführt,das,Wohnung.,mit,gehalten.,nan,nan,überführt,als,nan,nan,Probleme,Kaffee,Nadelhölzer,nan,eingesprüht.,Frau,ist.,zur,jede,warme,nan,Tee,Boden,nan,Menge,ziemlich,Gewebe,nan,des,trug.,zwängen.,fahren.,liegen.,zwängen.,Sammlung,nan,zur,Gantenbein.,ganz,nan,Sammlung,Frau,Slums.,Saft,Slums.,nan,als,Gantenbeins.,haftbar.,warmer,ganz,mit,,,,,,,,,,,,,,,,,,,,,,,1,0,1,0,0,7,7,7,,,,,,,space,0.700850009918,,,,,2017_Jan_23_1652,59.7689500437,spr_backupper,001,Mo17,
,,,,,,,,,,,,,,,,,,,,,,,,,,,,,,,,,,,,,,,,,,,,,,,,,,,,,,,,,,,,,,,,,,,,,,,,,,,,,,,,,,,,,,,,,,,,,,,,,,,,,,,,,,,,,,,,,,,,,,,,,1,0,1,0,,,,,,,,,,,,,None,j,3.99193882942,,2017_Jan_23_1652,59.7689500437,spr_backupper,001,Mo17,
,Nicht,Unter,Die,Wir,Mit,Sie,In,Er,Außer,Jugendliche,Viele,Alle,Er,Die,Wir,Ihr,Er,Man,Außer,Er,Die,Die,Er,In,Sie,Die,Die,Walter,Bei,Fernab,Die,100,Wir,Die,In,Als,Die,Bei,Es,Der,Bei,Die,Das,100,Es,Es,In,Sie,Ich,In,Sie,Die,Es,Wir,Dort,Viele,In,Die,Jetzt,Dort,Die,Die,Die,Die,Man,In,Außer,Ich,Nicht,Beträchtliche,Mit,Dass,Danach,Außer,Bei,Die,Wir,Wir,Jungtiere,Wir,Sie,Beträchtliche,Die,Die,Im,Es,Sie,Die,Am,Sie,Am,Wir,Wir,Die,Manche,In,Im,Ich,,,,,,,,,,,,,,,,,,,,,,,2,0,2,0,0,0,0,0,,,,,,None,space,0.470198154449,,,,,2017_Jan_23_1652,59.7689500437,spr_backupper,001,Mo17,
,ein,keinen,"Uhr,",haben,dieser,verlassen,meinem,wurde,dem,können,Tonnen,Betten,hat,Formen,hatten,Blutdruck,wurde,machte,das,stellt,Uhr,Autos,stellt,der,verbrauchen,Schule,Schule,Scheel,unserer,des,Autos,g,haben,Uhr,meinem,die,Lösung,der,hat,Flug,unserer,Stücke,Tuch,g,wurden,waren,einer,verlassen,nehme,diesem,verbrauchen,Linie,waren,übergaben,türmen,Tonnen,der,müden,ist,türmen,Eislaufbahnen,Schuhe,Teilnehmerinnen,Kinder,machte,den,den,wurde,ein,Stücke,dieser,es,wurde,dem,der,Uhr,mussten,konnten,sollten,mussten,hatte,Stücke,Kinder,Gäste,Fernrohr,wurden,hatte,Schuhe,äußeren,haben,äußersten,hatten,übergaben,Gäste,Kreditnehmer,den,Fernrohr,nehme,,,,,,,,,,,,,,,,,,,,,,,2,0,2,0,0,1,1,1,,,,,,,space,0.407788038254,,,,,2017_Jan_23_1652,59.7689500437,spr_backupper,001,Mo17,
,Tropfen,Umständen,die,jede,Methode,wegen,Studium,trotz,Essen,Kleidung,gebrauchte,wurden,ein,wurden,in,kann,trotz,mal,Essen,die,schlug,beider,die,Tat,60,verbraucht,verbraucht,war,Ankunft,Rummels,beider,braunen,jede,schlug,Studium,Sonne,wird,Feier,uns,zum,Ankunft,wurden,wurde,brauner,Eimer,nur,Studie,wegen,eine,Zirkus,60,101,nur,dem,sich,gebrauchter,Tat,Teilnehmer,genau,sich,wurden,in,wussten,fuhren,mal,Kakao,Bürgermeister,damals,Tropfen,saftigen,Methode,"regnete,",die,Bürgermeister,Feier,war,uns,dann,immer,uns,keine,saftiges,fuhren,suchen,sahen,Eimer,keine,in,Rand,die,Rand,in,das,suchen,sind,Kakao,sahen,eine,,,,,,,,,,,,,,,,,,,,,,,2,0,2,0,0,2,2,2,,,,,,,space,0.54403591156,,,,,2017_Jan_23_1652,59.7689500437,spr_backupper,001,Mo17,
,königlichen,können,er,Menge,kann,des,habe,des,kann,bei,Kleidung,mit,Hemd,unter,Dänemark,schon,dem,wieder,kann,Masse,"sporadisch,",beteiligten,Masse,wissen,Liter,260.000,260.000,der,stand,wurde,beteiligter,Zuckers,Menge,"sporadisch,",las,"unterging,",mit,gedachte,die,Mond,stand,aus,dann,Zucker,roter,kleinere,wurde,dem,große,werden,Liter,hält,kleinere,Mann,Berge,Kleidung,wissen,wurden,die,Berge,mit,Größe,überwiegend,mit,wieder,gehören,beschuldigten,schnell,königliches,Fleischs,kann,hat,Leinwand,beschuldigten,gedachte,aus,durch,mit,auf,durch,Lust,Fleisch,mit,die,wir,rote,Lust,Größe,der,Erlebnisse,der,Dänemark,Auto,die,mit,gehören,wir,große,,,,,,,,,,,,,,,,,,,,,,,2,0,2,0,0,3,3,3,,,,,,,space,0.392410039902,,,,,2017_Jan_23_1652,59.7689500437,spr_backupper,001,Mo17,
,Bluts,Neuwahlen,"trug,",alten,man,schönen,ich,bekannten,ich,ausreichendem,landen,"üblichem,",aus,"regelmäßigem,",gelegentlich,bei,bekannten,viel,ich,mit,obwohl,Fahrer,mit,wir,sprudelnden,Kilowattstunden,Kilowattstunden,vierte,ein,schon,Fahrer,sind,alten,obschon,ich,war,"reichlichem,",man,Stimmung,dauerte,ein,"wertvollem,",mit,sind,Farbe,"Delikte,",jetzt,schönen,Packung,die,sprudelndes,nicht,"Delikte,",das,schmutzige,landen,wir,mit,richtige,schmutziger,dauerhaftem,36,"nicht,",solchen,viel,immer,die,dank,Blut,wurden,man,uns,aus,die,man,"Japan,",Büschel,"minimalem,",warmem,Büschel,auf,wurden,solch,Wohnung,den,Farbe,auf,36,Stadt,bei,Stadt,einen,dem,Wohnung,"sämtlichem,",immer,den,Packung,,,,,,,,,,,,,,,,,,,,,,,2,0,2,0,0,4,4,4,,,,,,,space,0.342720031738,,,,,2017_Jan_23_1652,59.7689500437,spr_backupper,001,Mo17,
,hat,vor,war,Kram,eine,Wetters,mehr,Skandals,leider,monatlichem,im,harten,feinem,kaltem,einen,minimalem,Skandal,Lärm,leider,einem,sie,wurden,einem,von,Trinkwassers.,elektrische,elektrischer,Bundespräsident.,Glas,immer,wurden,auf,Krams,sie,mehr,die,purem,der,ziemlich,ungefähr,Glas,klassischen,"reichem,",auf,geschleudert.,derer,"nachgewiesen,",Wetter,salzige,Tiere,Trinkwasser.,am,deren,Auto,Wäsche.,im,um,zusätzlichem,"Zeit,",Wäsche.,feinem,würden,was,unzureichenden,Lärm,350,Störenfriede,täglichem,hat,serviert.,eine,die,seltenem,Störenfriede,den,die,frischen,sauberen,weichem,frisches,noch,serviert.,unzureichenden,des,roten,geschleudert.,noch,hätten,liegen,"frischem,",liegen,gelegentlichen,Mann,des,künftigem,350,roten,salziger,,,,,,,,,,,,,,,,,,,,,,,2,0,2,0,0,5,5,5,,,,,,,space,0.368979930878,,,,,2017_Jan_23_1652,59.7689500437,spr_backupper,001,Mo17,
,den,Dezember,aus,aus,große,die,als,wiedergewählt.,nichts,Taschengeld,Müll.,Schaumstoff,dichten,Abduschen,Besucher.,täglichen,wiedergewählt.,um,nichts,Esslöffel,defekt,verschrottet.,Esslöffel,den,nan,Energie.,Energie.,nan,köstlicher,ruhig,verschrottet.,jeden,aus,defekt,als,Flut,Alkohol,Soldaten,"vermiest,",drei,köstlichen,Schmuck,goldenen,jeden,nan,sie,dass,die,Wurst,artgerecht,nan,Hauptbahnhof.,sie,mehr,nan,Müll.,die,schwarzem,um,nan,Kunsteis,seiner,Tupperware,Helmen,um,ml,jeden.,grünen,den,nan,große,Stimmung,dichten,jeden.,Soldaten,er,Grases,Kraftstoff,Untergrund,Gras,eine,nan,Helmen,Herrn,Planet,nan,eine,seiner,die,kaltem,die,Besucher.,mehr,Herrn,Einkommen,ml,Planeten,Wurst,,,,,,,,,,,,,,,,,,,,,,,2,0,2,0,0,6,6,6,,,,,,,space,0.456191062927,,,,,2017_Jan_23_1652,59.7689500437,spr_backupper,001,Mo17,
,Boden,stattfinden.,Japan.,dem,Menge,Wohnung.,einmal,nan,mitbringen.,selber,nan,gefertigt.,Stoff,gehärtet.,nan,Einsatz,nan,jede,mitbringen.,warmem,war.,nan,warmen,Problemen,nan,nan,nan,nan,Wein,diskutiert.,nan,Fall,dem,war.,einmal,zurückgekehrt.,verdünnt.,des,dass,Tage.,Weins,umgearbeitet.,Besatz,Fall,nan,überführt,das,Wohnung.,mit,gehalten.,nan,nan,überführt,als,nan,nan,Probleme,Kaffee,Nadelhölzer,nan,eingesprüht.,Frau,ist.,zur,jede,warme,nan,Tee,Boden,nan,Menge,ziemlich,Gewebe,nan,des,trug.,zwängen.,fahren.,liegen.,zwängen.,Sammlung,nan,zur,Gantenbein.,ganz,nan,Sammlung,Frau,Slums.,Saft,Slums.,nan,als,Gantenbeins.,haftbar.,warmer,ganz,mit,,,,,,,,,,,,,,,,,,,,,,,2,0,2,0,0,7,7,7,,,,,,,space,0.420274019241,,,,,2017_Jan_23_1652,59.7689500437,spr_backupper,001,Mo17,
,berührt.,nan,nan,Haus,dunkle,nan,Rilke,nan,nan,kaufen.,nan,nan,gefertigt.,nan,nan,sinken.,nan,Menge,nan,Honig,nan,nan,Honigs,im,nan,nan,nan,nan,schon,nan,nan,genug.,Haus,nan,Rilke.,nan,nan,zweiten,es,nan,schon,nan,rekonstruiert.,genug.,nan,wurden.,Medikament,nan,an,nan,nan,nan,wurden.,gerne.,nan,nan,im,wiederbelebt.,umzusetzen.,nan,nan,gepasst,nan,Schule.,Menge,Milch.,nan,wieder,berührt.,nan,dunkler,vermiest.,wiederhergestellt.,nan,zweiten,nan,nan,nan,nan,nan,dumme,nan,Schule.,nan,deutlich.,nan,dummer,gepasst.,nan,besprochen.,nan,nan,gerne.,nan,nan,Milch.,deutlich.,an,,,,,,,,,,,,,,,,,,,,,,,2,0,2,0,0,8,8,8,,,,,,,space,0.418061971664,,,,,2017_Jan_23_1652,59.7689500437,spr_backupper,001,Mo17,
,nan,nan,nan,geschafft.,Materie,nan,gelesen.,nan,nan,nan,nan,nan,nan,nan,nan,nan,nan,heiße,nan,her.,nan,nan,her.,Landkreis.,nan,nan,nan,nan,auf,nan,nan,nan,geschafft.,nan,nan,nan,nan,Weltkriegs.,regnete.,nan,auf,nan,nan,nan,nan,nan,nicht,nan,den,nan,nan,nan,nan,nan,nan,nan,Landkreis.,nan,nan,nan,nan,haben.,nan,nan,heißer,nan,nan,fit.,nan,nan,Materie,nan,nan,nan,Weltkriegs.,nan,nan,nan,nan,nan,Sprüche.,nan,nan,nan,nan,nan,Sprüche.,nan,nan,nan,nan,nan,nan,nan,nan,nan,nan,den,,,,,,,,,,,,,,,,,,,,,,,2,0,2,0,0,9,9,9,,,,,,,space,0.467250823975,,,,,2017_Jan_23_1652,59.7689500437,spr_backupper,001,Mo17,
,nan,nan,nan,nan,erzeugen.,nan,nan,nan,nan,nan,nan,nan,nan,nan,nan,nan,nan,Luft.,nan,nan,nan,nan,nan,nan,nan,nan,nan,nan,dem,nan,nan,nan,nan,nan,nan,nan,nan,nan,nan,nan,dem,nan,nan,nan,nan,nan,wirkt.,nan,See.,nan,nan,nan,nan,nan,nan,nan,nan,nan,nan,nan,nan,nan,nan,nan,Luft.,nan,nan,nan,nan,nan,erzeugen.,nan,nan,nan,nan,nan,nan,nan,nan,nan,nan,nan,nan,nan,nan,nan,nan,nan,nan,nan,nan,nan,nan,nan,nan,nan,nan,See.,,,,,,,,,,,,,,,,,,,,,,,2,0,2,0,0,10,10,10,,,,,,,space,0.475399017334,,,,,2017_Jan_23_1652,59.7689500437,spr_backupper,001,Mo17,
,,,,,,,,,,,,,,,,,,,,,,,,,,,,,,,,,,,,,,,,,,,,,,,,,,,,,,,,,,,,,,,,,,,,,,,,,,,,,,,,,,,,,,,,,,,,,,,,,,,,,,,,,,,,,,,,,,,,,,,,,2,0,2,0,,,,,,,,,,,,,None,n,3.33016300201,,2017_Jan_23_1652,59.7689500437,spr_backupper,001,Mo17,
,Nicht,Unter,Die,Wir,Mit,Sie,In,Er,Außer,Jugendliche,Viele,Alle,Er,Die,Wir,Ihr,Er,Man,Außer,Er,Die,Die,Er,In,Sie,Die,Die,Walter,Bei,Fernab,Die,100,Wir,Die,In,Als,Die,Bei,Es,Der,Bei,Die,Das,100,Es,Es,In,Sie,Ich,In,Sie,Die,Es,Wir,Dort,Viele,In,Die,Jetzt,Dort,Die,Die,Die,Die,Man,In,Außer,Ich,Nicht,Beträchtliche,Mit,Dass,Danach,Außer,Bei,Die,Wir,Wir,Jungtiere,Wir,Sie,Beträchtliche,Die,Die,Im,Es,Sie,Die,Am,Sie,Am,Wir,Wir,Die,Manche,In,Im,Ich,,,,,,,,,,,,,,,,,,,,,,,3,0,3,0,0,0,0,0,,,,,,None,space,0.402593851089,,,,,2017_Jan_23_1652,59.7689500437,spr_backupper,001,Mo17,
,ein,keinen,"Uhr,",haben,dieser,verlassen,meinem,wurde,dem,können,Tonnen,Betten,hat,Formen,hatten,Blutdruck,wurde,machte,das,stellt,Uhr,Autos,stellt,der,verbrauchen,Schule,Schule,Scheel,unserer,des,Autos,g,haben,Uhr,meinem,die,Lösung,der,hat,Flug,unserer,Stücke,Tuch,g,wurden,waren,einer,verlassen,nehme,diesem,verbrauchen,Linie,waren,übergaben,türmen,Tonnen,der,müden,ist,türmen,Eislaufbahnen,Schuhe,Teilnehmerinnen,Kinder,machte,den,den,wurde,ein,Stücke,dieser,es,wurde,dem,der,Uhr,mussten,konnten,sollten,mussten,hatte,Stücke,Kinder,Gäste,Fernrohr,wurden,hatte,Schuhe,äußeren,haben,äußersten,hatten,übergaben,Gäste,Kreditnehmer,den,Fernrohr,nehme,,,,,,,,,,,,,,,,,,,,,,,3,0,3,0,0,1,1,1,,,,,,,space,0.401559829712,,,,,2017_Jan_23_1652,59.7689500437,spr_backupper,001,Mo17,
,Tropfen,Umständen,die,jede,Methode,wegen,Studium,trotz,Essen,Kleidung,gebrauchte,wurden,ein,wurden,in,kann,trotz,mal,Essen,die,schlug,beider,die,Tat,60,verbraucht,verbraucht,war,Ankunft,Rummels,beider,braunen,jede,schlug,Studium,Sonne,wird,Feier,uns,zum,Ankunft,wurden,wurde,brauner,Eimer,nur,Studie,wegen,eine,Zirkus,60,101,nur,dem,sich,gebrauchter,Tat,Teilnehmer,genau,sich,wurden,in,wussten,fuhren,mal,Kakao,Bürgermeister,damals,Tropfen,saftigen,Methode,"regnete,",die,Bürgermeister,Feier,war,uns,dann,immer,uns,keine,saftiges,fuhren,suchen,sahen,Eimer,keine,in,Rand,die,Rand,in,das,suchen,sind,Kakao,sahen,eine,,,,,,,,,,,,,,,,,,,,,,,3,0,3,0,0,2,2,2,,,,,,,space,0.365507125854,,,,,2017_Jan_23_1652,59.7689500437,spr_backupper,001,Mo17,
,königlichen,können,er,Menge,kann,des,habe,des,kann,bei,Kleidung,mit,Hemd,unter,Dänemark,schon,dem,wieder,kann,Masse,"sporadisch,",beteiligten,Masse,wissen,Liter,260.000,260.000,der,stand,wurde,beteiligter,Zuckers,Menge,"sporadisch,",las,"unterging,",mit,gedachte,die,Mond,stand,aus,dann,Zucker,roter,kleinere,wurde,dem,große,werden,Liter,hält,kleinere,Mann,Berge,Kleidung,wissen,wurden,die,Berge,mit,Größe,überwiegend,mit,wieder,gehören,beschuldigten,schnell,königliches,Fleischs,kann,hat,Leinwand,beschuldigten,gedachte,aus,durch,mit,auf,durch,Lust,Fleisch,mit,die,wir,rote,Lust,Größe,der,Erlebnisse,der,Dänemark,Auto,die,mit,gehören,wir,große,,,,,,,,,,,,,,,,,,,,,,,3,0,3,0,0,3,3,3,,,,,,,space,0.386412858963,,,,,2017_Jan_23_1652,59.7689500437,spr_backupper,001,Mo17,
,Bluts,Neuwahlen,"trug,",alten,man,schönen,ich,bekannten,ich,ausreichendem,landen,"üblichem,",aus,"regelmäßigem,",gelegentlich,bei,bekannten,viel,ich,mit,obwohl,Fahrer,mit,wir,sprudelnden,Kilowattstunden,Kilowattstunden,vierte,ein,schon,Fahrer,sind,alten,obschon,ich,war,"reichlichem,",man,Stimmung,dauerte,ein,"wertvollem,",mit,sind,Farbe,"Delikte,",jetzt,schönen,Packung,die,sprudelndes,nicht,"Delikte,",das,schmutzige,landen,wir,mit,richtige,schmutziger,dauerhaftem,36,"nicht,",solchen,viel,immer,die,dank,Blut,wurden,man,uns,aus,die,man,"Japan,",Büschel,"minimalem,",warmem,Büschel,auf,wurden,solch,Wohnung,den,Farbe,auf,36,Stadt,bei,Stadt,einen,dem,Wohnung,"sämtlichem,",immer,den,Packung,,,,,,,,,,,,,,,,,,,,,,,3,0,3,0,0,4,4,4,,,,,,,space,0.380283117294,,,,,2017_Jan_23_1652,59.7689500437,spr_backupper,001,Mo17,
,hat,vor,war,Kram,eine,Wetters,mehr,Skandals,leider,monatlichem,im,harten,feinem,kaltem,einen,minimalem,Skandal,Lärm,leider,einem,sie,wurden,einem,von,Trinkwassers.,elektrische,elektrischer,Bundespräsident.,Glas,immer,wurden,auf,Krams,sie,mehr,die,purem,der,ziemlich,ungefähr,Glas,klassischen,"reichem,",auf,geschleudert.,derer,"nachgewiesen,",Wetter,salzige,Tiere,Trinkwasser.,am,deren,Auto,Wäsche.,im,um,zusätzlichem,"Zeit,",Wäsche.,feinem,würden,was,unzureichenden,Lärm,350,Störenfriede,täglichem,hat,serviert.,eine,die,seltenem,Störenfriede,den,die,frischen,sauberen,weichem,frisches,noch,serviert.,unzureichenden,des,roten,geschleudert.,noch,hätten,liegen,"frischem,",liegen,gelegentlichen,Mann,des,künftigem,350,roten,salziger,,,,,,,,,,,,,,,,,,,,,,,3,0,3,0,0,5,5,5,,,,,,,space,0.595648050308,,,,,2017_Jan_23_1652,59.7689500437,spr_backupper,001,Mo17,
,den,Dezember,aus,aus,große,die,als,wiedergewählt.,nichts,Taschengeld,Müll.,Schaumstoff,dichten,Abduschen,Besucher.,täglichen,wiedergewählt.,um,nichts,Esslöffel,defekt,verschrottet.,Esslöffel,den,nan,Energie.,Energie.,nan,köstlicher,ruhig,verschrottet.,jeden,aus,defekt,als,Flut,Alkohol,Soldaten,"vermiest,",drei,köstlichen,Schmuck,goldenen,jeden,nan,sie,dass,die,Wurst,artgerecht,nan,Hauptbahnhof.,sie,mehr,nan,Müll.,die,schwarzem,um,nan,Kunsteis,seiner,Tupperware,Helmen,um,ml,jeden.,grünen,den,nan,große,Stimmung,dichten,jeden.,Soldaten,er,Grases,Kraftstoff,Untergrund,Gras,eine,nan,Helmen,Herrn,Planet,nan,eine,seiner,die,kaltem,die,Besucher.,mehr,Herrn,Einkommen,ml,Planeten,Wurst,,,,,,,,,,,,,,,,,,,,,,,3,0,3,0,0,6,6,6,,,,,,,space,2.63362002373,,,,,2017_Jan_23_1652,59.7689500437,spr_backupper,001,Mo17,
,Boden,stattfinden.,Japan.,dem,Menge,Wohnung.,einmal,nan,mitbringen.,selber,nan,gefertigt.,Stoff,gehärtet.,nan,Einsatz,nan,jede,mitbringen.,warmem,war.,nan,warmen,Problemen,nan,nan,nan,nan,Wein,diskutiert.,nan,Fall,dem,war.,einmal,zurückgekehrt.,verdünnt.,des,dass,Tage.,Weins,umgearbeitet.,Besatz,Fall,nan,überführt,das,Wohnung.,mit,gehalten.,nan,nan,überführt,als,nan,nan,Probleme,Kaffee,Nadelhölzer,nan,eingesprüht.,Frau,ist.,zur,jede,warme,nan,Tee,Boden,nan,Menge,ziemlich,Gewebe,nan,des,trug.,zwängen.,fahren.,liegen.,zwängen.,Sammlung,nan,zur,Gantenbein.,ganz,nan,Sammlung,Frau,Slums.,Saft,Slums.,nan,als,Gantenbeins.,haftbar.,warmer,ganz,mit,,,,,,,,,,,,,,,,,,,,,,,3,0,3,0,0,7,7,7,,,,,,,space,0.467323064804,,,,,2017_Jan_23_1652,59.7689500437,spr_backupper,001,Mo17,
,,,,,,,,,,,,,,,,,,,,,,,,,,,,,,,,,,,,,,,,,,,,,,,,,,,,,,,,,,,,,,,,,,,,,,,,,,,,,,,,,,,,,,,,,,,,,,,,,,,,,,,,,,,,,,,,,,,,,,,,,3,0,3,0,,,,,,,,,,,,,None,j,2.76776504517,,2017_Jan_23_1652,59.7689500437,spr_backupper,001,Mo17,
,Nicht,Unter,Die,Wir,Mit,Sie,In,Er,Außer,Jugendliche,Viele,Alle,Er,Die,Wir,Ihr,Er,Man,Außer,Er,Die,Die,Er,In,Sie,Die,Die,Walter,Bei,Fernab,Die,100,Wir,Die,In,Als,Die,Bei,Es,Der,Bei,Die,Das,100,Es,Es,In,Sie,Ich,In,Sie,Die,Es,Wir,Dort,Viele,In,Die,Jetzt,Dort,Die,Die,Die,Die,Man,In,Außer,Ich,Nicht,Beträchtliche,Mit,Dass,Danach,Außer,Bei,Die,Wir,Wir,Jungtiere,Wir,Sie,Beträchtliche,Die,Die,Im,Es,Sie,Die,Am,Sie,Am,Wir,Wir,Die,Manche,In,Im,Ich,,,,,,,,,,,,,,,,,,,,,,,4,0,4,0,0,0,0,0,,,,,,None,space,0.782325029373,,,,,2017_Jan_23_1652,59.7689500437,spr_backupper,001,Mo17,
,ein,keinen,"Uhr,",haben,dieser,verlassen,meinem,wurde,dem,können,Tonnen,Betten,hat,Formen,hatten,Blutdruck,wurde,machte,das,stellt,Uhr,Autos,stellt,der,verbrauchen,Schule,Schule,Scheel,unserer,des,Autos,g,haben,Uhr,meinem,die,Lösung,der,hat,Flug,unserer,Stücke,Tuch,g,wurden,waren,einer,verlassen,nehme,diesem,verbrauchen,Linie,waren,übergaben,türmen,Tonnen,der,müden,ist,türmen,Eislaufbahnen,Schuhe,Teilnehmerinnen,Kinder,machte,den,den,wurde,ein,Stücke,dieser,es,wurde,dem,der,Uhr,mussten,konnten,sollten,mussten,hatte,Stücke,Kinder,Gäste,Fernrohr,wurden,hatte,Schuhe,äußeren,haben,äußersten,hatten,übergaben,Gäste,Kreditnehmer,den,Fernrohr,nehme,,,,,,,,,,,,,,,,,,,,,,,4,0,4,0,0,1,1,1,,,,,,,space,0.405528068542,,,,,2017_Jan_23_1652,59.7689500437,spr_backupper,001,Mo17,
,Tropfen,Umständen,die,jede,Methode,wegen,Studium,trotz,Essen,Kleidung,gebrauchte,wurden,ein,wurden,in,kann,trotz,mal,Essen,die,schlug,beider,die,Tat,60,verbraucht,verbraucht,war,Ankunft,Rummels,beider,braunen,jede,schlug,Studium,Sonne,wird,Feier,uns,zum,Ankunft,wurden,wurde,brauner,Eimer,nur,Studie,wegen,eine,Zirkus,60,101,nur,dem,sich,gebrauchter,Tat,Teilnehmer,genau,sich,wurden,in,wussten,fuhren,mal,Kakao,Bürgermeister,damals,Tropfen,saftigen,Methode,"regnete,",die,Bürgermeister,Feier,war,uns,dann,immer,uns,keine,saftiges,fuhren,suchen,sahen,Eimer,keine,in,Rand,die,Rand,in,das,suchen,sind,Kakao,sahen,eine,,,,,,,,,,,,,,,,,,,,,,,4,0,4,0,0,2,2,2,,,,,,,space,0.553596973419,,,,,2017_Jan_23_1652,59.7689500437,spr_backupper,001,Mo17,
,königlichen,können,er,Menge,kann,des,habe,des,kann,bei,Kleidung,mit,Hemd,unter,Dänemark,schon,dem,wieder,kann,Masse,"sporadisch,",beteiligten,Masse,wissen,Liter,260.000,260.000,der,stand,wurde,beteiligter,Zuckers,Menge,"sporadisch,",las,"unterging,",mit,gedachte,die,Mond,stand,aus,dann,Zucker,roter,kleinere,wurde,dem,große,werden,Liter,hält,kleinere,Mann,Berge,Kleidung,wissen,wurden,die,Berge,mit,Größe,überwiegend,mit,wieder,gehören,beschuldigten,schnell,königliches,Fleischs,kann,hat,Leinwand,beschuldigten,gedachte,aus,durch,mit,auf,durch,Lust,Fleisch,mit,die,wir,rote,Lust,Größe,der,Erlebnisse,der,Dänemark,Auto,die,mit,gehören,wir,große,,,,,,,,,,,,,,,,,,,,,,,4,0,4,0,0,3,3,3,,,,,,,space,0.430801153183,,,,,2017_Jan_23_1652,59.7689500437,spr_backupper,001,Mo17,
,Bluts,Neuwahlen,"trug,",alten,man,schönen,ich,bekannten,ich,ausreichendem,landen,"üblichem,",aus,"regelmäßigem,",gelegentlich,bei,bekannten,viel,ich,mit,obwohl,Fahrer,mit,wir,sprudelnden,Kilowattstunden,Kilowattstunden,vierte,ein,schon,Fahrer,sind,alten,obschon,ich,war,"reichlichem,",man,Stimmung,dauerte,ein,"wertvollem,",mit,sind,Farbe,"Delikte,",jetzt,schönen,Packung,die,sprudelndes,nicht,"Delikte,",das,schmutzige,landen,wir,mit,richtige,schmutziger,dauerhaftem,36,"nicht,",solchen,viel,immer,die,dank,Blut,wurden,man,uns,aus,die,man,"Japan,",Büschel,"minimalem,",warmem,Büschel,auf,wurden,solch,Wohnung,den,Farbe,auf,36,Stadt,bei,Stadt,einen,dem,Wohnung,"sämtlichem,",immer,den,Packung,,,,,,,,,,,,,,,,,,,,,,,4,0,4,0,0,4,4,4,,,,,,,space,0.453607082367,,,,,2017_Jan_23_1652,59.7689500437,spr_backupper,001,Mo17,
,hat,vor,war,Kram,eine,Wetters,mehr,Skandals,leider,monatlichem,im,harten,feinem,kaltem,einen,minimalem,Skandal,Lärm,leider,einem,sie,wurden,einem,von,Trinkwassers.,elektrische,elektrischer,Bundespräsident.,Glas,immer,wurden,auf,Krams,sie,mehr,die,purem,der,ziemlich,ungefähr,Glas,klassischen,"reichem,",auf,geschleudert.,derer,"nachgewiesen,",Wetter,salzige,Tiere,Trinkwasser.,am,deren,Auto,Wäsche.,im,um,zusätzlichem,"Zeit,",Wäsche.,feinem,würden,was,unzureichenden,Lärm,350,Störenfriede,täglichem,hat,serviert.,eine,die,seltenem,Störenfriede,den,die,frischen,sauberen,weichem,frisches,noch,serviert.,unzureichenden,des,roten,geschleudert.,noch,hätten,liegen,"frischem,",liegen,gelegentlichen,Mann,des,künftigem,350,roten,salziger,,,,,,,,,,,,,,,,,,,,,,,4,0,4,0,0,5,5,5,,,,,,,space,0.663045883179,,,,,2017_Jan_23_1652,59.7689500437,spr_backupper,001,Mo17,
,den,Dezember,aus,aus,große,die,als,wiedergewählt.,nichts,Taschengeld,Müll.,Schaumstoff,dichten,Abduschen,Besucher.,täglichen,wiedergewählt.,um,nichts,Esslöffel,defekt,verschrottet.,Esslöffel,den,nan,Energie.,Energie.,nan,köstlicher,ruhig,verschrottet.,jeden,aus,defekt,als,Flut,Alkohol,Soldaten,"vermiest,",drei,köstlichen,Schmuck,goldenen,jeden,nan,sie,dass,die,Wurst,artgerecht,nan,Hauptbahnhof.,sie,mehr,nan,Müll.,die,schwarzem,um,nan,Kunsteis,seiner,Tupperware,Helmen,um,ml,jeden.,grünen,den,nan,große,Stimmung,dichten,jeden.,Soldaten,er,Grases,Kraftstoff,Untergrund,Gras,eine,nan,Helmen,Herrn,Planet,nan,eine,seiner,die,kaltem,die,Besucher.,mehr,Herrn,Einkommen,ml,Planeten,Wurst,,,,,,,,,,,,,,,,,,,,,,,4,0,4,0,0,6,6,6,,,,,,,space,0.357130050659,,,,,2017_Jan_23_1652,59.7689500437,spr_backupper,001,Mo17,
,,,,,,,,,,,,,,,,,,,,,,,,,,,,,,,,,,,,,,,,,,,,,,,,,,,,,,,,,,,,,,,,,,,,,,,,,,,,,,,,,,,,,,,,,,,,,,,,,,,,,,,,,,,,,,,,,,,,,,,,,4,0,4,0,,,,,,,,,,,,,None,j,7.46375584602,,2017_Jan_23_1652,59.7689500437,spr_backupper,001,Mo17,
,Nicht,Unter,Die,Wir,Mit,Sie,In,Er,Außer,Jugendliche,Viele,Alle,Er,Die,Wir,Ihr,Er,Man,Außer,Er,Die,Die,Er,In,Sie,Die,Die,Walter,Bei,Fernab,Die,100,Wir,Die,In,Als,Die,Bei,Es,Der,Bei,Die,Das,100,Es,Es,In,Sie,Ich,In,Sie,Die,Es,Wir,Dort,Viele,In,Die,Jetzt,Dort,Die,Die,Die,Die,Man,In,Außer,Ich,Nicht,Beträchtliche,Mit,Dass,Danach,Außer,Bei,Die,Wir,Wir,Jungtiere,Wir,Sie,Beträchtliche,Die,Die,Im,Es,Sie,Die,Am,Sie,Am,Wir,Wir,Die,Manche,In,Im,Ich,,,,,,,,,,,,,,,,,,,,,,,5,0,5,0,0,0,0,0,,,,,,None,space,0.438252925873,,,,,2017_Jan_23_1652,59.7689500437,spr_backupper,001,Mo17,
,ein,keinen,"Uhr,",haben,dieser,verlassen,meinem,wurde,dem,können,Tonnen,Betten,hat,Formen,hatten,Blutdruck,wurde,machte,das,stellt,Uhr,Autos,stellt,der,verbrauchen,Schule,Schule,Scheel,unserer,des,Autos,g,haben,Uhr,meinem,die,Lösung,der,hat,Flug,unserer,Stücke,Tuch,g,wurden,waren,einer,verlassen,nehme,diesem,verbrauchen,Linie,waren,übergaben,türmen,Tonnen,der,müden,ist,türmen,Eislaufbahnen,Schuhe,Teilnehmerinnen,Kinder,machte,den,den,wurde,ein,Stücke,dieser,es,wurde,dem,der,Uhr,mussten,konnten,sollten,mussten,hatte,Stücke,Kinder,Gäste,Fernrohr,wurden,hatte,Schuhe,äußeren,haben,äußersten,hatten,übergaben,Gäste,Kreditnehmer,den,Fernrohr,nehme,,,,,,,,,,,,,,,,,,,,,,,5,0,5,0,0,1,1,1,,,,,,,space,0.503320932388,,,,,2017_Jan_23_1652,59.7689500437,spr_backupper,001,Mo17,
,Tropfen,Umständen,die,jede,Methode,wegen,Studium,trotz,Essen,Kleidung,gebrauchte,wurden,ein,wurden,in,kann,trotz,mal,Essen,die,schlug,beider,die,Tat,60,verbraucht,verbraucht,war,Ankunft,Rummels,beider,braunen,jede,schlug,Studium,Sonne,wird,Feier,uns,zum,Ankunft,wurden,wurde,brauner,Eimer,nur,Studie,wegen,eine,Zirkus,60,101,nur,dem,sich,gebrauchter,Tat,Teilnehmer,genau,sich,wurden,in,wussten,fuhren,mal,Kakao,Bürgermeister,damals,Tropfen,saftigen,Methode,"regnete,",die,Bürgermeister,Feier,war,uns,dann,immer,uns,keine,saftiges,fuhren,suchen,sahen,Eimer,keine,in,Rand,die,Rand,in,das,suchen,sind,Kakao,sahen,eine,,,,,,,,,,,,,,,,,,,,,,,5,0,5,0,0,2,2,2,,,,,,,space,0.537531137466,,,,,2017_Jan_23_1652,59.7689500437,spr_backupper,001,Mo17,
,königlichen,können,er,Menge,kann,des,habe,des,kann,bei,Kleidung,mit,Hemd,unter,Dänemark,schon,dem,wieder,kann,Masse,"sporadisch,",beteiligten,Masse,wissen,Liter,260.000,260.000,der,stand,wurde,beteiligter,Zuckers,Menge,"sporadisch,",las,"unterging,",mit,gedachte,die,Mond,stand,aus,dann,Zucker,roter,kleinere,wurde,dem,große,werden,Liter,hält,kleinere,Mann,Berge,Kleidung,wissen,wurden,die,Berge,mit,Größe,überwiegend,mit,wieder,gehören,beschuldigten,schnell,königliches,Fleischs,kann,hat,Leinwand,beschuldigten,gedachte,aus,durch,mit,auf,durch,Lust,Fleisch,mit,die,wir,rote,Lust,Größe,der,Erlebnisse,der,Dänemark,Auto,die,mit,gehören,wir,große,,,,,,,,,,,,,,,,,,,,,,,5,0,5,0,0,3,3,3,,,,,,,space,0.417968988419,,,,,2017_Jan_23_1652,59.7689500437,spr_backupper,001,Mo17,
,Bluts,Neuwahlen,"trug,",alten,man,schönen,ich,bekannten,ich,ausreichendem,landen,"üblichem,",aus,"regelmäßigem,",gelegentlich,bei,bekannten,viel,ich,mit,obwohl,Fahrer,mit,wir,sprudelnden,Kilowattstunden,Kilowattstunden,vierte,ein,schon,Fahrer,sind,alten,obschon,ich,war,"reichlichem,",man,Stimmung,dauerte,ein,"wertvollem,",mit,sind,Farbe,"Delikte,",jetzt,schönen,Packung,die,sprudelndes,nicht,"Delikte,",das,schmutzige,landen,wir,mit,richtige,schmutziger,dauerhaftem,36,"nicht,",solchen,viel,immer,die,dank,Blut,wurden,man,uns,aus,die,man,"Japan,",Büschel,"minimalem,",warmem,Büschel,auf,wurden,solch,Wohnung,den,Farbe,auf,36,Stadt,bei,Stadt,einen,dem,Wohnung,"sämtlichem,",immer,den,Packung,,,,,,,,,,,,,,,,,,,,,,,5,0,5,0,0,4,4,4,,,,,,,space,0.338611125946,,,,,2017_Jan_23_1652,59.7689500437,spr_backupper,001,Mo17,
,hat,vor,war,Kram,eine,Wetters,mehr,Skandals,leider,monatlichem,im,harten,feinem,kaltem,einen,minimalem,Skandal,Lärm,leider,einem,sie,wurden,einem,von,Trinkwassers.,elektrische,elektrischer,Bundespräsident.,Glas,immer,wurden,auf,Krams,sie,mehr,die,purem,der,ziemlich,ungefähr,Glas,klassischen,"reichem,",auf,geschleudert.,derer,"nachgewiesen,",Wetter,salzige,Tiere,Trinkwasser.,am,deren,Auto,Wäsche.,im,um,zusätzlichem,"Zeit,",Wäsche.,feinem,würden,was,unzureichenden,Lärm,350,Störenfriede,täglichem,hat,serviert.,eine,die,seltenem,Störenfriede,den,die,frischen,sauberen,weichem,frisches,noch,serviert.,unzureichenden,des,roten,geschleudert.,noch,hätten,liegen,"frischem,",liegen,gelegentlichen,Mann,des,künftigem,350,roten,salziger,,,,,,,,,,,,,,,,,,,,,,,5,0,5,0,0,5,5,5,,,,,,,space,0.476063966751,,,,,2017_Jan_23_1652,59.7689500437,spr_backupper,001,Mo17,
,den,Dezember,aus,aus,große,die,als,wiedergewählt.,nichts,Taschengeld,Müll.,Schaumstoff,dichten,Abduschen,Besucher.,täglichen,wiedergewählt.,um,nichts,Esslöffel,defekt,verschrottet.,Esslöffel,den,nan,Energie.,Energie.,nan,köstlicher,ruhig,verschrottet.,jeden,aus,defekt,als,Flut,Alkohol,Soldaten,"vermiest,",drei,köstlichen,Schmuck,goldenen,jeden,nan,sie,dass,die,Wurst,artgerecht,nan,Hauptbahnhof.,sie,mehr,nan,Müll.,die,schwarzem,um,nan,Kunsteis,seiner,Tupperware,Helmen,um,ml,jeden.,grünen,den,nan,große,Stimmung,dichten,jeden.,Soldaten,er,Grases,Kraftstoff,Untergrund,Gras,eine,nan,Helmen,Herrn,Planet,nan,eine,seiner,die,kaltem,die,Besucher.,mehr,Herrn,Einkommen,ml,Planeten,Wurst,,,,,,,,,,,,,,,,,,,,,,,5,0,5,0,0,6,6,6,,,,,,,space,3.51868700981,,,,,2017_Jan_23_1652,59.7689500437,spr_backupper,001,Mo17,
,Boden,stattfinden.,Japan.,dem,Menge,Wohnung.,einmal,nan,mitbringen.,selber,nan,gefertigt.,Stoff,gehärtet.,nan,Einsatz,nan,jede,mitbringen.,warmem,war.,nan,warmen,Problemen,nan,nan,nan,nan,Wein,diskutiert.,nan,Fall,dem,war.,einmal,zurückgekehrt.,verdünnt.,des,dass,Tage.,Weins,umgearbeitet.,Besatz,Fall,nan,überführt,das,Wohnung.,mit,gehalten.,nan,nan,überführt,als,nan,nan,Probleme,Kaffee,Nadelhölzer,nan,eingesprüht.,Frau,ist.,zur,jede,warme,nan,Tee,Boden,nan,Menge,ziemlich,Gewebe,nan,des,trug.,zwängen.,fahren.,liegen.,zwängen.,Sammlung,nan,zur,Gantenbein.,ganz,nan,Sammlung,Frau,Slums.,Saft,Slums.,nan,als,Gantenbeins.,haftbar.,warmer,ganz,mit,,,,,,,,,,,,,,,,,,,,,,,5,0,5,0,0,7,7,7,,,,,,,space,0.705669879913,,,,,2017_Jan_23_1652,59.7689500437,spr_backupper,001,Mo17,
,berührt.,nan,nan,Haus,dunkle,nan,Rilke,nan,nan,kaufen.,nan,nan,gefertigt.,nan,nan,sinken.,nan,Menge,nan,Honig,nan,nan,Honigs,im,nan,nan,nan,nan,schon,nan,nan,genug.,Haus,nan,Rilke.,nan,nan,zweiten,es,nan,schon,nan,rekonstruiert.,genug.,nan,wurden.,Medikament,nan,an,nan,nan,nan,wurden.,gerne.,nan,nan,im,wiederbelebt.,umzusetzen.,nan,nan,gepasst,nan,Schule.,Menge,Milch.,nan,wieder,berührt.,nan,dunkler,vermiest.,wiederhergestellt.,nan,zweiten,nan,nan,nan,nan,nan,dumme,nan,Schule.,nan,deutlich.,nan,dummer,gepasst.,nan,besprochen.,nan,nan,gerne.,nan,nan,Milch.,deutlich.,an,,,,,,,,,,,,,,,,,,,,,,,5,0,5,0,0,8,8,8,,,,,,,space,0.649204969406,,,,,2017_Jan_23_1652,59.7689500437,spr_backupper,001,Mo17,
,,,,,,,,,,,,,,,,,,,,,,,,,,,,,,,,,,,,,,,,,,,,,,,,,,,,,,,,,,,,,,,,,,,,,,,,,,,,,,,,,,,,,,,,,,,,,,,,,,,,,,,,,,,,,,,,,,,,,,,,,5,0,5,0,,,,,,,,,,,,,None,j,5.94013190269,,2017_Jan_23_1652,59.7689500437,spr_backupper,001,Mo17,
,Nicht,Unter,Die,Wir,Mit,Sie,In,Er,Außer,Jugendliche,Viele,Alle,Er,Die,Wir,Ihr,Er,Man,Außer,Er,Die,Die,Er,In,Sie,Die,Die,Walter,Bei,Fernab,Die,100,Wir,Die,In,Als,Die,Bei,Es,Der,Bei,Die,Das,100,Es,Es,In,Sie,Ich,In,Sie,Die,Es,Wir,Dort,Viele,In,Die,Jetzt,Dort,Die,Die,Die,Die,Man,In,Außer,Ich,Nicht,Beträchtliche,Mit,Dass,Danach,Außer,Bei,Die,Wir,Wir,Jungtiere,Wir,Sie,Beträchtliche,Die,Die,Im,Es,Sie,Die,Am,Sie,Am,Wir,Wir,Die,Manche,In,Im,Ich,,,,,,,,,,,,,,,,,,,,,,,6,0,6,0,0,0,0,0,,,,,,None,space,0.518443822861,,,,,2017_Jan_23_1652,59.7689500437,spr_backupper,001,Mo17,
,ein,keinen,"Uhr,",haben,dieser,verlassen,meinem,wurde,dem,können,Tonnen,Betten,hat,Formen,hatten,Blutdruck,wurde,machte,das,stellt,Uhr,Autos,stellt,der,verbrauchen,Schule,Schule,Scheel,unserer,des,Autos,g,haben,Uhr,meinem,die,Lösung,der,hat,Flug,unserer,Stücke,Tuch,g,wurden,waren,einer,verlassen,nehme,diesem,verbrauchen,Linie,waren,übergaben,türmen,Tonnen,der,müden,ist,türmen,Eislaufbahnen,Schuhe,Teilnehmerinnen,Kinder,machte,den,den,wurde,ein,Stücke,dieser,es,wurde,dem,der,Uhr,mussten,konnten,sollten,mussten,hatte,Stücke,Kinder,Gäste,Fernrohr,wurden,hatte,Schuhe,äußeren,haben,äußersten,hatten,übergaben,Gäste,Kreditnehmer,den,Fernrohr,nehme,,,,,,,,,,,,,,,,,,,,,,,6,0,6,0,0,1,1,1,,,,,,,space,0.443950891495,,,,,2017_Jan_23_1652,59.7689500437,spr_backupper,001,Mo17,
,Tropfen,Umständen,die,jede,Methode,wegen,Studium,trotz,Essen,Kleidung,gebrauchte,wurden,ein,wurden,in,kann,trotz,mal,Essen,die,schlug,beider,die,Tat,60,verbraucht,verbraucht,war,Ankunft,Rummels,beider,braunen,jede,schlug,Studium,Sonne,wird,Feier,uns,zum,Ankunft,wurden,wurde,brauner,Eimer,nur,Studie,wegen,eine,Zirkus,60,101,nur,dem,sich,gebrauchter,Tat,Teilnehmer,genau,sich,wurden,in,wussten,fuhren,mal,Kakao,Bürgermeister,damals,Tropfen,saftigen,Methode,"regnete,",die,Bürgermeister,Feier,war,uns,dann,immer,uns,keine,saftiges,fuhren,suchen,sahen,Eimer,keine,in,Rand,die,Rand,in,das,suchen,sind,Kakao,sahen,eine,,,,,,,,,,,,,,,,,,,,,,,6,0,6,0,0,2,2,2,,,,,,,space,0.611665010452,,,,,2017_Jan_23_1652,59.7689500437,spr_backupper,001,Mo17,
,königlichen,können,er,Menge,kann,des,habe,des,kann,bei,Kleidung,mit,Hemd,unter,Dänemark,schon,dem,wieder,kann,Masse,"sporadisch,",beteiligten,Masse,wissen,Liter,260.000,260.000,der,stand,wurde,beteiligter,Zuckers,Menge,"sporadisch,",las,"unterging,",mit,gedachte,die,Mond,stand,aus,dann,Zucker,roter,kleinere,wurde,dem,große,werden,Liter,hält,kleinere,Mann,Berge,Kleidung,wissen,wurden,die,Berge,mit,Größe,überwiegend,mit,wieder,gehören,beschuldigten,schnell,königliches,Fleischs,kann,hat,Leinwand,beschuldigten,gedachte,aus,durch,mit,auf,durch,Lust,Fleisch,mit,die,wir,rote,Lust,Größe,der,Erlebnisse,der,Dänemark,Auto,die,mit,gehören,wir,große,,,,,,,,,,,,,,,,,,,,,,,6,0,6,0,0,3,3,3,,,,,,,space,0.410739183426,,,,,2017_Jan_23_1652,59.7689500437,spr_backupper,001,Mo17,
,Bluts,Neuwahlen,"trug,",alten,man,schönen,ich,bekannten,ich,ausreichendem,landen,"üblichem,",aus,"regelmäßigem,",gelegentlich,bei,bekannten,viel,ich,mit,obwohl,Fahrer,mit,wir,sprudelnden,Kilowattstunden,Kilowattstunden,vierte,ein,schon,Fahrer,sind,alten,obschon,ich,war,"reichlichem,",man,Stimmung,dauerte,ein,"wertvollem,",mit,sind,Farbe,"Delikte,",jetzt,schönen,Packung,die,sprudelndes,nicht,"Delikte,",das,schmutzige,landen,wir,mit,richtige,schmutziger,dauerhaftem,36,"nicht,",solchen,viel,immer,die,dank,Blut,wurden,man,uns,aus,die,man,"Japan,",Büschel,"minimalem,",warmem,Büschel,auf,wurden,solch,Wohnung,den,Farbe,auf,36,Stadt,bei,Stadt,einen,dem,Wohnung,"sämtlichem,",immer,den,Packung,,,,,,,,,,,,,,,,,,,,,,,6,0,6,0,0,4,4,4,,,,,,,space,0.966993093491,,,,,2017_Jan_23_1652,59.7689500437,spr_backupper,001,Mo17,
,hat,vor,war,Kram,eine,Wetters,mehr,Skandals,leider,monatlichem,im,harten,feinem,kaltem,einen,minimalem,Skandal,Lärm,leider,einem,sie,wurden,einem,von,Trinkwassers.,elektrische,elektrischer,Bundespräsident.,Glas,immer,wurden,auf,Krams,sie,mehr,die,purem,der,ziemlich,ungefähr,Glas,klassischen,"reichem,",auf,geschleudert.,derer,"nachgewiesen,",Wetter,salzige,Tiere,Trinkwasser.,am,deren,Auto,Wäsche.,im,um,zusätzlichem,"Zeit,",Wäsche.,feinem,würden,was,unzureichenden,Lärm,350,Störenfriede,täglichem,hat,serviert.,eine,die,seltenem,Störenfriede,den,die,frischen,sauberen,weichem,frisches,noch,serviert.,unzureichenden,des,roten,geschleudert.,noch,hätten,liegen,"frischem,",liegen,gelegentlichen,Mann,des,künftigem,350,roten,salziger,,,,,,,,,,,,,,,,,,,,,,,6,0,6,0,0,5,5,5,,,,,,,space,0.425033092499,,,,,2017_Jan_23_1652,59.7689500437,spr_backupper,001,Mo17,
,den,Dezember,aus,aus,große,die,als,wiedergewählt.,nichts,Taschengeld,Müll.,Schaumstoff,dichten,Abduschen,Besucher.,täglichen,wiedergewählt.,um,nichts,Esslöffel,defekt,verschrottet.,Esslöffel,den,nan,Energie.,Energie.,nan,köstlicher,ruhig,verschrottet.,jeden,aus,defekt,als,Flut,Alkohol,Soldaten,"vermiest,",drei,köstlichen,Schmuck,goldenen,jeden,nan,sie,dass,die,Wurst,artgerecht,nan,Hauptbahnhof.,sie,mehr,nan,Müll.,die,schwarzem,um,nan,Kunsteis,seiner,Tupperware,Helmen,um,ml,jeden.,grünen,den,nan,große,Stimmung,dichten,jeden.,Soldaten,er,Grases,Kraftstoff,Untergrund,Gras,eine,nan,Helmen,Herrn,Planet,nan,eine,seiner,die,kaltem,die,Besucher.,mehr,Herrn,Einkommen,ml,Planeten,Wurst,,,,,,,,,,,,,,,,,,,,,,,6,0,6,0,0,6,6,6,,,,,,,space,0.383797168732,,,,,2017_Jan_23_1652,59.7689500437,spr_backupper,001,Mo17,
,Boden,stattfinden.,Japan.,dem,Menge,Wohnung.,einmal,nan,mitbringen.,selber,nan,gefertigt.,Stoff,gehärtet.,nan,Einsatz,nan,jede,mitbringen.,warmem,war.,nan,warmen,Problemen,nan,nan,nan,nan,Wein,diskutiert.,nan,Fall,dem,war.,einmal,zurückgekehrt.,verdünnt.,des,dass,Tage.,Weins,umgearbeitet.,Besatz,Fall,nan,überführt,das,Wohnung.,mit,gehalten.,nan,nan,überführt,als,nan,nan,Probleme,Kaffee,Nadelhölzer,nan,eingesprüht.,Frau,ist.,zur,jede,warme,nan,Tee,Boden,nan,Menge,ziemlich,Gewebe,nan,des,trug.,zwängen.,fahren.,liegen.,zwängen.,Sammlung,nan,zur,Gantenbein.,ganz,nan,Sammlung,Frau,Slums.,Saft,Slums.,nan,als,Gantenbeins.,haftbar.,warmer,ganz,mit,,,,,,,,,,,,,,,,,,,,,,,6,0,6,0,0,7,7,7,,,,,,,space,0.654861927032,,,,,2017_Jan_23_1652,59.7689500437,spr_backupper,001,Mo17,
,,,,,,,,,,,,,,,,,,,,,,,,,,,,,,,,,,,,,,,,,,,,,,,,,,,,,,,,,,,,,,,,,,,,,,,,,,,,,,,,,,,,,,,,,,,,,,,,,,,,,,,,,,,,,,,,,,,,,,,,,6,0,6,0,,,,,,,,,,,,,None,n,2.70430588722,,2017_Jan_23_1652,59.7689500437,spr_backupper,001,Mo17,
,Nicht,Unter,Die,Wir,Mit,Sie,In,Er,Außer,Jugendliche,Viele,Alle,Er,Die,Wir,Ihr,Er,Man,Außer,Er,Die,Die,Er,In,Sie,Die,Die,Walter,Bei,Fernab,Die,100,Wir,Die,In,Als,Die,Bei,Es,Der,Bei,Die,Das,100,Es,Es,In,Sie,Ich,In,Sie,Die,Es,Wir,Dort,Viele,In,Die,Jetzt,Dort,Die,Die,Die,Die,Man,In,Außer,Ich,Nicht,Beträchtliche,Mit,Dass,Danach,Außer,Bei,Die,Wir,Wir,Jungtiere,Wir,Sie,Beträchtliche,Die,Die,Im,Es,Sie,Die,Am,Sie,Am,Wir,Wir,Die,Manche,In,Im,Ich,,,,,,,,,,,,,,,,,,,,,,,7,0,7,0,0,0,0,0,,,,,,None,space,0.606271028519,,,,,2017_Jan_23_1652,59.7689500437,spr_backupper,001,Mo17,
,ein,keinen,"Uhr,",haben,dieser,verlassen,meinem,wurde,dem,können,Tonnen,Betten,hat,Formen,hatten,Blutdruck,wurde,machte,das,stellt,Uhr,Autos,stellt,der,verbrauchen,Schule,Schule,Scheel,unserer,des,Autos,g,haben,Uhr,meinem,die,Lösung,der,hat,Flug,unserer,Stücke,Tuch,g,wurden,waren,einer,verlassen,nehme,diesem,verbrauchen,Linie,waren,übergaben,türmen,Tonnen,der,müden,ist,türmen,Eislaufbahnen,Schuhe,Teilnehmerinnen,Kinder,machte,den,den,wurde,ein,Stücke,dieser,es,wurde,dem,der,Uhr,mussten,konnten,sollten,mussten,hatte,Stücke,Kinder,Gäste,Fernrohr,wurden,hatte,Schuhe,äußeren,haben,äußersten,hatten,übergaben,Gäste,Kreditnehmer,den,Fernrohr,nehme,,,,,,,,,,,,,,,,,,,,,,,7,0,7,0,0,1,1,1,,,,,,,space,0.340606927872,,,,,2017_Jan_23_1652,59.7689500437,spr_backupper,001,Mo17,
,Tropfen,Umständen,die,jede,Methode,wegen,Studium,trotz,Essen,Kleidung,gebrauchte,wurden,ein,wurden,in,kann,trotz,mal,Essen,die,schlug,beider,die,Tat,60,verbraucht,verbraucht,war,Ankunft,Rummels,beider,braunen,jede,schlug,Studium,Sonne,wird,Feier,uns,zum,Ankunft,wurden,wurde,brauner,Eimer,nur,Studie,wegen,eine,Zirkus,60,101,nur,dem,sich,gebrauchter,Tat,Teilnehmer,genau,sich,wurden,in,wussten,fuhren,mal,Kakao,Bürgermeister,damals,Tropfen,saftigen,Methode,"regnete,",die,Bürgermeister,Feier,war,uns,dann,immer,uns,keine,saftiges,fuhren,suchen,sahen,Eimer,keine,in,Rand,die,Rand,in,das,suchen,sind,Kakao,sahen,eine,,,,,,,,,,,,,,,,,,,,,,,7,0,7,0,0,2,2,2,,,,,,,space,0.499777078629,,,,,2017_Jan_23_1652,59.7689500437,spr_backupper,001,Mo17,
,königlichen,können,er,Menge,kann,des,habe,des,kann,bei,Kleidung,mit,Hemd,unter,Dänemark,schon,dem,wieder,kann,Masse,"sporadisch,",beteiligten,Masse,wissen,Liter,260.000,260.000,der,stand,wurde,beteiligter,Zuckers,Menge,"sporadisch,",las,"unterging,",mit,gedachte,die,Mond,stand,aus,dann,Zucker,roter,kleinere,wurde,dem,große,werden,Liter,hält,kleinere,Mann,Berge,Kleidung,wissen,wurden,die,Berge,mit,Größe,überwiegend,mit,wieder,gehören,beschuldigten,schnell,königliches,Fleischs,kann,hat,Leinwand,beschuldigten,gedachte,aus,durch,mit,auf,durch,Lust,Fleisch,mit,die,wir,rote,Lust,Größe,der,Erlebnisse,der,Dänemark,Auto,die,mit,gehören,wir,große,,,,,,,,,,,,,,,,,,,,,,,7,0,7,0,0,3,3,3,,,,,,,space,0.350363969803,,,,,2017_Jan_23_1652,59.7689500437,spr_backupper,001,Mo17,
,Bluts,Neuwahlen,"trug,",alten,man,schönen,ich,bekannten,ich,ausreichendem,landen,"üblichem,",aus,"regelmäßigem,",gelegentlich,bei,bekannten,viel,ich,mit,obwohl,Fahrer,mit,wir,sprudelnden,Kilowattstunden,Kilowattstunden,vierte,ein,schon,Fahrer,sind,alten,obschon,ich,war,"reichlichem,",man,Stimmung,dauerte,ein,"wertvollem,",mit,sind,Farbe,"Delikte,",jetzt,schönen,Packung,die,sprudelndes,nicht,"Delikte,",das,schmutzige,landen,wir,mit,richtige,schmutziger,dauerhaftem,36,"nicht,",solchen,viel,immer,die,dank,Blut,wurden,man,uns,aus,die,man,"Japan,",Büschel,"minimalem,",warmem,Büschel,auf,wurden,solch,Wohnung,den,Farbe,auf,36,Stadt,bei,Stadt,einen,dem,Wohnung,"sämtlichem,",immer,den,Packung,,,,,,,,,,,,,,,,,,,,,,,7,0,7,0,0,4,4,4,,,,,,,space,0.302052021027,,,,,2017_Jan_23_1652,59.7689500437,spr_backupper,001,Mo17,
,hat,vor,war,Kram,eine,Wetters,mehr,Skandals,leider,monatlichem,im,harten,feinem,kaltem,einen,minimalem,Skandal,Lärm,leider,einem,sie,wurden,einem,von,Trinkwassers.,elektrische,elektrischer,Bundespräsident.,Glas,immer,wurden,auf,Krams,sie,mehr,die,purem,der,ziemlich,ungefähr,Glas,klassischen,"reichem,",auf,geschleudert.,derer,"nachgewiesen,",Wetter,salzige,Tiere,Trinkwasser.,am,deren,Auto,Wäsche.,im,um,zusätzlichem,"Zeit,",Wäsche.,feinem,würden,was,unzureichenden,Lärm,350,Störenfriede,täglichem,hat,serviert.,eine,die,seltenem,Störenfriede,den,die,frischen,sauberen,weichem,frisches,noch,serviert.,unzureichenden,des,roten,geschleudert.,noch,hätten,liegen,"frischem,",liegen,gelegentlichen,Mann,des,künftigem,350,roten,salziger,,,,,,,,,,,,,,,,,,,,,,,7,0,7,0,0,5,5,5,,,,,,,space,0.419329881668,,,,,2017_Jan_23_1652,59.7689500437,spr_backupper,001,Mo17,
,den,Dezember,aus,aus,große,die,als,wiedergewählt.,nichts,Taschengeld,Müll.,Schaumstoff,dichten,Abduschen,Besucher.,täglichen,wiedergewählt.,um,nichts,Esslöffel,defekt,verschrottet.,Esslöffel,den,nan,Energie.,Energie.,nan,köstlicher,ruhig,verschrottet.,jeden,aus,defekt,als,Flut,Alkohol,Soldaten,"vermiest,",drei,köstlichen,Schmuck,goldenen,jeden,nan,sie,dass,die,Wurst,artgerecht,nan,Hauptbahnhof.,sie,mehr,nan,Müll.,die,schwarzem,um,nan,Kunsteis,seiner,Tupperware,Helmen,um,ml,jeden.,grünen,den,nan,große,Stimmung,dichten,jeden.,Soldaten,er,Grases,Kraftstoff,Untergrund,Gras,eine,nan,Helmen,Herrn,Planet,nan,eine,seiner,die,kaltem,die,Besucher.,mehr,Herrn,Einkommen,ml,Planeten,Wurst,,,,,,,,,,,,,,,,,,,,,,,7,0,7,0,0,6,6,6,,,,,,,space,0.638002157211,,,,,2017_Jan_23_1652,59.7689500437,spr_backupper,001,Mo17,
,Boden,stattfinden.,Japan.,dem,Menge,Wohnung.,einmal,nan,mitbringen.,selber,nan,gefertigt.,Stoff,gehärtet.,nan,Einsatz,nan,jede,mitbringen.,warmem,war.,nan,warmen,Problemen,nan,nan,nan,nan,Wein,diskutiert.,nan,Fall,dem,war.,einmal,zurückgekehrt.,verdünnt.,des,dass,Tage.,Weins,umgearbeitet.,Besatz,Fall,nan,überführt,das,Wohnung.,mit,gehalten.,nan,nan,überführt,als,nan,nan,Probleme,Kaffee,Nadelhölzer,nan,eingesprüht.,Frau,ist.,zur,jede,warme,nan,Tee,Boden,nan,Menge,ziemlich,Gewebe,nan,des,trug.,zwängen.,fahren.,liegen.,zwängen.,Sammlung,nan,zur,Gantenbein.,ganz,nan,Sammlung,Frau,Slums.,Saft,Slums.,nan,als,Gantenbeins.,haftbar.,warmer,ganz,mit,,,,,,,,,,,,,,,,,,,,,,,7,0,7,0,0,7,7,7,,,,,,,space,0.478923082352,,,,,2017_Jan_23_1652,59.7689500437,spr_backupper,001,Mo17,
,,,,,,,,,,,,,,,,,,,,,,,,,,,,,,,,,,,,,,,,,,,,,,,,,,,,,,,,,,,,,,,,,,,,,,,,,,,,,,,,,,,,,,,,,,,,,,,,,,,,,,,,,,,,,,,,,,,,,,,,,7,0,7,0,,,,,,,,,,,,,None,n,1.76153898239,,2017_Jan_23_1652,59.7689500437,spr_backupper,001,Mo17,
,Nicht,Unter,Die,Wir,Mit,Sie,In,Er,Außer,Jugendliche,Viele,Alle,Er,Die,Wir,Ihr,Er,Man,Außer,Er,Die,Die,Er,In,Sie,Die,Die,Walter,Bei,Fernab,Die,100,Wir,Die,In,Als,Die,Bei,Es,Der,Bei,Die,Das,100,Es,Es,In,Sie,Ich,In,Sie,Die,Es,Wir,Dort,Viele,In,Die,Jetzt,Dort,Die,Die,Die,Die,Man,In,Außer,Ich,Nicht,Beträchtliche,Mit,Dass,Danach,Außer,Bei,Die,Wir,Wir,Jungtiere,Wir,Sie,Beträchtliche,Die,Die,Im,Es,Sie,Die,Am,Sie,Am,Wir,Wir,Die,Manche,In,Im,Ich,,,,,,,,,,,,,,,,,,,,,,,8,0,8,0,0,0,0,0,,,,,,None,space,0.505321979523,,,,,2017_Jan_23_1652,59.7689500437,spr_backupper,001,Mo17,
,ein,keinen,"Uhr,",haben,dieser,verlassen,meinem,wurde,dem,können,Tonnen,Betten,hat,Formen,hatten,Blutdruck,wurde,machte,das,stellt,Uhr,Autos,stellt,der,verbrauchen,Schule,Schule,Scheel,unserer,des,Autos,g,haben,Uhr,meinem,die,Lösung,der,hat,Flug,unserer,Stücke,Tuch,g,wurden,waren,einer,verlassen,nehme,diesem,verbrauchen,Linie,waren,übergaben,türmen,Tonnen,der,müden,ist,türmen,Eislaufbahnen,Schuhe,Teilnehmerinnen,Kinder,machte,den,den,wurde,ein,Stücke,dieser,es,wurde,dem,der,Uhr,mussten,konnten,sollten,mussten,hatte,Stücke,Kinder,Gäste,Fernrohr,wurden,hatte,Schuhe,äußeren,haben,äußersten,hatten,übergaben,Gäste,Kreditnehmer,den,Fernrohr,nehme,,,,,,,,,,,,,,,,,,,,,,,8,0,8,0,0,1,1,1,,,,,,,space,0.542912006378,,,,,2017_Jan_23_1652,59.7689500437,spr_backupper,001,Mo17,
,Tropfen,Umständen,die,jede,Methode,wegen,Studium,trotz,Essen,Kleidung,gebrauchte,wurden,ein,wurden,in,kann,trotz,mal,Essen,die,schlug,beider,die,Tat,60,verbraucht,verbraucht,war,Ankunft,Rummels,beider,braunen,jede,schlug,Studium,Sonne,wird,Feier,uns,zum,Ankunft,wurden,wurde,brauner,Eimer,nur,Studie,wegen,eine,Zirkus,60,101,nur,dem,sich,gebrauchter,Tat,Teilnehmer,genau,sich,wurden,in,wussten,fuhren,mal,Kakao,Bürgermeister,damals,Tropfen,saftigen,Methode,"regnete,",die,Bürgermeister,Feier,war,uns,dann,immer,uns,keine,saftiges,fuhren,suchen,sahen,Eimer,keine,in,Rand,die,Rand,in,das,suchen,sind,Kakao,sahen,eine,,,,,,,,,,,,,,,,,,,,,,,8,0,8,0,0,2,2,2,,,,,,,space,0.651176929474,,,,,2017_Jan_23_1652,59.7689500437,spr_backupper,001,Mo17,
,königlichen,können,er,Menge,kann,des,habe,des,kann,bei,Kleidung,mit,Hemd,unter,Dänemark,schon,dem,wieder,kann,Masse,"sporadisch,",beteiligten,Masse,wissen,Liter,260.000,260.000,der,stand,wurde,beteiligter,Zuckers,Menge,"sporadisch,",las,"unterging,",mit,gedachte,die,Mond,stand,aus,dann,Zucker,roter,kleinere,wurde,dem,große,werden,Liter,hält,kleinere,Mann,Berge,Kleidung,wissen,wurden,die,Berge,mit,Größe,überwiegend,mit,wieder,gehören,beschuldigten,schnell,königliches,Fleischs,kann,hat,Leinwand,beschuldigten,gedachte,aus,durch,mit,auf,durch,Lust,Fleisch,mit,die,wir,rote,Lust,Größe,der,Erlebnisse,der,Dänemark,Auto,die,mit,gehören,wir,große,,,,,,,,,,,,,,,,,,,,,,,8,0,8,0,0,3,3,3,,,,,,,space,0.308250904083,,,,,2017_Jan_23_1652,59.7689500437,spr_backupper,001,Mo17,
,Bluts,Neuwahlen,"trug,",alten,man,schönen,ich,bekannten,ich,ausreichendem,landen,"üblichem,",aus,"regelmäßigem,",gelegentlich,bei,bekannten,viel,ich,mit,obwohl,Fahrer,mit,wir,sprudelnden,Kilowattstunden,Kilowattstunden,vierte,ein,schon,Fahrer,sind,alten,obschon,ich,war,"reichlichem,",man,Stimmung,dauerte,ein,"wertvollem,",mit,sind,Farbe,"Delikte,",jetzt,schönen,Packung,die,sprudelndes,nicht,"Delikte,",das,schmutzige,landen,wir,mit,richtige,schmutziger,dauerhaftem,36,"nicht,",solchen,viel,immer,die,dank,Blut,wurden,man,uns,aus,die,man,"Japan,",Büschel,"minimalem,",warmem,Büschel,auf,wurden,solch,Wohnung,den,Farbe,auf,36,Stadt,bei,Stadt,einen,dem,Wohnung,"sämtlichem,",immer,den,Packung,,,,,,,,,,,,,,,,,,,,,,,8,0,8,0,0,4,4,4,,,,,,,space,0.525009870529,,,,,2017_Jan_23_1652,59.7689500437,spr_backupper,001,Mo17,
,hat,vor,war,Kram,eine,Wetters,mehr,Skandals,leider,monatlichem,im,harten,feinem,kaltem,einen,minimalem,Skandal,Lärm,leider,einem,sie,wurden,einem,von,Trinkwassers.,elektrische,elektrischer,Bundespräsident.,Glas,immer,wurden,auf,Krams,sie,mehr,die,purem,der,ziemlich,ungefähr,Glas,klassischen,"reichem,",auf,geschleudert.,derer,"nachgewiesen,",Wetter,salzige,Tiere,Trinkwasser.,am,deren,Auto,Wäsche.,im,um,zusätzlichem,"Zeit,",Wäsche.,feinem,würden,was,unzureichenden,Lärm,350,Störenfriede,täglichem,hat,serviert.,eine,die,seltenem,Störenfriede,den,die,frischen,sauberen,weichem,frisches,noch,serviert.,unzureichenden,des,roten,geschleudert.,noch,hätten,liegen,"frischem,",liegen,gelegentlichen,Mann,des,künftigem,350,roten,salziger,,,,,,,,,,,,,,,,,,,,,,,8,0,8,0,0,5,5,5,,,,,,,space,0.402703046799,,,,,2017_Jan_23_1652,59.7689500437,spr_backupper,001,Mo17,
,den,Dezember,aus,aus,große,die,als,wiedergewählt.,nichts,Taschengeld,Müll.,Schaumstoff,dichten,Abduschen,Besucher.,täglichen,wiedergewählt.,um,nichts,Esslöffel,defekt,verschrottet.,Esslöffel,den,nan,Energie.,Energie.,nan,köstlicher,ruhig,verschrottet.,jeden,aus,defekt,als,Flut,Alkohol,Soldaten,"vermiest,",drei,köstlichen,Schmuck,goldenen,jeden,nan,sie,dass,die,Wurst,artgerecht,nan,Hauptbahnhof.,sie,mehr,nan,Müll.,die,schwarzem,um,nan,Kunsteis,seiner,Tupperware,Helmen,um,ml,jeden.,grünen,den,nan,große,Stimmung,dichten,jeden.,Soldaten,er,Grases,Kraftstoff,Untergrund,Gras,eine,nan,Helmen,Herrn,Planet,nan,eine,seiner,die,kaltem,die,Besucher.,mehr,Herrn,Einkommen,ml,Planeten,Wurst,,,,,,,,,,,,,,,,,,,,,,,8,0,8,0,0,6,6,6,,,,,,,space,0.386753082275,,,,,2017_Jan_23_1652,59.7689500437,spr_backupper,001,Mo17,
,Boden,stattfinden.,Japan.,dem,Menge,Wohnung.,einmal,nan,mitbringen.,selber,nan,gefertigt.,Stoff,gehärtet.,nan,Einsatz,nan,jede,mitbringen.,warmem,war.,nan,warmen,Problemen,nan,nan,nan,nan,Wein,diskutiert.,nan,Fall,dem,war.,einmal,zurückgekehrt.,verdünnt.,des,dass,Tage.,Weins,umgearbeitet.,Besatz,Fall,nan,überführt,das,Wohnung.,mit,gehalten.,nan,nan,überführt,als,nan,nan,Probleme,Kaffee,Nadelhölzer,nan,eingesprüht.,Frau,ist.,zur,jede,warme,nan,Tee,Boden,nan,Menge,ziemlich,Gewebe,nan,des,trug.,zwängen.,fahren.,liegen.,zwängen.,Sammlung,nan,zur,Gantenbein.,ganz,nan,Sammlung,Frau,Slums.,Saft,Slums.,nan,als,Gantenbeins.,haftbar.,warmer,ganz,mit,,,,,,,,,,,,,,,,,,,,,,,8,0,8,0,0,7,7,7,,,,,,,space,0.633316040039,,,,,2017_Jan_23_1652,59.7689500437,spr_backupper,001,Mo17,
,,,,,,,,,,,,,,,,,,,,,,,,,,,,,,,,,,,,,,,,,,,,,,,,,,,,,,,,,,,,,,,,,,,,,,,,,,,,,,,,,,,,,,,,,,,,,,,,,,,,,,,,,,,,,,,,,,,,,,,,,8,0,8,0,,,,,,,,,,,,,None,j,2.89363694191,,2017_Jan_23_1652,59.7689500437,spr_backupper,001,Mo17,
,Nicht,Unter,Die,Wir,Mit,Sie,In,Er,Außer,Jugendliche,Viele,Alle,Er,Die,Wir,Ihr,Er,Man,Außer,Er,Die,Die,Er,In,Sie,Die,Die,Walter,Bei,Fernab,Die,100,Wir,Die,In,Als,Die,Bei,Es,Der,Bei,Die,Das,100,Es,Es,In,Sie,Ich,In,Sie,Die,Es,Wir,Dort,Viele,In,Die,Jetzt,Dort,Die,Die,Die,Die,Man,In,Außer,Ich,Nicht,Beträchtliche,Mit,Dass,Danach,Außer,Bei,Die,Wir,Wir,Jungtiere,Wir,Sie,Beträchtliche,Die,Die,Im,Es,Sie,Die,Am,Sie,Am,Wir,Wir,Die,Manche,In,Im,Ich,,,,,,,,,,,,,,,,,,,,,,,9,0,9,0,0,0,0,0,,,,,,None,space,0.841464996338,,,,,2017_Jan_23_1652,59.7689500437,spr_backupper,001,Mo17,
,ein,keinen,"Uhr,",haben,dieser,verlassen,meinem,wurde,dem,können,Tonnen,Betten,hat,Formen,hatten,Blutdruck,wurde,machte,das,stellt,Uhr,Autos,stellt,der,verbrauchen,Schule,Schule,Scheel,unserer,des,Autos,g,haben,Uhr,meinem,die,Lösung,der,hat,Flug,unserer,Stücke,Tuch,g,wurden,waren,einer,verlassen,nehme,diesem,verbrauchen,Linie,waren,übergaben,türmen,Tonnen,der,müden,ist,türmen,Eislaufbahnen,Schuhe,Teilnehmerinnen,Kinder,machte,den,den,wurde,ein,Stücke,dieser,es,wurde,dem,der,Uhr,mussten,konnten,sollten,mussten,hatte,Stücke,Kinder,Gäste,Fernrohr,wurden,hatte,Schuhe,äußeren,haben,äußersten,hatten,übergaben,Gäste,Kreditnehmer,den,Fernrohr,nehme,,,,,,,,,,,,,,,,,,,,,,,9,0,9,0,0,1,1,1,,,,,,,space,0.366472959518,,,,,2017_Jan_23_1652,59.7689500437,spr_backupper,001,Mo17,
,Tropfen,Umständen,die,jede,Methode,wegen,Studium,trotz,Essen,Kleidung,gebrauchte,wurden,ein,wurden,in,kann,trotz,mal,Essen,die,schlug,beider,die,Tat,60,verbraucht,verbraucht,war,Ankunft,Rummels,beider,braunen,jede,schlug,Studium,Sonne,wird,Feier,uns,zum,Ankunft,wurden,wurde,brauner,Eimer,nur,Studie,wegen,eine,Zirkus,60,101,nur,dem,sich,gebrauchter,Tat,Teilnehmer,genau,sich,wurden,in,wussten,fuhren,mal,Kakao,Bürgermeister,damals,Tropfen,saftigen,Methode,"regnete,",die,Bürgermeister,Feier,war,uns,dann,immer,uns,keine,saftiges,fuhren,suchen,sahen,Eimer,keine,in,Rand,die,Rand,in,das,suchen,sind,Kakao,sahen,eine,,,,,,,,,,,,,,,,,,,,,,,9,0,9,0,0,2,2,2,,,,,,,space,0.368613958359,,,,,2017_Jan_23_1652,59.7689500437,spr_backupper,001,Mo17,
,königlichen,können,er,Menge,kann,des,habe,des,kann,bei,Kleidung,mit,Hemd,unter,Dänemark,schon,dem,wieder,kann,Masse,"sporadisch,",beteiligten,Masse,wissen,Liter,260.000,260.000,der,stand,wurde,beteiligter,Zuckers,Menge,"sporadisch,",las,"unterging,",mit,gedachte,die,Mond,stand,aus,dann,Zucker,roter,kleinere,wurde,dem,große,werden,Liter,hält,kleinere,Mann,Berge,Kleidung,wissen,wurden,die,Berge,mit,Größe,überwiegend,mit,wieder,gehören,beschuldigten,schnell,königliches,Fleischs,kann,hat,Leinwand,beschuldigten,gedachte,aus,durch,mit,auf,durch,Lust,Fleisch,mit,die,wir,rote,Lust,Größe,der,Erlebnisse,der,Dänemark,Auto,die,mit,gehören,wir,große,,,,,,,,,,,,,,,,,,,,,,,9,0,9,0,0,3,3,3,,,,,,,space,0.402601003647,,,,,2017_Jan_23_1652,59.7689500437,spr_backupper,001,Mo17,
,Bluts,Neuwahlen,"trug,",alten,man,schönen,ich,bekannten,ich,ausreichendem,landen,"üblichem,",aus,"regelmäßigem,",gelegentlich,bei,bekannten,viel,ich,mit,obwohl,Fahrer,mit,wir,sprudelnden,Kilowattstunden,Kilowattstunden,vierte,ein,schon,Fahrer,sind,alten,obschon,ich,war,"reichlichem,",man,Stimmung,dauerte,ein,"wertvollem,",mit,sind,Farbe,"Delikte,",jetzt,schönen,Packung,die,sprudelndes,nicht,"Delikte,",das,schmutzige,landen,wir,mit,richtige,schmutziger,dauerhaftem,36,"nicht,",solchen,viel,immer,die,dank,Blut,wurden,man,uns,aus,die,man,"Japan,",Büschel,"minimalem,",warmem,Büschel,auf,wurden,solch,Wohnung,den,Farbe,auf,36,Stadt,bei,Stadt,einen,dem,Wohnung,"sämtlichem,",immer,den,Packung,,,,,,,,,,,,,,,,,,,,,,,9,0,9,0,0,4,4,4,,,,,,,space,0.318640947342,,,,,2017_Jan_23_1652,59.7689500437,spr_backupper,001,Mo17,
,hat,vor,war,Kram,eine,Wetters,mehr,Skandals,leider,monatlichem,im,harten,feinem,kaltem,einen,minimalem,Skandal,Lärm,leider,einem,sie,wurden,einem,von,Trinkwassers.,elektrische,elektrischer,Bundespräsident.,Glas,immer,wurden,auf,Krams,sie,mehr,die,purem,der,ziemlich,ungefähr,Glas,klassischen,"reichem,",auf,geschleudert.,derer,"nachgewiesen,",Wetter,salzige,Tiere,Trinkwasser.,am,deren,Auto,Wäsche.,im,um,zusätzlichem,"Zeit,",Wäsche.,feinem,würden,was,unzureichenden,Lärm,350,Störenfriede,täglichem,hat,serviert.,eine,die,seltenem,Störenfriede,den,die,frischen,sauberen,weichem,frisches,noch,serviert.,unzureichenden,des,roten,geschleudert.,noch,hätten,liegen,"frischem,",liegen,gelegentlichen,Mann,des,künftigem,350,roten,salziger,,,,,,,,,,,,,,,,,,,,,,,9,0,9,0,0,5,5,5,,,,,,,space,0.344223022461,,,,,2017_Jan_23_1652,59.7689500437,spr_backupper,001,Mo17,
,den,Dezember,aus,aus,große,die,als,wiedergewählt.,nichts,Taschengeld,Müll.,Schaumstoff,dichten,Abduschen,Besucher.,täglichen,wiedergewählt.,um,nichts,Esslöffel,defekt,verschrottet.,Esslöffel,den,nan,Energie.,Energie.,nan,köstlicher,ruhig,verschrottet.,jeden,aus,defekt,als,Flut,Alkohol,Soldaten,"vermiest,",drei,köstlichen,Schmuck,goldenen,jeden,nan,sie,dass,die,Wurst,artgerecht,nan,Hauptbahnhof.,sie,mehr,nan,Müll.,die,schwarzem,um,nan,Kunsteis,seiner,Tupperware,Helmen,um,ml,jeden.,grünen,den,nan,große,Stimmung,dichten,jeden.,Soldaten,er,Grases,Kraftstoff,Untergrund,Gras,eine,nan,Helmen,Herrn,Planet,nan,eine,seiner,die,kaltem,die,Besucher.,mehr,Herrn,Einkommen,ml,Planeten,Wurst,,,,,,,,,,,,,,,,,,,,,,,9,0,9,0,0,6,6,6,,,,,,,space,0.466714859009,,,,,2017_Jan_23_1652,59.7689500437,spr_backupper,001,Mo17,
,Boden,stattfinden.,Japan.,dem,Menge,Wohnung.,einmal,nan,mitbringen.,selber,nan,gefertigt.,Stoff,gehärtet.,nan,Einsatz,nan,jede,mitbringen.,warmem,war.,nan,warmen,Problemen,nan,nan,nan,nan,Wein,diskutiert.,nan,Fall,dem,war.,einmal,zurückgekehrt.,verdünnt.,des,dass,Tage.,Weins,umgearbeitet.,Besatz,Fall,nan,überführt,das,Wohnung.,mit,gehalten.,nan,nan,überführt,als,nan,nan,Probleme,Kaffee,Nadelhölzer,nan,eingesprüht.,Frau,ist.,zur,jede,warme,nan,Tee,Boden,nan,Menge,ziemlich,Gewebe,nan,des,trug.,zwängen.,fahren.,liegen.,zwängen.,Sammlung,nan,zur,Gantenbein.,ganz,nan,Sammlung,Frau,Slums.,Saft,Slums.,nan,als,Gantenbeins.,haftbar.,warmer,ganz,mit,,,,,,,,,,,,,,,,,,,,,,,9,0,9,0,0,7,7,7,,,,,,,space,0.508394002914,,,,,2017_Jan_23_1652,59.7689500437,spr_backupper,001,Mo17,
,berührt.,nan,nan,Haus,dunkle,nan,Rilke,nan,nan,kaufen.,nan,nan,gefertigt.,nan,nan,sinken.,nan,Menge,nan,Honig,nan,nan,Honigs,im,nan,nan,nan,nan,schon,nan,nan,genug.,Haus,nan,Rilke.,nan,nan,zweiten,es,nan,schon,nan,rekonstruiert.,genug.,nan,wurden.,Medikament,nan,an,nan,nan,nan,wurden.,gerne.,nan,nan,im,wiederbelebt.,umzusetzen.,nan,nan,gepasst,nan,Schule.,Menge,Milch.,nan,wieder,berührt.,nan,dunkler,vermiest.,wiederhergestellt.,nan,zweiten,nan,nan,nan,nan,nan,dumme,nan,Schule.,nan,deutlich.,nan,dummer,gepasst.,nan,besprochen.,nan,nan,gerne.,nan,nan,Milch.,deutlich.,an,,,,,,,,,,,,,,,,,,,,,,,9,0,9,0,0,8,8,8,,,,,,,space,0.511783123016,,,,,2017_Jan_23_1652,59.7689500437,spr_backupper,001,Mo17,
,nan,nan,nan,geschafft.,Materie,nan,gelesen.,nan,nan,nan,nan,nan,nan,nan,nan,nan,nan,heiße,nan,her.,nan,nan,her.,Landkreis.,nan,nan,nan,nan,auf,nan,nan,nan,geschafft.,nan,nan,nan,nan,Weltkriegs.,regnete.,nan,auf,nan,nan,nan,nan,nan,nicht,nan,den,nan,nan,nan,nan,nan,nan,nan,Landkreis.,nan,nan,nan,nan,haben.,nan,nan,heißer,nan,nan,fit.,nan,nan,Materie,nan,nan,nan,Weltkriegs.,nan,nan,nan,nan,nan,Sprüche.,nan,nan,nan,nan,nan,Sprüche.,nan,nan,nan,nan,nan,nan,nan,nan,nan,nan,den,,,,,,,,,,,,,,,,,,,,,,,9,0,9,0,0,9,9,9,,,,,,,space,0.397140979767,,,,,2017_Jan_23_1652,59.7689500437,spr_backupper,001,Mo17,
,,,,,,,,,,,,,,,,,,,,,,,,,,,,,,,,,,,,,,,,,,,,,,,,,,,,,,,,,,,,,,,,,,,,,,,,,,,,,,,,,,,,,,,,,,,,,,,,,,,,,,,,,,,,,,,,,,,,,,,,,9,0,9,0,,,,,,,,,,,,,None,j,1.35823297501,,2017_Jan_23_1652,59.7689500437,spr_backupper,001,Mo17,
,Nicht,Unter,Die,Wir,Mit,Sie,In,Er,Außer,Jugendliche,Viele,Alle,Er,Die,Wir,Ihr,Er,Man,Außer,Er,Die,Die,Er,In,Sie,Die,Die,Walter,Bei,Fernab,Die,100,Wir,Die,In,Als,Die,Bei,Es,Der,Bei,Die,Das,100,Es,Es,In,Sie,Ich,In,Sie,Die,Es,Wir,Dort,Viele,In,Die,Jetzt,Dort,Die,Die,Die,Die,Man,In,Außer,Ich,Nicht,Beträchtliche,Mit,Dass,Danach,Außer,Bei,Die,Wir,Wir,Jungtiere,Wir,Sie,Beträchtliche,Die,Die,Im,Es,Sie,Die,Am,Sie,Am,Wir,Wir,Die,Manche,In,Im,Ich,,,,,,,,,,,,,,,,,,,,,,,10,0,10,0,0,0,0,0,,,,,,None,space,0.924402952194,,,,,2017_Jan_23_1652,59.7689500437,spr_backupper,001,Mo17,
,ein,keinen,"Uhr,",haben,dieser,verlassen,meinem,wurde,dem,können,Tonnen,Betten,hat,Formen,hatten,Blutdruck,wurde,machte,das,stellt,Uhr,Autos,stellt,der,verbrauchen,Schule,Schule,Scheel,unserer,des,Autos,g,haben,Uhr,meinem,die,Lösung,der,hat,Flug,unserer,Stücke,Tuch,g,wurden,waren,einer,verlassen,nehme,diesem,verbrauchen,Linie,waren,übergaben,türmen,Tonnen,der,müden,ist,türmen,Eislaufbahnen,Schuhe,Teilnehmerinnen,Kinder,machte,den,den,wurde,ein,Stücke,dieser,es,wurde,dem,der,Uhr,mussten,konnten,sollten,mussten,hatte,Stücke,Kinder,Gäste,Fernrohr,wurden,hatte,Schuhe,äußeren,haben,äußersten,hatten,übergaben,Gäste,Kreditnehmer,den,Fernrohr,nehme,,,,,,,,,,,,,,,,,,,,,,,10,0,10,0,0,1,1,1,,,,,,,space,0.452539920807,,,,,2017_Jan_23_1652,59.7689500437,spr_backupper,001,Mo17,
,Tropfen,Umständen,die,jede,Methode,wegen,Studium,trotz,Essen,Kleidung,gebrauchte,wurden,ein,wurden,in,kann,trotz,mal,Essen,die,schlug,beider,die,Tat,60,verbraucht,verbraucht,war,Ankunft,Rummels,beider,braunen,jede,schlug,Studium,Sonne,wird,Feier,uns,zum,Ankunft,wurden,wurde,brauner,Eimer,nur,Studie,wegen,eine,Zirkus,60,101,nur,dem,sich,gebrauchter,Tat,Teilnehmer,genau,sich,wurden,in,wussten,fuhren,mal,Kakao,Bürgermeister,damals,Tropfen,saftigen,Methode,"regnete,",die,Bürgermeister,Feier,war,uns,dann,immer,uns,keine,saftiges,fuhren,suchen,sahen,Eimer,keine,in,Rand,die,Rand,in,das,suchen,sind,Kakao,sahen,eine,,,,,,,,,,,,,,,,,,,,,,,10,0,10,0,0,2,2,2,,,,,,,space,0.336272001266,,,,,2017_Jan_23_1652,59.7689500437,spr_backupper,001,Mo17,
,königlichen,können,er,Menge,kann,des,habe,des,kann,bei,Kleidung,mit,Hemd,unter,Dänemark,schon,dem,wieder,kann,Masse,"sporadisch,",beteiligten,Masse,wissen,Liter,260.000,260.000,der,stand,wurde,beteiligter,Zuckers,Menge,"sporadisch,",las,"unterging,",mit,gedachte,die,Mond,stand,aus,dann,Zucker,roter,kleinere,wurde,dem,große,werden,Liter,hält,kleinere,Mann,Berge,Kleidung,wissen,wurden,die,Berge,mit,Größe,überwiegend,mit,wieder,gehören,beschuldigten,schnell,königliches,Fleischs,kann,hat,Leinwand,beschuldigten,gedachte,aus,durch,mit,auf,durch,Lust,Fleisch,mit,die,wir,rote,Lust,Größe,der,Erlebnisse,der,Dänemark,Auto,die,mit,gehören,wir,große,,,,,,,,,,,,,,,,,,,,,,,10,0,10,0,0,3,3,3,,,,,,,space,0.335083961487,,,,,2017_Jan_23_1652,59.7689500437,spr_backupper,001,Mo17,
,Bluts,Neuwahlen,"trug,",alten,man,schönen,ich,bekannten,ich,ausreichendem,landen,"üblichem,",aus,"regelmäßigem,",gelegentlich,bei,bekannten,viel,ich,mit,obwohl,Fahrer,mit,wir,sprudelnden,Kilowattstunden,Kilowattstunden,vierte,ein,schon,Fahrer,sind,alten,obschon,ich,war,"reichlichem,",man,Stimmung,dauerte,ein,"wertvollem,",mit,sind,Farbe,"Delikte,",jetzt,schönen,Packung,die,sprudelndes,nicht,"Delikte,",das,schmutzige,landen,wir,mit,richtige,schmutziger,dauerhaftem,36,"nicht,",solchen,viel,immer,die,dank,Blut,wurden,man,uns,aus,die,man,"Japan,",Büschel,"minimalem,",warmem,Büschel,auf,wurden,solch,Wohnung,den,Farbe,auf,36,Stadt,bei,Stadt,einen,dem,Wohnung,"sämtlichem,",immer,den,Packung,,,,,,,,,,,,,,,,,,,,,,,10,0,10,0,0,4,4,4,,,,,,,space,0.352882146835,,,,,2017_Jan_23_1652,59.7689500437,spr_backupper,001,Mo17,
,hat,vor,war,Kram,eine,Wetters,mehr,Skandals,leider,monatlichem,im,harten,feinem,kaltem,einen,minimalem,Skandal,Lärm,leider,einem,sie,wurden,einem,von,Trinkwassers.,elektrische,elektrischer,Bundespräsident.,Glas,immer,wurden,auf,Krams,sie,mehr,die,purem,der,ziemlich,ungefähr,Glas,klassischen,"reichem,",auf,geschleudert.,derer,"nachgewiesen,",Wetter,salzige,Tiere,Trinkwasser.,am,deren,Auto,Wäsche.,im,um,zusätzlichem,"Zeit,",Wäsche.,feinem,würden,was,unzureichenden,Lärm,350,Störenfriede,täglichem,hat,serviert.,eine,die,seltenem,Störenfriede,den,die,frischen,sauberen,weichem,frisches,noch,serviert.,unzureichenden,des,roten,geschleudert.,noch,hätten,liegen,"frischem,",liegen,gelegentlichen,Mann,des,künftigem,350,roten,salziger,,,,,,,,,,,,,,,,,,,,,,,10,0,10,0,0,5,5,5,,,,,,,space,0.351524114609,,,,,2017_Jan_23_1652,59.7689500437,spr_backupper,001,Mo17,
,den,Dezember,aus,aus,große,die,als,wiedergewählt.,nichts,Taschengeld,Müll.,Schaumstoff,dichten,Abduschen,Besucher.,täglichen,wiedergewählt.,um,nichts,Esslöffel,defekt,verschrottet.,Esslöffel,den,nan,Energie.,Energie.,nan,köstlicher,ruhig,verschrottet.,jeden,aus,defekt,als,Flut,Alkohol,Soldaten,"vermiest,",drei,köstlichen,Schmuck,goldenen,jeden,nan,sie,dass,die,Wurst,artgerecht,nan,Hauptbahnhof.,sie,mehr,nan,Müll.,die,schwarzem,um,nan,Kunsteis,seiner,Tupperware,Helmen,um,ml,jeden.,grünen,den,nan,große,Stimmung,dichten,jeden.,Soldaten,er,Grases,Kraftstoff,Untergrund,Gras,eine,nan,Helmen,Herrn,Planet,nan,eine,seiner,die,kaltem,die,Besucher.,mehr,Herrn,Einkommen,ml,Planeten,Wurst,,,,,,,,,,,,,,,,,,,,,,,10,0,10,0,0,6,6,6,,,,,,,space,1.46022796631,,,,,2017_Jan_23_1652,59.7689500437,spr_backupper,001,Mo17,
,Boden,stattfinden.,Japan.,dem,Menge,Wohnung.,einmal,nan,mitbringen.,selber,nan,gefertigt.,Stoff,gehärtet.,nan,Einsatz,nan,jede,mitbringen.,warmem,war.,nan,warmen,Problemen,nan,nan,nan,nan,Wein,diskutiert.,nan,Fall,dem,war.,einmal,zurückgekehrt.,verdünnt.,des,dass,Tage.,Weins,umgearbeitet.,Besatz,Fall,nan,überführt,das,Wohnung.,mit,gehalten.,nan,nan,überführt,als,nan,nan,Probleme,Kaffee,Nadelhölzer,nan,eingesprüht.,Frau,ist.,zur,jede,warme,nan,Tee,Boden,nan,Menge,ziemlich,Gewebe,nan,des,trug.,zwängen.,fahren.,liegen.,zwängen.,Sammlung,nan,zur,Gantenbein.,ganz,nan,Sammlung,Frau,Slums.,Saft,Slums.,nan,als,Gantenbeins.,haftbar.,warmer,ganz,mit,,,,,,,,,,,,,,,,,,,,,,,10,0,10,0,0,7,7,7,,,,,,,space,0.340953826904,,,,,2017_Jan_23_1652,59.7689500437,spr_backupper,001,Mo17,
,berührt.,nan,nan,Haus,dunkle,nan,Rilke,nan,nan,kaufen.,nan,nan,gefertigt.,nan,nan,sinken.,nan,Menge,nan,Honig,nan,nan,Honigs,im,nan,nan,nan,nan,schon,nan,nan,genug.,Haus,nan,Rilke.,nan,nan,zweiten,es,nan,schon,nan,rekonstruiert.,genug.,nan,wurden.,Medikament,nan,an,nan,nan,nan,wurden.,gerne.,nan,nan,im,wiederbelebt.,umzusetzen.,nan,nan,gepasst,nan,Schule.,Menge,Milch.,nan,wieder,berührt.,nan,dunkler,vermiest.,wiederhergestellt.,nan,zweiten,nan,nan,nan,nan,nan,dumme,nan,Schule.,nan,deutlich.,nan,dummer,gepasst.,nan,besprochen.,nan,nan,gerne.,nan,nan,Milch.,deutlich.,an,,,,,,,,,,,,,,,,,,,,,,,10,0,10,0,0,8,8,8,,,,,,,space,0.620638132095,,,,,2017_Jan_23_1652,59.7689500437,spr_backupper,001,Mo17,
,nan,nan,nan,geschafft.,Materie,nan,gelesen.,nan,nan,nan,nan,nan,nan,nan,nan,nan,nan,heiße,nan,her.,nan,nan,her.,Landkreis.,nan,nan,nan,nan,auf,nan,nan,nan,geschafft.,nan,nan,nan,nan,Weltkriegs.,regnete.,nan,auf,nan,nan,nan,nan,nan,nicht,nan,den,nan,nan,nan,nan,nan,nan,nan,Landkreis.,nan,nan,nan,nan,haben.,nan,nan,heißer,nan,nan,fit.,nan,nan,Materie,nan,nan,nan,Weltkriegs.,nan,nan,nan,nan,nan,Sprüche.,nan,nan,nan,nan,nan,Sprüche.,nan,nan,nan,nan,nan,nan,nan,nan,nan,nan,den,,,,,,,,,,,,,,,,,,,,,,,10,0,10,0,0,9,9,9,,,,,,,space,0.403565168381,,,,,2017_Jan_23_1652,59.7689500437,spr_backupper,001,Mo17,
,,,,,,,,,,,,,,,,,,,,,,,,,,,,,,,,,,,,,,,,,,,,,,,,,,,,,,,,,,,,,,,,,,,,,,,,,,,,,,,,,,,,,,,,,,,,,,,,,,,,,,,,,,,,,,,,,,,,,,,,,10,0,10,0,,,,,,,,,,,,,None,n,4.76246285439,,2017_Jan_23_1652,59.7689500437,spr_backupper,001,Mo17,
,Nicht,Unter,Die,Wir,Mit,Sie,In,Er,Außer,Jugendliche,Viele,Alle,Er,Die,Wir,Ihr,Er,Man,Außer,Er,Die,Die,Er,In,Sie,Die,Die,Walter,Bei,Fernab,Die,100,Wir,Die,In,Als,Die,Bei,Es,Der,Bei,Die,Das,100,Es,Es,In,Sie,Ich,In,Sie,Die,Es,Wir,Dort,Viele,In,Die,Jetzt,Dort,Die,Die,Die,Die,Man,In,Außer,Ich,Nicht,Beträchtliche,Mit,Dass,Danach,Außer,Bei,Die,Wir,Wir,Jungtiere,Wir,Sie,Beträchtliche,Die,Die,Im,Es,Sie,Die,Am,Sie,Am,Wir,Wir,Die,Manche,In,Im,Ich,,,,,,,,,,,,,,,,,,,,,,,11,0,11,0,0,0,0,0,,,,,,None,space,0.73132610321,,,,,2017_Jan_23_1652,59.7689500437,spr_backupper,001,Mo17,
,ein,keinen,"Uhr,",haben,dieser,verlassen,meinem,wurde,dem,können,Tonnen,Betten,hat,Formen,hatten,Blutdruck,wurde,machte,das,stellt,Uhr,Autos,stellt,der,verbrauchen,Schule,Schule,Scheel,unserer,des,Autos,g,haben,Uhr,meinem,die,Lösung,der,hat,Flug,unserer,Stücke,Tuch,g,wurden,waren,einer,verlassen,nehme,diesem,verbrauchen,Linie,waren,übergaben,türmen,Tonnen,der,müden,ist,türmen,Eislaufbahnen,Schuhe,Teilnehmerinnen,Kinder,machte,den,den,wurde,ein,Stücke,dieser,es,wurde,dem,der,Uhr,mussten,konnten,sollten,mussten,hatte,Stücke,Kinder,Gäste,Fernrohr,wurden,hatte,Schuhe,äußeren,haben,äußersten,hatten,übergaben,Gäste,Kreditnehmer,den,Fernrohr,nehme,,,,,,,,,,,,,,,,,,,,,,,11,0,11,0,0,1,1,1,,,,,,,space,0.341559171677,,,,,2017_Jan_23_1652,59.7689500437,spr_backupper,001,Mo17,
,Tropfen,Umständen,die,jede,Methode,wegen,Studium,trotz,Essen,Kleidung,gebrauchte,wurden,ein,wurden,in,kann,trotz,mal,Essen,die,schlug,beider,die,Tat,60,verbraucht,verbraucht,war,Ankunft,Rummels,beider,braunen,jede,schlug,Studium,Sonne,wird,Feier,uns,zum,Ankunft,wurden,wurde,brauner,Eimer,nur,Studie,wegen,eine,Zirkus,60,101,nur,dem,sich,gebrauchter,Tat,Teilnehmer,genau,sich,wurden,in,wussten,fuhren,mal,Kakao,Bürgermeister,damals,Tropfen,saftigen,Methode,"regnete,",die,Bürgermeister,Feier,war,uns,dann,immer,uns,keine,saftiges,fuhren,suchen,sahen,Eimer,keine,in,Rand,die,Rand,in,das,suchen,sind,Kakao,sahen,eine,,,,,,,,,,,,,,,,,,,,,,,11,0,11,0,0,2,2,2,,,,,,,space,0.269165992737,,,,,2017_Jan_23_1652,59.7689500437,spr_backupper,001,Mo17,
,königlichen,können,er,Menge,kann,des,habe,des,kann,bei,Kleidung,mit,Hemd,unter,Dänemark,schon,dem,wieder,kann,Masse,"sporadisch,",beteiligten,Masse,wissen,Liter,260.000,260.000,der,stand,wurde,beteiligter,Zuckers,Menge,"sporadisch,",las,"unterging,",mit,gedachte,die,Mond,stand,aus,dann,Zucker,roter,kleinere,wurde,dem,große,werden,Liter,hält,kleinere,Mann,Berge,Kleidung,wissen,wurden,die,Berge,mit,Größe,überwiegend,mit,wieder,gehören,beschuldigten,schnell,königliches,Fleischs,kann,hat,Leinwand,beschuldigten,gedachte,aus,durch,mit,auf,durch,Lust,Fleisch,mit,die,wir,rote,Lust,Größe,der,Erlebnisse,der,Dänemark,Auto,die,mit,gehören,wir,große,,,,,,,,,,,,,,,,,,,,,,,11,0,11,0,0,3,3,3,,,,,,,space,0.616662025452,,,,,2017_Jan_23_1652,59.7689500437,spr_backupper,001,Mo17,
,Bluts,Neuwahlen,"trug,",alten,man,schönen,ich,bekannten,ich,ausreichendem,landen,"üblichem,",aus,"regelmäßigem,",gelegentlich,bei,bekannten,viel,ich,mit,obwohl,Fahrer,mit,wir,sprudelnden,Kilowattstunden,Kilowattstunden,vierte,ein,schon,Fahrer,sind,alten,obschon,ich,war,"reichlichem,",man,Stimmung,dauerte,ein,"wertvollem,",mit,sind,Farbe,"Delikte,",jetzt,schönen,Packung,die,sprudelndes,nicht,"Delikte,",das,schmutzige,landen,wir,mit,richtige,schmutziger,dauerhaftem,36,"nicht,",solchen,viel,immer,die,dank,Blut,wurden,man,uns,aus,die,man,"Japan,",Büschel,"minimalem,",warmem,Büschel,auf,wurden,solch,Wohnung,den,Farbe,auf,36,Stadt,bei,Stadt,einen,dem,Wohnung,"sämtlichem,",immer,den,Packung,,,,,,,,,,,,,,,,,,,,,,,11,0,11,0,0,4,4,4,,,,,,,space,0.325550079346,,,,,2017_Jan_23_1652,59.7689500437,spr_backupper,001,Mo17,
,hat,vor,war,Kram,eine,Wetters,mehr,Skandals,leider,monatlichem,im,harten,feinem,kaltem,einen,minimalem,Skandal,Lärm,leider,einem,sie,wurden,einem,von,Trinkwassers.,elektrische,elektrischer,Bundespräsident.,Glas,immer,wurden,auf,Krams,sie,mehr,die,purem,der,ziemlich,ungefähr,Glas,klassischen,"reichem,",auf,geschleudert.,derer,"nachgewiesen,",Wetter,salzige,Tiere,Trinkwasser.,am,deren,Auto,Wäsche.,im,um,zusätzlichem,"Zeit,",Wäsche.,feinem,würden,was,unzureichenden,Lärm,350,Störenfriede,täglichem,hat,serviert.,eine,die,seltenem,Störenfriede,den,die,frischen,sauberen,weichem,frisches,noch,serviert.,unzureichenden,des,roten,geschleudert.,noch,hätten,liegen,"frischem,",liegen,gelegentlichen,Mann,des,künftigem,350,roten,salziger,,,,,,,,,,,,,,,,,,,,,,,11,0,11,0,0,5,5,5,,,,,,,space,0.419328927994,,,,,2017_Jan_23_1652,59.7689500437,spr_backupper,001,Mo17,
,den,Dezember,aus,aus,große,die,als,wiedergewählt.,nichts,Taschengeld,Müll.,Schaumstoff,dichten,Abduschen,Besucher.,täglichen,wiedergewählt.,um,nichts,Esslöffel,defekt,verschrottet.,Esslöffel,den,nan,Energie.,Energie.,nan,köstlicher,ruhig,verschrottet.,jeden,aus,defekt,als,Flut,Alkohol,Soldaten,"vermiest,",drei,köstlichen,Schmuck,goldenen,jeden,nan,sie,dass,die,Wurst,artgerecht,nan,Hauptbahnhof.,sie,mehr,nan,Müll.,die,schwarzem,um,nan,Kunsteis,seiner,Tupperware,Helmen,um,ml,jeden.,grünen,den,nan,große,Stimmung,dichten,jeden.,Soldaten,er,Grases,Kraftstoff,Untergrund,Gras,eine,nan,Helmen,Herrn,Planet,nan,eine,seiner,die,kaltem,die,Besucher.,mehr,Herrn,Einkommen,ml,Planeten,Wurst,,,,,,,,,,,,,,,,,,,,,,,11,0,11,0,0,6,6,6,,,,,,,space,0.30148601532,,,,,2017_Jan_23_1652,59.7689500437,spr_backupper,001,Mo17,
,,,,,,,,,,,,,,,,,,,,,,,,,,,,,,,,,,,,,,,,,,,,,,,,,,,,,,,,,,,,,,,,,,,,,,,,,,,,,,,,,,,,,,,,,,,,,,,,,,,,,,,,,,,,,,,,,,,,,,,,,11,0,11,0,,,,,,,,,,,,,None,n,1.88199591637,,2017_Jan_23_1652,59.7689500437,spr_backupper,001,Mo17,
,Nicht,Unter,Die,Wir,Mit,Sie,In,Er,Außer,Jugendliche,Viele,Alle,Er,Die,Wir,Ihr,Er,Man,Außer,Er,Die,Die,Er,In,Sie,Die,Die,Walter,Bei,Fernab,Die,100,Wir,Die,In,Als,Die,Bei,Es,Der,Bei,Die,Das,100,Es,Es,In,Sie,Ich,In,Sie,Die,Es,Wir,Dort,Viele,In,Die,Jetzt,Dort,Die,Die,Die,Die,Man,In,Außer,Ich,Nicht,Beträchtliche,Mit,Dass,Danach,Außer,Bei,Die,Wir,Wir,Jungtiere,Wir,Sie,Beträchtliche,Die,Die,Im,Es,Sie,Die,Am,Sie,Am,Wir,Wir,Die,Manche,In,Im,Ich,,,,,,,,,,,,,,,,,,,,,,,12,0,12,0,0,0,0,0,,,,,,None,space,1.00852608681,,,,,2017_Jan_23_1652,59.7689500437,spr_backupper,001,Mo17,
,ein,keinen,"Uhr,",haben,dieser,verlassen,meinem,wurde,dem,können,Tonnen,Betten,hat,Formen,hatten,Blutdruck,wurde,machte,das,stellt,Uhr,Autos,stellt,der,verbrauchen,Schule,Schule,Scheel,unserer,des,Autos,g,haben,Uhr,meinem,die,Lösung,der,hat,Flug,unserer,Stücke,Tuch,g,wurden,waren,einer,verlassen,nehme,diesem,verbrauchen,Linie,waren,übergaben,türmen,Tonnen,der,müden,ist,türmen,Eislaufbahnen,Schuhe,Teilnehmerinnen,Kinder,machte,den,den,wurde,ein,Stücke,dieser,es,wurde,dem,der,Uhr,mussten,konnten,sollten,mussten,hatte,Stücke,Kinder,Gäste,Fernrohr,wurden,hatte,Schuhe,äußeren,haben,äußersten,hatten,übergaben,Gäste,Kreditnehmer,den,Fernrohr,nehme,,,,,,,,,,,,,,,,,,,,,,,12,0,12,0,0,1,1,1,,,,,,,space,0.554345846176,,,,,2017_Jan_23_1652,59.7689500437,spr_backupper,001,Mo17,
,Tropfen,Umständen,die,jede,Methode,wegen,Studium,trotz,Essen,Kleidung,gebrauchte,wurden,ein,wurden,in,kann,trotz,mal,Essen,die,schlug,beider,die,Tat,60,verbraucht,verbraucht,war,Ankunft,Rummels,beider,braunen,jede,schlug,Studium,Sonne,wird,Feier,uns,zum,Ankunft,wurden,wurde,brauner,Eimer,nur,Studie,wegen,eine,Zirkus,60,101,nur,dem,sich,gebrauchter,Tat,Teilnehmer,genau,sich,wurden,in,wussten,fuhren,mal,Kakao,Bürgermeister,damals,Tropfen,saftigen,Methode,"regnete,",die,Bürgermeister,Feier,war,uns,dann,immer,uns,keine,saftiges,fuhren,suchen,sahen,Eimer,keine,in,Rand,die,Rand,in,das,suchen,sind,Kakao,sahen,eine,,,,,,,,,,,,,,,,,,,,,,,12,0,12,0,0,2,2,2,,,,,,,space,0.476435184479,,,,,2017_Jan_23_1652,59.7689500437,spr_backupper,001,Mo17,
,königlichen,können,er,Menge,kann,des,habe,des,kann,bei,Kleidung,mit,Hemd,unter,Dänemark,schon,dem,wieder,kann,Masse,"sporadisch,",beteiligten,Masse,wissen,Liter,260.000,260.000,der,stand,wurde,beteiligter,Zuckers,Menge,"sporadisch,",las,"unterging,",mit,gedachte,die,Mond,stand,aus,dann,Zucker,roter,kleinere,wurde,dem,große,werden,Liter,hält,kleinere,Mann,Berge,Kleidung,wissen,wurden,die,Berge,mit,Größe,überwiegend,mit,wieder,gehören,beschuldigten,schnell,königliches,Fleischs,kann,hat,Leinwand,beschuldigten,gedachte,aus,durch,mit,auf,durch,Lust,Fleisch,mit,die,wir,rote,Lust,Größe,der,Erlebnisse,der,Dänemark,Auto,die,mit,gehören,wir,große,,,,,,,,,,,,,,,,,,,,,,,12,0,12,0,0,3,3,3,,,,,,,space,0.418320894241,,,,,2017_Jan_23_1652,59.7689500437,spr_backupper,001,Mo17,
,Bluts,Neuwahlen,"trug,",alten,man,schönen,ich,bekannten,ich,ausreichendem,landen,"üblichem,",aus,"regelmäßigem,",gelegentlich,bei,bekannten,viel,ich,mit,obwohl,Fahrer,mit,wir,sprudelnden,Kilowattstunden,Kilowattstunden,vierte,ein,schon,Fahrer,sind,alten,obschon,ich,war,"reichlichem,",man,Stimmung,dauerte,ein,"wertvollem,",mit,sind,Farbe,"Delikte,",jetzt,schönen,Packung,die,sprudelndes,nicht,"Delikte,",das,schmutzige,landen,wir,mit,richtige,schmutziger,dauerhaftem,36,"nicht,",solchen,viel,immer,die,dank,Blut,wurden,man,uns,aus,die,man,"Japan,",Büschel,"minimalem,",warmem,Büschel,auf,wurden,solch,Wohnung,den,Farbe,auf,36,Stadt,bei,Stadt,einen,dem,Wohnung,"sämtlichem,",immer,den,Packung,,,,,,,,,,,,,,,,,,,,,,,12,0,12,0,0,4,4,4,,,,,,,space,0.48569393158,,,,,2017_Jan_23_1652,59.7689500437,spr_backupper,001,Mo17,
,hat,vor,war,Kram,eine,Wetters,mehr,Skandals,leider,monatlichem,im,harten,feinem,kaltem,einen,minimalem,Skandal,Lärm,leider,einem,sie,wurden,einem,von,Trinkwassers.,elektrische,elektrischer,Bundespräsident.,Glas,immer,wurden,auf,Krams,sie,mehr,die,purem,der,ziemlich,ungefähr,Glas,klassischen,"reichem,",auf,geschleudert.,derer,"nachgewiesen,",Wetter,salzige,Tiere,Trinkwasser.,am,deren,Auto,Wäsche.,im,um,zusätzlichem,"Zeit,",Wäsche.,feinem,würden,was,unzureichenden,Lärm,350,Störenfriede,täglichem,hat,serviert.,eine,die,seltenem,Störenfriede,den,die,frischen,sauberen,weichem,frisches,noch,serviert.,unzureichenden,des,roten,geschleudert.,noch,hätten,liegen,"frischem,",liegen,gelegentlichen,Mann,des,künftigem,350,roten,salziger,,,,,,,,,,,,,,,,,,,,,,,12,0,12,0,0,5,5,5,,,,,,,space,0.43328499794,,,,,2017_Jan_23_1652,59.7689500437,spr_backupper,001,Mo17,
,den,Dezember,aus,aus,große,die,als,wiedergewählt.,nichts,Taschengeld,Müll.,Schaumstoff,dichten,Abduschen,Besucher.,täglichen,wiedergewählt.,um,nichts,Esslöffel,defekt,verschrottet.,Esslöffel,den,nan,Energie.,Energie.,nan,köstlicher,ruhig,verschrottet.,jeden,aus,defekt,als,Flut,Alkohol,Soldaten,"vermiest,",drei,köstlichen,Schmuck,goldenen,jeden,nan,sie,dass,die,Wurst,artgerecht,nan,Hauptbahnhof.,sie,mehr,nan,Müll.,die,schwarzem,um,nan,Kunsteis,seiner,Tupperware,Helmen,um,ml,jeden.,grünen,den,nan,große,Stimmung,dichten,jeden.,Soldaten,er,Grases,Kraftstoff,Untergrund,Gras,eine,nan,Helmen,Herrn,Planet,nan,eine,seiner,die,kaltem,die,Besucher.,mehr,Herrn,Einkommen,ml,Planeten,Wurst,,,,,,,,,,,,,,,,,,,,,,,12,0,12,0,0,6,6,6,,,,,,,space,0.311675071716,,,,,2017_Jan_23_1652,59.7689500437,spr_backupper,001,Mo17,
,Boden,stattfinden.,Japan.,dem,Menge,Wohnung.,einmal,nan,mitbringen.,selber,nan,gefertigt.,Stoff,gehärtet.,nan,Einsatz,nan,jede,mitbringen.,warmem,war.,nan,warmen,Problemen,nan,nan,nan,nan,Wein,diskutiert.,nan,Fall,dem,war.,einmal,zurückgekehrt.,verdünnt.,des,dass,Tage.,Weins,umgearbeitet.,Besatz,Fall,nan,überführt,das,Wohnung.,mit,gehalten.,nan,nan,überführt,als,nan,nan,Probleme,Kaffee,Nadelhölzer,nan,eingesprüht.,Frau,ist.,zur,jede,warme,nan,Tee,Boden,nan,Menge,ziemlich,Gewebe,nan,des,trug.,zwängen.,fahren.,liegen.,zwängen.,Sammlung,nan,zur,Gantenbein.,ganz,nan,Sammlung,Frau,Slums.,Saft,Slums.,nan,als,Gantenbeins.,haftbar.,warmer,ganz,mit,,,,,,,,,,,,,,,,,,,,,,,12,0,12,0,0,7,7,7,,,,,,,space,0.36095905304,,,,,2017_Jan_23_1652,59.7689500437,spr_backupper,001,Mo17,
,,,,,,,,,,,,,,,,,,,,,,,,,,,,,,,,,,,,,,,,,,,,,,,,,,,,,,,,,,,,,,,,,,,,,,,,,,,,,,,,,,,,,,,,,,,,,,,,,,,,,,,,,,,,,,,,,,,,,,,,,12,0,12,0,,,,,,,,,,,,,None,n,1.62669086456,,2017_Jan_23_1652,59.7689500437,spr_backupper,001,Mo17,
,Nicht,Unter,Die,Wir,Mit,Sie,In,Er,Außer,Jugendliche,Viele,Alle,Er,Die,Wir,Ihr,Er,Man,Außer,Er,Die,Die,Er,In,Sie,Die,Die,Walter,Bei,Fernab,Die,100,Wir,Die,In,Als,Die,Bei,Es,Der,Bei,Die,Das,100,Es,Es,In,Sie,Ich,In,Sie,Die,Es,Wir,Dort,Viele,In,Die,Jetzt,Dort,Die,Die,Die,Die,Man,In,Außer,Ich,Nicht,Beträchtliche,Mit,Dass,Danach,Außer,Bei,Die,Wir,Wir,Jungtiere,Wir,Sie,Beträchtliche,Die,Die,Im,Es,Sie,Die,Am,Sie,Am,Wir,Wir,Die,Manche,In,Im,Ich,,,,,,,,,,,,,,,,,,,,,,,13,0,13,0,0,0,0,0,,,,,,None,space,0.677250146866,,,,,2017_Jan_23_1652,59.7689500437,spr_backupper,001,Mo17,
,ein,keinen,"Uhr,",haben,dieser,verlassen,meinem,wurde,dem,können,Tonnen,Betten,hat,Formen,hatten,Blutdruck,wurde,machte,das,stellt,Uhr,Autos,stellt,der,verbrauchen,Schule,Schule,Scheel,unserer,des,Autos,g,haben,Uhr,meinem,die,Lösung,der,hat,Flug,unserer,Stücke,Tuch,g,wurden,waren,einer,verlassen,nehme,diesem,verbrauchen,Linie,waren,übergaben,türmen,Tonnen,der,müden,ist,türmen,Eislaufbahnen,Schuhe,Teilnehmerinnen,Kinder,machte,den,den,wurde,ein,Stücke,dieser,es,wurde,dem,der,Uhr,mussten,konnten,sollten,mussten,hatte,Stücke,Kinder,Gäste,Fernrohr,wurden,hatte,Schuhe,äußeren,haben,äußersten,hatten,übergaben,Gäste,Kreditnehmer,den,Fernrohr,nehme,,,,,,,,,,,,,,,,,,,,,,,13,0,13,0,0,1,1,1,,,,,,,space,0.355576038361,,,,,2017_Jan_23_1652,59.7689500437,spr_backupper,001,Mo17,
,Tropfen,Umständen,die,jede,Methode,wegen,Studium,trotz,Essen,Kleidung,gebrauchte,wurden,ein,wurden,in,kann,trotz,mal,Essen,die,schlug,beider,die,Tat,60,verbraucht,verbraucht,war,Ankunft,Rummels,beider,braunen,jede,schlug,Studium,Sonne,wird,Feier,uns,zum,Ankunft,wurden,wurde,brauner,Eimer,nur,Studie,wegen,eine,Zirkus,60,101,nur,dem,sich,gebrauchter,Tat,Teilnehmer,genau,sich,wurden,in,wussten,fuhren,mal,Kakao,Bürgermeister,damals,Tropfen,saftigen,Methode,"regnete,",die,Bürgermeister,Feier,war,uns,dann,immer,uns,keine,saftiges,fuhren,suchen,sahen,Eimer,keine,in,Rand,die,Rand,in,das,suchen,sind,Kakao,sahen,eine,,,,,,,,,,,,,,,,,,,,,,,13,0,13,0,0,2,2,2,,,,,,,space,0.240341901779,,,,,2017_Jan_23_1652,59.7689500437,spr_backupper,001,Mo17,
,königlichen,können,er,Menge,kann,des,habe,des,kann,bei,Kleidung,mit,Hemd,unter,Dänemark,schon,dem,wieder,kann,Masse,"sporadisch,",beteiligten,Masse,wissen,Liter,260.000,260.000,der,stand,wurde,beteiligter,Zuckers,Menge,"sporadisch,",las,"unterging,",mit,gedachte,die,Mond,stand,aus,dann,Zucker,roter,kleinere,wurde,dem,große,werden,Liter,hält,kleinere,Mann,Berge,Kleidung,wissen,wurden,die,Berge,mit,Größe,überwiegend,mit,wieder,gehören,beschuldigten,schnell,königliches,Fleischs,kann,hat,Leinwand,beschuldigten,gedachte,aus,durch,mit,auf,durch,Lust,Fleisch,mit,die,wir,rote,Lust,Größe,der,Erlebnisse,der,Dänemark,Auto,die,mit,gehören,wir,große,,,,,,,,,,,,,,,,,,,,,,,13,0,13,0,0,3,3,3,,,,,,,space,0.873090982437,,,,,2017_Jan_23_1652,59.7689500437,spr_backupper,001,Mo17,
,Bluts,Neuwahlen,"trug,",alten,man,schönen,ich,bekannten,ich,ausreichendem,landen,"üblichem,",aus,"regelmäßigem,",gelegentlich,bei,bekannten,viel,ich,mit,obwohl,Fahrer,mit,wir,sprudelnden,Kilowattstunden,Kilowattstunden,vierte,ein,schon,Fahrer,sind,alten,obschon,ich,war,"reichlichem,",man,Stimmung,dauerte,ein,"wertvollem,",mit,sind,Farbe,"Delikte,",jetzt,schönen,Packung,die,sprudelndes,nicht,"Delikte,",das,schmutzige,landen,wir,mit,richtige,schmutziger,dauerhaftem,36,"nicht,",solchen,viel,immer,die,dank,Blut,wurden,man,uns,aus,die,man,"Japan,",Büschel,"minimalem,",warmem,Büschel,auf,wurden,solch,Wohnung,den,Farbe,auf,36,Stadt,bei,Stadt,einen,dem,Wohnung,"sämtlichem,",immer,den,Packung,,,,,,,,,,,,,,,,,,,,,,,13,0,13,0,0,4,4,4,,,,,,,space,0.408278942108,,,,,2017_Jan_23_1652,59.7689500437,spr_backupper,001,Mo17,
,hat,vor,war,Kram,eine,Wetters,mehr,Skandals,leider,monatlichem,im,harten,feinem,kaltem,einen,minimalem,Skandal,Lärm,leider,einem,sie,wurden,einem,von,Trinkwassers.,elektrische,elektrischer,Bundespräsident.,Glas,immer,wurden,auf,Krams,sie,mehr,die,purem,der,ziemlich,ungefähr,Glas,klassischen,"reichem,",auf,geschleudert.,derer,"nachgewiesen,",Wetter,salzige,Tiere,Trinkwasser.,am,deren,Auto,Wäsche.,im,um,zusätzlichem,"Zeit,",Wäsche.,feinem,würden,was,unzureichenden,Lärm,350,Störenfriede,täglichem,hat,serviert.,eine,die,seltenem,Störenfriede,den,die,frischen,sauberen,weichem,frisches,noch,serviert.,unzureichenden,des,roten,geschleudert.,noch,hätten,liegen,"frischem,",liegen,gelegentlichen,Mann,des,künftigem,350,roten,salziger,,,,,,,,,,,,,,,,,,,,,,,13,0,13,0,0,5,5,5,,,,,,,space,0.593245029449,,,,,2017_Jan_23_1652,59.7689500437,spr_backupper,001,Mo17,
,den,Dezember,aus,aus,große,die,als,wiedergewählt.,nichts,Taschengeld,Müll.,Schaumstoff,dichten,Abduschen,Besucher.,täglichen,wiedergewählt.,um,nichts,Esslöffel,defekt,verschrottet.,Esslöffel,den,nan,Energie.,Energie.,nan,köstlicher,ruhig,verschrottet.,jeden,aus,defekt,als,Flut,Alkohol,Soldaten,"vermiest,",drei,köstlichen,Schmuck,goldenen,jeden,nan,sie,dass,die,Wurst,artgerecht,nan,Hauptbahnhof.,sie,mehr,nan,Müll.,die,schwarzem,um,nan,Kunsteis,seiner,Tupperware,Helmen,um,ml,jeden.,grünen,den,nan,große,Stimmung,dichten,jeden.,Soldaten,er,Grases,Kraftstoff,Untergrund,Gras,eine,nan,Helmen,Herrn,Planet,nan,eine,seiner,die,kaltem,die,Besucher.,mehr,Herrn,Einkommen,ml,Planeten,Wurst,,,,,,,,,,,,,,,,,,,,,,,13,0,13,0,0,6,6,6,,,,,,,space,0.471929073334,,,,,2017_Jan_23_1652,59.7689500437,spr_backupper,001,Mo17,
,,,,,,,,,,,,,,,,,,,,,,,,,,,,,,,,,,,,,,,,,,,,,,,,,,,,,,,,,,,,,,,,,,,,,,,,,,,,,,,,,,,,,,,,,,,,,,,,,,,,,,,,,,,,,,,,,,,,,,,,,13,0,13,0,,,,,,,,,,,,,None,j,1.69955205917,,2017_Jan_23_1652,59.7689500437,spr_backupper,001,Mo17,
,Nicht,Unter,Die,Wir,Mit,Sie,In,Er,Außer,Jugendliche,Viele,Alle,Er,Die,Wir,Ihr,Er,Man,Außer,Er,Die,Die,Er,In,Sie,Die,Die,Walter,Bei,Fernab,Die,100,Wir,Die,In,Als,Die,Bei,Es,Der,Bei,Die,Das,100,Es,Es,In,Sie,Ich,In,Sie,Die,Es,Wir,Dort,Viele,In,Die,Jetzt,Dort,Die,Die,Die,Die,Man,In,Außer,Ich,Nicht,Beträchtliche,Mit,Dass,Danach,Außer,Bei,Die,Wir,Wir,Jungtiere,Wir,Sie,Beträchtliche,Die,Die,Im,Es,Sie,Die,Am,Sie,Am,Wir,Wir,Die,Manche,In,Im,Ich,,,,,,,,,,,,,,,,,,,,,,,14,0,14,0,0,0,0,0,,,,,,None,space,0.5548350811,,,,,2017_Jan_23_1652,59.7689500437,spr_backupper,001,Mo17,
