text,sent48,sent9,sent8,sent15,sent3,sent2,sent1,sent14,sent7,sent6,sent5,sent4,sent57,sent56,sent55,sent54,sent53,sent52,sent51,sent50,sent13,sent12,sent11,sent10,sent17,sent16,sent59,sent58,sent93,sent92,sent91,sent90,sent97,sent96,sent95,sent94,sent98,sent22,sent23,sent20,sent21,sent26,sent27,sent24,sent25,sent28,sent29,sent68,sent69,sent66,sent67,sent64,sent65,sent62,sent63,sent60,sent61,sent31,sent30,sent33,sent32,sent35,sent34,sent37,sent36,sent39,sent38,sent79,sent78,sent75,sent74,sent77,sent76,sent71,sent70,sent73,sent72,sent19,sent49,sent18,sent44,sent45,sent84,sent85,sent86,sent87,sent80,sent81,sent82,sent83,sent40,sent41,sent42,sent43,sent88,sent89,sent46,sent47,intros.thisRepN,intros.thisTrialN,intros.thisN,intros.thisIndex,trials.thisRepN,trials.thisTrialN,trials.thisN,trials.thisIndex,testWords.thisRepN,testWords.thisTrialN,testWords.thisN,testWords.thisIndex,test1,test3,test2,test5,test4,test7,test6,test9,test8,test10,realTrials.thisRepN,realTrials.thisTrialN,realTrials.thisN,realTrials.thisIndex,words.thisRepN,words.thisTrialN,words.thisN,words.thisIndex,key_resp_3.keys,key_resp_3.rt,key_resp_8.keys,key_resp_10.keys,key_resp_10.rt,key_resp_6.keys,wordRead.keys,wordRead.rt,key_resp_5.keys,questAnswer.keys,questAnswer.rt,key_resp_6.rt,key_resp_5.rt,date,frameRate,expName,session,participant,
"Vielen Dank, dass Sie an diesem Experiment teilnehmen. Vor dem eigentlichen Experiment sehen Sie nun zuerst eine kurze Erläuterung, und Sie absolvieren ein kurze Übungsphase.

Das Experiment dauert insgesamt nicht mehr als 45 Minuten.",,,,,,,,,,,,,,,,,,,,,,,,,,,,,,,,,,,,,,,,,,,,,,,,,,,,,,,,,,,,,,,,,,,,,,,,,,,,,,,,,,,,,,,,,,,,,,,,,,,0,0,0,0,,,,,,,,,,,,,,,,,,,,,,,,,,,,,,,,,,,,,,,,2017_Feb_01_1206,59.7756793041,spr_backupper,001,Mo18,
"In diesem Experiment lesen Sie deutsche Sätze, indem Sie sich von Wort zu Wort mit der Leertaste durch den Satz klicken.",,,,,,,,,,,,,,,,,,,,,,,,,,,,,,,,,,,,,,,,,,,,,,,,,,,,,,,,,,,,,,,,,,,,,,,,,,,,,,,,,,,,,,,,,,,,,,,,,,,0,1,1,1,,,,,,,,,,,,,,,,,,,,,,,,,,,,,,,,,,,,,,,,2017_Feb_01_1206,59.7756793041,spr_backupper,001,Mo18,
"Sie sehen dabei immer nur das aktuelle Wort. Die Lesegeschwindigkeit bestimmen Sie vollständig selber. Vor jedem Satz sehen Sie in der Bildschirmmitte für zwei Sekunden ein + an der Stelle, an der dann die Wörter erscheinen.",,,,,,,,,,,,,,,,,,,,,,,,,,,,,,,,,,,,,,,,,,,,,,,,,,,,,,,,,,,,,,,,,,,,,,,,,,,,,,,,,,,,,,,,,,,,,,,,,,,0,2,2,2,,,,,,,,,,,,,,,,,,,,,,,,,,,,,,,,,,,,,,,,2017_Feb_01_1206,59.7756793041,spr_backupper,001,Mo18,
"Nach jedem Satz wird Ihnen eine Ja/Nein-Verständnisfrage zum zuvor gelesenen Satz gestellt, die Sie mit der J-Taste für "Ja" und der N-Taste für "Nein" beantworten. Antworten Sie möglichst spontan und ohne lange Nachzudenken.",,,,,,,,,,,,,,,,,,,,,,,,,,,,,,,,,,,,,,,,,,,,,,,,,,,,,,,,,,,,,,,,,,,,,,,,,,,,,,,,,,,,,,,,,,,,,,,,,,,0,3,3,3,,,,,,,,,,,,,,,,,,,,,,,,,,,,,,,,,,,,,,,,2017_Feb_01_1206,59.7756793041,spr_backupper,001,Mo18,
"Unterbrechen Sie das Experiment bitte auf keinen Fall, stellen Sie den ExperimentatorInnen nach dem Experimentbeginn keine Fragen, und lassen Sie sich nicht durch Umgebungsgeräusche ablenken.",,,,,,,,,,,,,,,,,,,,,,,,,,,,,,,,,,,,,,,,,,,,,,,,,,,,,,,,,,,,,,,,,,,,,,,,,,,,,,,,,,,,,,,,,,,,,,,,,,,0,4,4,4,,,,,,,,,,,,,,,,,,,,,,,,,,,,,,,,,,,,,,,,2017_Feb_01_1206,59.7756793041,spr_backupper,001,Mo18,
"Im nächsten Schritt beantworten Sie bitte eine Frage zu Ihren Deutschkenntnissen. Danach beginnt eine Übungseinheit, mit der Sie sich an die Art der Durchführung dieses Experiments gewöhnen können.",,,,,,,,,,,,,,,,,,,,,,,,,,,,,,,,,,,,,,,,,,,,,,,,,,,,,,,,,,,,,,,,,,,,,,,,,,,,,,,,,,,,,,,,,,,,,,,,,,,0,5,5,5,,,,,,,,,,,,,,,,,,,,,,,,,,,,,,,,,,,,,,,,2017_Feb_01_1206,59.7756793041,spr_backupper,001,Mo18,
,,,,,,,,,,,,,,,,,,,,,,,,,,,,,,,,,,,,,,,,,,,,,,,,,,,,,,,,,,,,,,,,,,,,,,,,,,,,,,,,,,,,,,,,,,,,,,,,,,,,,,,,,,,,,,,,,,,,,,,,,,,,,,,,,j,5.29995298386,,,,,,,,,,,,2017_Feb_01_1206,59.7756793041,spr_backupper,001,Mo18,
,,,,,,,,,,,,,,,,,,,,,,,,,,,,,,,,,,,,,,,,,,,,,,,,,,,,,,,,,,,,,,,,,,,,,,,,,,,,,,,,,,,,,,,,,,,,,,,,,,,,,,,0,0,0,0,,,,,,,,,,,,,,,,,,,,,,,,,None,,,,,,,,,,,2017_Feb_01_1206,59.7756793041,spr_backupper,001,Mo18,
,,,,,,,,,,,,,,,,,,,,,,,,,,,,,,,,,,,,,,,,,,,,,,,,,,,,,,,,,,,,,,,,,,,,,,,,,,,,,,,,,,,,,,,,,,,,,,,,,,,,,,,1,0,1,0,,,,,,,,,,,,,,,,,,,,,,,,,None,,,,,,,,,,,2017_Feb_01_1206,59.7756793041,spr_backupper,001,Mo18,
,,,,,,,,,,,,,,,,,,,,,,,,,,,,,,,,,,,,,,,,,,,,,,,,,,,,,,,,,,,,,,,,,,,,,,,,,,,,,,,,,,,,,,,,,,,,,,,,,,,,,,,2,0,2,0,,,,,,,,,,,,,,,,,,,,,,,,,None,,,,,,,,,,,2017_Feb_01_1206,59.7756793041,spr_backupper,001,Mo18,
,,,,,,,,,,,,,,,,,,,,,,,,,,,,,,,,,,,,,,,,,,,,,,,,,,,,,,,,,,,,,,,,,,,,,,,,,,,,,,,,,,,,,,,,,,,,,,,,,,,,,,,3,0,3,0,,,,,,,,,,,,,,,,,,,,,,,,,None,,,,,,,,,,,2017_Feb_01_1206,59.7756793041,spr_backupper,001,Mo18,
,,,,,,,,,,,,,,,,,,,,,,,,,,,,,,,,,,,,,,,,,,,,,,,,,,,,,,,,,,,,,,,,,,,,,,,,,,,,,,,,,,,,,,,,,,,,,,,,,,,,,,,4,0,4,0,,,,,,,,,,,,,,,,,,,,,,,,,None,,,,,,,,,,,2017_Feb_01_1206,59.7756793041,spr_backupper,001,Mo18,
,,,,,,,,,,,,,,,,,,,,,,,,,,,,,,,,,,,,,,,,,,,,,,,,,,,,,,,,,,,,,,,,,,,,,,,,,,,,,,,,,,,,,,,,,,,,,,,,,,,,,,,5,0,5,0,,,,,,,,,,,,,,,,,,,,,,,,,None,,,,,,,,,,,2017_Feb_01_1206,59.7756793041,spr_backupper,001,Mo18,
,,,,,,,,,,,,,,,,,,,,,,,,,,,,,,,,,,,,,,,,,,,,,,,,,,,,,,,,,,,,,,,,,,,,,,,,,,,,,,,,,,,,,,,,,,,,,,,,,,,,,,,6,0,6,0,,,,,,,,,,,,,,,,,,,,,,,,,None,,,,,,,,,,,2017_Feb_01_1206,59.7756793041,spr_backupper,001,Mo18,
,,,,,,,,,,,,,,,,,,,,,,,,,,,,,,,,,,,,,,,,,,,,,,,,,,,,,,,,,,,,,,,,,,,,,,,,,,,,,,,,,,,,,,,,,,,,,,,,,,,,,,,7,0,7,0,,,,,,,,,,,,,,,,,,,,,,,,,None,,,,,,,,,,,2017_Feb_01_1206,59.7756793041,spr_backupper,001,Mo18,
,,,,,,,,,,,,,,,,,,,,,,,,,,,,,,,,,,,,,,,,,,,,,,,,,,,,,,,,,,,,,,,,,,,,,,,,,,,,,,,,,,,,,,,,,,,,,,,,,,,,,,,8,0,8,0,,,,,,,,,,,,,,,,,,,,,,,,,None,,,,,,,,,,,2017_Feb_01_1206,59.7756793041,spr_backupper,001,Mo18,
,,,,,,,,,,,,,,,,,,,,,,,,,,,,,,,,,,,,,,,,,,,,,,,,,,,,,,,,,,,,,,,,,,,,,,,,,,,,,,,,,,,,,,,,,,,,,,,,,,,,,,,9,0,9,0,,,,,,,,,,,,,,,,,,,,,,,,,None,,,,,,,,,,,2017_Feb_01_1206,59.7756793041,spr_backupper,001,Mo18,
,,,,,,,,,,,,,,,,,,,,,,,,,,,,,,,,,,,,,,,,,,,,,,,,,,,,,,,,,,,,,,,,,,,,,,,,,,,,,,,,,,,,,,,,,,,,,,,,,,,,,,,,,,,,,,,,,,,,,,,,,,,,,,,,,,,,space,2.53376603127,,,,,,,,,2017_Feb_01_1206,59.7756793041,spr_backupper,001,Mo18,
,Die,Nicht,Am,Die,Sie,Wir,Die,Es,Sie,Wir,Mit,Er,Er,Wir,Die,Im,Alle,Wir,Viele,In,In,In,Die,Die,In,Wir,Sie,Dort,Jetzt,Wir,Wir,Es,Beträchtliche,Ich,100,Er,Die,Die,Er,Walter,Dort,Sie,Fernab,Man,Viele,100,Dass,Die,Mit,Nicht,Unter,Der,Die,Die,Sie,In,Außer,Die,Die,Bei,Er,Bei,Außer,Die,Beträchtliche,Danach,Ich,Bei,Bei,Die,Es,Das,Wir,Es,Man,Die,Außer,Manche,Außer,Ihr,Es,Im,Die,Am,Die,In,Jugendliche,In,Die,Sie,Die,Wir,Sie,Ich,Jungtiere,Die,In,Als,,,,,,,,,,,,,,,,,,,,,,,0,0,0,0,0,0,0,0,,,,,,None,space,0.906179904938,,,,,,2017_Feb_01_1206,59.7756793041,spr_backupper,001,Mo18,
,Lösung,ein,äußeren,Uhr,haben,hatten,Gäste,wurden,verlassen,mussten,dieser,wurde,stellt,konnten,Schuhe,Fernrohr,Betten,mussten,Tonnen,den,diesem,meinem,Autos,Uhr,den,übergaben,verlassen,türmen,ist,hatten,übergaben,waren,Stücke,nehme,g,wurde,Teilnehmerinnen,Linie,hat,Scheel,türmen,verbrauchen,des,machte,Tonnen,g,es,Eislaufbahnen,dieser,ein,keinen,Flug,Stücke,Autos,hatte,der,den,Formen,Schuhe,der,stellt,unserer,das,Schule,Stücke,wurde,wurde,unserer,der,Schule,wurden,Tuch,haben,hat,machte,müden,dem,Kreditnehmer,dem,Blutdruck,waren,Fernrohr,Kinder,äußersten,"Uhr,",einer,können,meinem,Uhr,verbrauchen,Kinder,haben,hatte,nehme,sollten,Gäste,der,die,,,,,,,,,,,,,,,,,,,,,,,0,0,0,0,0,1,1,1,,,,,,,space,0.450449943542,,,,,,2017_Feb_01_1206,59.7756793041,spr_backupper,001,Mo18,
,wird,Tropfen,Rand,war,die,in,suchen,Eimer,wegen,uns,Methode,trotz,die,dann,in,sahen,wurden,uns,gebrauchte,Kakao,Zirkus,Studium,beider,schlug,Kakao,dem,wegen,sich,genau,in,das,nur,saftiges,eine,brauner,trotz,wussten,101,ein,war,sich,60,Rummels,mal,gebrauchter,braunen,"regnete,",wurden,Methode,Tropfen,Umständen,zum,wurden,beider,keine,Tat,Bürgermeister,wurden,in,Feier,die,Ankunft,Essen,verbraucht,saftigen,die,damals,Ankunft,Feier,verbraucht,Eimer,wurde,jede,uns,mal,Teilnehmer,Essen,sind,Bürgermeister,kann,nur,sahen,fuhren,Rand,die,Studie,Kleidung,Studium,schlug,60,fuhren,jede,keine,eine,immer,suchen,Tat,Sonne,,,,,,,,,,,,,,,,,,,,,,,0,0,0,0,0,2,2,2,,,,,,,space,0.451837062836,,,,,,2017_Feb_01_1206,59.7756793041,spr_backupper,001,Mo18,
,mit,königliches,der,aus,Erlebnisse,Dänemark,die,rote,dem,durch,kann,dem,Masse,mit,Größe,wir,mit,durch,Kleidung,gehören,werden,las,beteiligter,"sporadisch,",gehören,Mann,des,Berge,die,Dänemark,Auto,kleinere,Fleisch,große,Zucker,des,überwiegend,hält,Hemd,der,Berge,Liter,wurde,wieder,Kleidung,Zuckers,hat,mit,kann,königlichen,können,Mond,aus,beteiligten,Lust,wissen,beschuldigten,unter,Größe,gedachte,Masse,stand,kann,260.000,Fleischs,Leinwand,schnell,stand,gedachte,260.000,roter,dann,Menge,die,wieder,wurden,kann,mit,beschuldigten,schon,kleinere,wir,mit,der,er,wurde,bei,habe,"sporadisch,",Liter,mit,Menge,Lust,große,auf,die,wissen,"unterging,",,,,,,,,,,,,,,,,,,,,,,,0,0,0,0,0,3,3,3,,,,,,,space,0.476588964462,,,,,,2017_Feb_01_1206,59.7756793041,spr_backupper,001,Mo18,
,"reichlichem,",Blut,Stadt,"Japan,",bei,gelegentlich,Wohnung,Farbe,schönen,Büschel,man,bekannten,mit,"minimalem,",36,den,"üblichem,",Büschel,landen,immer,die,ich,Fahrer,obschon,immer,das,schönen,schmutziger,richtige,einen,dem,"Delikte,",wurden,Packung,sind,bekannten,"nicht,",nicht,aus,vierte,schmutzige,sprudelndes,schon,viel,landen,sind,uns,dauerhaftem,man,Bluts,Neuwahlen,dauerte,"wertvollem,",Fahrer,auf,wir,die,"regelmäßigem,",36,man,mit,ein,ich,Kilowattstunden,wurden,aus,dank,ein,man,Kilowattstunden,Farbe,mit,alten,Stimmung,viel,mit,ich,"sämtlichem,",die,bei,"Delikte,",den,solchen,Stadt,"trug,",jetzt,ausreichendem,ich,obwohl,sprudelnden,solch,alten,auf,Packung,warmem,Wohnung,wir,war,,,,,,,,,,,,,,,,,,,,,,,0,0,0,0,0,4,4,4,,,,,,,space,0.436460018158,,,,,,2017_Feb_01_1206,59.7756793041,spr_backupper,001,Mo18,
,purem,hat,liegen,die,"frischem,",einen,des,geschleudert.,Wetter,frischen,eine,Skandal,einem,sauberen,würden,roten,harten,frisches,im,350,Tiere,mehr,wurden,sie,350,Auto,Wetters,Wäsche.,"Zeit,",gelegentlichen,Mann,derer,serviert.,salziger,auf,Skandals,was,am,feinem,Bundespräsident.,Wäsche.,Trinkwasser.,immer,Lärm,im,auf,die,feinem,eine,hat,vor,ungefähr,klassischen,wurden,noch,von,Störenfriede,kaltem,hätten,den,einem,Glas,leider,elektrischer,serviert.,seltenem,täglichem,Glas,der,elektrische,geschleudert.,"reichem,",Kram,ziemlich,Lärm,zusätzlichem,leider,künftigem,Störenfriede,minimalem,deren,roten,unzureichenden,liegen,war,"nachgewiesen,",monatlichem,mehr,sie,Trinkwassers.,unzureichenden,Krams,noch,salzige,weichem,des,um,die,,,,,,,,,,,,,,,,,,,,,,,0,0,0,0,0,5,5,5,,,,,,,space,0.470638036728,,,,,,2017_Feb_01_1206,59.7756793041,spr_backupper,001,Mo18,
,Alkohol,den,die,er,kaltem,Besucher.,Herrn,nan,die,Grases,große,wiedergewählt.,Esslöffel,Kraftstoff,seiner,Planeten,Schaumstoff,Gras,Müll.,ml,artgerecht,als,verschrottet.,defekt,ml,mehr,die,nan,um,Besucher.,mehr,sie,nan,Wurst,jeden,wiedergewählt.,Tupperware,Hauptbahnhof.,dichten,nan,nan,nan,ruhig,um,Müll.,jeden,Stimmung,Kunsteis,große,den,Dezember,drei,Schmuck,verschrottet.,eine,den,jeden.,Abduschen,seiner,Soldaten,Esslöffel,köstlicher,nichts,Energie.,nan,dichten,grünen,köstlichen,Soldaten,Energie.,nan,goldenen,aus,"vermiest,",um,schwarzem,nichts,Einkommen,jeden.,täglichen,sie,Planet,Helmen,die,aus,dass,Taschengeld,als,defekt,nan,Helmen,aus,eine,Wurst,Untergrund,Herrn,die,Flut,,,,,,,,,,,,,,,,,,,,,,,0,0,0,0,0,6,6,6,,,,,,,space,0.4321808815,,,,,,2017_Feb_01_1206,59.7756793041,spr_backupper,001,Mo18,
,verdünnt.,Boden,Slums.,trug.,Saft,nan,Gantenbein.,nan,Wohnung.,zwängen.,Menge,nan,warmen,fahren.,Frau,ganz,gefertigt.,zwängen.,nan,warme,gehalten.,einmal,nan,war.,warmer,als,Wohnung.,nan,Nadelhölzer,nan,als,überführt,nan,mit,Fall,nan,ist.,nan,Stoff,nan,nan,nan,diskutiert.,jede,nan,Fall,ziemlich,eingesprüht.,Menge,Boden,stattfinden.,Tage.,umgearbeitet.,nan,Sammlung,Problemen,nan,gehärtet.,Frau,des,warmem,Wein,mitbringen.,nan,nan,Gewebe,Tee,Weins,des,nan,nan,Besatz,dem,dass,jede,Kaffee,mitbringen.,haftbar.,nan,Einsatz,überführt,ganz,zur,Slums.,Japan.,das,selber,einmal,war.,nan,zur,dem,Sammlung,mit,liegen.,Gantenbeins.,Probleme,zurückgekehrt.,,,,,,,,,,,,,,,,,,,,,,,0,0,0,0,0,7,7,7,,,,,,,space,0.570076942444,,,,,,2017_Feb_01_1206,59.7756793041,spr_backupper,001,Mo18,
,,,,,,,,,,,,,,,,,,,,,,,,,,,,,,,,,,,,,,,,,,,,,,,,,,,,,,,,,,,,,,,,,,,,,,,,,,,,,,,,,,,,,,,,,,,,,,,,,,,,,,,,,,,,,,,,,,,,,,,,,0,0,0,0,,,,,,,,,,,,,None,j,1.71673893929,,,2017_Feb_01_1206,59.7756793041,spr_backupper,001,Mo18,
,Die,Nicht,Am,Die,Sie,Wir,Die,Es,Sie,Wir,Mit,Er,Er,Wir,Die,Im,Alle,Wir,Viele,In,In,In,Die,Die,In,Wir,Sie,Dort,Jetzt,Wir,Wir,Es,Beträchtliche,Ich,100,Er,Die,Die,Er,Walter,Dort,Sie,Fernab,Man,Viele,100,Dass,Die,Mit,Nicht,Unter,Der,Die,Die,Sie,In,Außer,Die,Die,Bei,Er,Bei,Außer,Die,Beträchtliche,Danach,Ich,Bei,Bei,Die,Es,Das,Wir,Es,Man,Die,Außer,Manche,Außer,Ihr,Es,Im,Die,Am,Die,In,Jugendliche,In,Die,Sie,Die,Wir,Sie,Ich,Jungtiere,Die,In,Als,,,,,,,,,,,,,,,,,,,,,,,1,0,1,0,0,0,0,0,,,,,,space,space,0.388101100922,,,,0.319561004639,,2017_Feb_01_1206,59.7756793041,spr_backupper,001,Mo18,
,Lösung,ein,äußeren,Uhr,haben,hatten,Gäste,wurden,verlassen,mussten,dieser,wurde,stellt,konnten,Schuhe,Fernrohr,Betten,mussten,Tonnen,den,diesem,meinem,Autos,Uhr,den,übergaben,verlassen,türmen,ist,hatten,übergaben,waren,Stücke,nehme,g,wurde,Teilnehmerinnen,Linie,hat,Scheel,türmen,verbrauchen,des,machte,Tonnen,g,es,Eislaufbahnen,dieser,ein,keinen,Flug,Stücke,Autos,hatte,der,den,Formen,Schuhe,der,stellt,unserer,das,Schule,Stücke,wurde,wurde,unserer,der,Schule,wurden,Tuch,haben,hat,machte,müden,dem,Kreditnehmer,dem,Blutdruck,waren,Fernrohr,Kinder,äußersten,"Uhr,",einer,können,meinem,Uhr,verbrauchen,Kinder,haben,hatte,nehme,sollten,Gäste,der,die,,,,,,,,,,,,,,,,,,,,,,,1,0,1,0,0,1,1,1,,,,,,,space,0.370155096054,,,,,,2017_Feb_01_1206,59.7756793041,spr_backupper,001,Mo18,
,wird,Tropfen,Rand,war,die,in,suchen,Eimer,wegen,uns,Methode,trotz,die,dann,in,sahen,wurden,uns,gebrauchte,Kakao,Zirkus,Studium,beider,schlug,Kakao,dem,wegen,sich,genau,in,das,nur,saftiges,eine,brauner,trotz,wussten,101,ein,war,sich,60,Rummels,mal,gebrauchter,braunen,"regnete,",wurden,Methode,Tropfen,Umständen,zum,wurden,beider,keine,Tat,Bürgermeister,wurden,in,Feier,die,Ankunft,Essen,verbraucht,saftigen,die,damals,Ankunft,Feier,verbraucht,Eimer,wurde,jede,uns,mal,Teilnehmer,Essen,sind,Bürgermeister,kann,nur,sahen,fuhren,Rand,die,Studie,Kleidung,Studium,schlug,60,fuhren,jede,keine,eine,immer,suchen,Tat,Sonne,,,,,,,,,,,,,,,,,,,,,,,1,0,1,0,0,2,2,2,,,,,,,space,0.368473052979,,,,,,2017_Feb_01_1206,59.7756793041,spr_backupper,001,Mo18,
,mit,königliches,der,aus,Erlebnisse,Dänemark,die,rote,dem,durch,kann,dem,Masse,mit,Größe,wir,mit,durch,Kleidung,gehören,werden,las,beteiligter,"sporadisch,",gehören,Mann,des,Berge,die,Dänemark,Auto,kleinere,Fleisch,große,Zucker,des,überwiegend,hält,Hemd,der,Berge,Liter,wurde,wieder,Kleidung,Zuckers,hat,mit,kann,königlichen,können,Mond,aus,beteiligten,Lust,wissen,beschuldigten,unter,Größe,gedachte,Masse,stand,kann,260.000,Fleischs,Leinwand,schnell,stand,gedachte,260.000,roter,dann,Menge,die,wieder,wurden,kann,mit,beschuldigten,schon,kleinere,wir,mit,der,er,wurde,bei,habe,"sporadisch,",Liter,mit,Menge,Lust,große,auf,die,wissen,"unterging,",,,,,,,,,,,,,,,,,,,,,,,1,0,1,0,0,3,3,3,,,,,,,space,0.386594057083,,,,,,2017_Feb_01_1206,59.7756793041,spr_backupper,001,Mo18,
,"reichlichem,",Blut,Stadt,"Japan,",bei,gelegentlich,Wohnung,Farbe,schönen,Büschel,man,bekannten,mit,"minimalem,",36,den,"üblichem,",Büschel,landen,immer,die,ich,Fahrer,obschon,immer,das,schönen,schmutziger,richtige,einen,dem,"Delikte,",wurden,Packung,sind,bekannten,"nicht,",nicht,aus,vierte,schmutzige,sprudelndes,schon,viel,landen,sind,uns,dauerhaftem,man,Bluts,Neuwahlen,dauerte,"wertvollem,",Fahrer,auf,wir,die,"regelmäßigem,",36,man,mit,ein,ich,Kilowattstunden,wurden,aus,dank,ein,man,Kilowattstunden,Farbe,mit,alten,Stimmung,viel,mit,ich,"sämtlichem,",die,bei,"Delikte,",den,solchen,Stadt,"trug,",jetzt,ausreichendem,ich,obwohl,sprudelnden,solch,alten,auf,Packung,warmem,Wohnung,wir,war,,,,,,,,,,,,,,,,,,,,,,,1,0,1,0,0,4,4,4,,,,,,,space,0.398281812668,,,,,,2017_Feb_01_1206,59.7756793041,spr_backupper,001,Mo18,
,purem,hat,liegen,die,"frischem,",einen,des,geschleudert.,Wetter,frischen,eine,Skandal,einem,sauberen,würden,roten,harten,frisches,im,350,Tiere,mehr,wurden,sie,350,Auto,Wetters,Wäsche.,"Zeit,",gelegentlichen,Mann,derer,serviert.,salziger,auf,Skandals,was,am,feinem,Bundespräsident.,Wäsche.,Trinkwasser.,immer,Lärm,im,auf,die,feinem,eine,hat,vor,ungefähr,klassischen,wurden,noch,von,Störenfriede,kaltem,hätten,den,einem,Glas,leider,elektrischer,serviert.,seltenem,täglichem,Glas,der,elektrische,geschleudert.,"reichem,",Kram,ziemlich,Lärm,zusätzlichem,leider,künftigem,Störenfriede,minimalem,deren,roten,unzureichenden,liegen,war,"nachgewiesen,",monatlichem,mehr,sie,Trinkwassers.,unzureichenden,Krams,noch,salzige,weichem,des,um,die,,,,,,,,,,,,,,,,,,,,,,,1,0,1,0,0,5,5,5,,,,,,,space,0.402736902237,,,,,,2017_Feb_01_1206,59.7756793041,spr_backupper,001,Mo18,
,Alkohol,den,die,er,kaltem,Besucher.,Herrn,nan,die,Grases,große,wiedergewählt.,Esslöffel,Kraftstoff,seiner,Planeten,Schaumstoff,Gras,Müll.,ml,artgerecht,als,verschrottet.,defekt,ml,mehr,die,nan,um,Besucher.,mehr,sie,nan,Wurst,jeden,wiedergewählt.,Tupperware,Hauptbahnhof.,dichten,nan,nan,nan,ruhig,um,Müll.,jeden,Stimmung,Kunsteis,große,den,Dezember,drei,Schmuck,verschrottet.,eine,den,jeden.,Abduschen,seiner,Soldaten,Esslöffel,köstlicher,nichts,Energie.,nan,dichten,grünen,köstlichen,Soldaten,Energie.,nan,goldenen,aus,"vermiest,",um,schwarzem,nichts,Einkommen,jeden.,täglichen,sie,Planet,Helmen,die,aus,dass,Taschengeld,als,defekt,nan,Helmen,aus,eine,Wurst,Untergrund,Herrn,die,Flut,,,,,,,,,,,,,,,,,,,,,,,1,0,1,0,0,6,6,6,,,,,,,space,0.366015911102,,,,,,2017_Feb_01_1206,59.7756793041,spr_backupper,001,Mo18,
,,,,,,,,,,,,,,,,,,,,,,,,,,,,,,,,,,,,,,,,,,,,,,,,,,,,,,,,,,,,,,,,,,,,,,,,,,,,,,,,,,,,,,,,,,,,,,,,,,,,,,,,,,,,,,,,,,,,,,,,,1,0,1,0,,,,,,,,,,,,,None,j,2.81954884529,,,2017_Feb_01_1206,59.7756793041,spr_backupper,001,Mo18,
,Die,Nicht,Am,Die,Sie,Wir,Die,Es,Sie,Wir,Mit,Er,Er,Wir,Die,Im,Alle,Wir,Viele,In,In,In,Die,Die,In,Wir,Sie,Dort,Jetzt,Wir,Wir,Es,Beträchtliche,Ich,100,Er,Die,Die,Er,Walter,Dort,Sie,Fernab,Man,Viele,100,Dass,Die,Mit,Nicht,Unter,Der,Die,Die,Sie,In,Außer,Die,Die,Bei,Er,Bei,Außer,Die,Beträchtliche,Danach,Ich,Bei,Bei,Die,Es,Das,Wir,Es,Man,Die,Außer,Manche,Außer,Ihr,Es,Im,Die,Am,Die,In,Jugendliche,In,Die,Sie,Die,Wir,Sie,Ich,Jungtiere,Die,In,Als,,,,,,,,,,,,,,,,,,,,,,,2,0,2,0,0,0,0,0,,,,,,space,space,0.466356992722,,,,0.235234022141,,2017_Feb_01_1206,59.7756793041,spr_backupper,001,Mo18,
,Lösung,ein,äußeren,Uhr,haben,hatten,Gäste,wurden,verlassen,mussten,dieser,wurde,stellt,konnten,Schuhe,Fernrohr,Betten,mussten,Tonnen,den,diesem,meinem,Autos,Uhr,den,übergaben,verlassen,türmen,ist,hatten,übergaben,waren,Stücke,nehme,g,wurde,Teilnehmerinnen,Linie,hat,Scheel,türmen,verbrauchen,des,machte,Tonnen,g,es,Eislaufbahnen,dieser,ein,keinen,Flug,Stücke,Autos,hatte,der,den,Formen,Schuhe,der,stellt,unserer,das,Schule,Stücke,wurde,wurde,unserer,der,Schule,wurden,Tuch,haben,hat,machte,müden,dem,Kreditnehmer,dem,Blutdruck,waren,Fernrohr,Kinder,äußersten,"Uhr,",einer,können,meinem,Uhr,verbrauchen,Kinder,haben,hatte,nehme,sollten,Gäste,der,die,,,,,,,,,,,,,,,,,,,,,,,2,0,2,0,0,1,1,1,,,,,,,space,0.369038105011,,,,,,2017_Feb_01_1206,59.7756793041,spr_backupper,001,Mo18,
,wird,Tropfen,Rand,war,die,in,suchen,Eimer,wegen,uns,Methode,trotz,die,dann,in,sahen,wurden,uns,gebrauchte,Kakao,Zirkus,Studium,beider,schlug,Kakao,dem,wegen,sich,genau,in,das,nur,saftiges,eine,brauner,trotz,wussten,101,ein,war,sich,60,Rummels,mal,gebrauchter,braunen,"regnete,",wurden,Methode,Tropfen,Umständen,zum,wurden,beider,keine,Tat,Bürgermeister,wurden,in,Feier,die,Ankunft,Essen,verbraucht,saftigen,die,damals,Ankunft,Feier,verbraucht,Eimer,wurde,jede,uns,mal,Teilnehmer,Essen,sind,Bürgermeister,kann,nur,sahen,fuhren,Rand,die,Studie,Kleidung,Studium,schlug,60,fuhren,jede,keine,eine,immer,suchen,Tat,Sonne,,,,,,,,,,,,,,,,,,,,,,,2,0,2,0,0,2,2,2,,,,,,,space,0.319525003433,,,,,,2017_Feb_01_1206,59.7756793041,spr_backupper,001,Mo18,
,mit,königliches,der,aus,Erlebnisse,Dänemark,die,rote,dem,durch,kann,dem,Masse,mit,Größe,wir,mit,durch,Kleidung,gehören,werden,las,beteiligter,"sporadisch,",gehören,Mann,des,Berge,die,Dänemark,Auto,kleinere,Fleisch,große,Zucker,des,überwiegend,hält,Hemd,der,Berge,Liter,wurde,wieder,Kleidung,Zuckers,hat,mit,kann,königlichen,können,Mond,aus,beteiligten,Lust,wissen,beschuldigten,unter,Größe,gedachte,Masse,stand,kann,260.000,Fleischs,Leinwand,schnell,stand,gedachte,260.000,roter,dann,Menge,die,wieder,wurden,kann,mit,beschuldigten,schon,kleinere,wir,mit,der,er,wurde,bei,habe,"sporadisch,",Liter,mit,Menge,Lust,große,auf,die,wissen,"unterging,",,,,,,,,,,,,,,,,,,,,,,,2,0,2,0,0,3,3,3,,,,,,,space,0.346024036407,,,,,,2017_Feb_01_1206,59.7756793041,spr_backupper,001,Mo18,
,"reichlichem,",Blut,Stadt,"Japan,",bei,gelegentlich,Wohnung,Farbe,schönen,Büschel,man,bekannten,mit,"minimalem,",36,den,"üblichem,",Büschel,landen,immer,die,ich,Fahrer,obschon,immer,das,schönen,schmutziger,richtige,einen,dem,"Delikte,",wurden,Packung,sind,bekannten,"nicht,",nicht,aus,vierte,schmutzige,sprudelndes,schon,viel,landen,sind,uns,dauerhaftem,man,Bluts,Neuwahlen,dauerte,"wertvollem,",Fahrer,auf,wir,die,"regelmäßigem,",36,man,mit,ein,ich,Kilowattstunden,wurden,aus,dank,ein,man,Kilowattstunden,Farbe,mit,alten,Stimmung,viel,mit,ich,"sämtlichem,",die,bei,"Delikte,",den,solchen,Stadt,"trug,",jetzt,ausreichendem,ich,obwohl,sprudelnden,solch,alten,auf,Packung,warmem,Wohnung,wir,war,,,,,,,,,,,,,,,,,,,,,,,2,0,2,0,0,4,4,4,,,,,,,space,0.453011989594,,,,,,2017_Feb_01_1206,59.7756793041,spr_backupper,001,Mo18,
,purem,hat,liegen,die,"frischem,",einen,des,geschleudert.,Wetter,frischen,eine,Skandal,einem,sauberen,würden,roten,harten,frisches,im,350,Tiere,mehr,wurden,sie,350,Auto,Wetters,Wäsche.,"Zeit,",gelegentlichen,Mann,derer,serviert.,salziger,auf,Skandals,was,am,feinem,Bundespräsident.,Wäsche.,Trinkwasser.,immer,Lärm,im,auf,die,feinem,eine,hat,vor,ungefähr,klassischen,wurden,noch,von,Störenfriede,kaltem,hätten,den,einem,Glas,leider,elektrischer,serviert.,seltenem,täglichem,Glas,der,elektrische,geschleudert.,"reichem,",Kram,ziemlich,Lärm,zusätzlichem,leider,künftigem,Störenfriede,minimalem,deren,roten,unzureichenden,liegen,war,"nachgewiesen,",monatlichem,mehr,sie,Trinkwassers.,unzureichenden,Krams,noch,salzige,weichem,des,um,die,,,,,,,,,,,,,,,,,,,,,,,2,0,2,0,0,5,5,5,,,,,,,space,0.550439119339,,,,,,2017_Feb_01_1206,59.7756793041,spr_backupper,001,Mo18,
,Alkohol,den,die,er,kaltem,Besucher.,Herrn,nan,die,Grases,große,wiedergewählt.,Esslöffel,Kraftstoff,seiner,Planeten,Schaumstoff,Gras,Müll.,ml,artgerecht,als,verschrottet.,defekt,ml,mehr,die,nan,um,Besucher.,mehr,sie,nan,Wurst,jeden,wiedergewählt.,Tupperware,Hauptbahnhof.,dichten,nan,nan,nan,ruhig,um,Müll.,jeden,Stimmung,Kunsteis,große,den,Dezember,drei,Schmuck,verschrottet.,eine,den,jeden.,Abduschen,seiner,Soldaten,Esslöffel,köstlicher,nichts,Energie.,nan,dichten,grünen,köstlichen,Soldaten,Energie.,nan,goldenen,aus,"vermiest,",um,schwarzem,nichts,Einkommen,jeden.,täglichen,sie,Planet,Helmen,die,aus,dass,Taschengeld,als,defekt,nan,Helmen,aus,eine,Wurst,Untergrund,Herrn,die,Flut,,,,,,,,,,,,,,,,,,,,,,,2,0,2,0,0,6,6,6,,,,,,,space,0.384041786194,,,,,,2017_Feb_01_1206,59.7756793041,spr_backupper,001,Mo18,
,verdünnt.,Boden,Slums.,trug.,Saft,nan,Gantenbein.,nan,Wohnung.,zwängen.,Menge,nan,warmen,fahren.,Frau,ganz,gefertigt.,zwängen.,nan,warme,gehalten.,einmal,nan,war.,warmer,als,Wohnung.,nan,Nadelhölzer,nan,als,überführt,nan,mit,Fall,nan,ist.,nan,Stoff,nan,nan,nan,diskutiert.,jede,nan,Fall,ziemlich,eingesprüht.,Menge,Boden,stattfinden.,Tage.,umgearbeitet.,nan,Sammlung,Problemen,nan,gehärtet.,Frau,des,warmem,Wein,mitbringen.,nan,nan,Gewebe,Tee,Weins,des,nan,nan,Besatz,dem,dass,jede,Kaffee,mitbringen.,haftbar.,nan,Einsatz,überführt,ganz,zur,Slums.,Japan.,das,selber,einmal,war.,nan,zur,dem,Sammlung,mit,liegen.,Gantenbeins.,Probleme,zurückgekehrt.,,,,,,,,,,,,,,,,,,,,,,,2,0,2,0,0,7,7,7,,,,,,,space,0.436131000519,,,,,,2017_Feb_01_1206,59.7756793041,spr_backupper,001,Mo18,
,nan,berührt.,nan,nan,besprochen.,nan,nan,nan,nan,nan,dunkler,nan,Honigs,nan,gepasst,deutlich.,nan,nan,nan,Milch.,nan,Rilke.,nan,nan,Milch.,gerne.,nan,nan,umzusetzen.,nan,gerne.,wurden.,nan,an,genug.,nan,nan,nan,gefertigt.,nan,nan,nan,nan,Menge,nan,genug.,vermiest.,nan,dunkle,berührt.,nan,nan,nan,nan,dumme,im,nan,nan,gepasst.,zweiten,Honig,schon,nan,nan,nan,wiederhergestellt.,wieder,schon,zweiten,nan,nan,rekonstruiert.,Haus,es,Menge,wiederbelebt.,nan,nan,nan,sinken.,wurden.,deutlich.,Schule.,nan,nan,Medikament,kaufen.,Rilke,nan,nan,Schule.,Haus,dummer,an,nan,nan,im,nan,,,,,,,,,,,,,,,,,,,,,,,2,0,2,0,0,8,8,8,,,,,,,space,0.43039894104,,,,,,2017_Feb_01_1206,59.7756793041,spr_backupper,001,Mo18,
,,,,,,,,,,,,,,,,,,,,,,,,,,,,,,,,,,,,,,,,,,,,,,,,,,,,,,,,,,,,,,,,,,,,,,,,,,,,,,,,,,,,,,,,,,,,,,,,,,,,,,,,,,,,,,,,,,,,,,,,,2,0,2,0,,,,,,,,,,,,,None,n,1.54279112816,,,2017_Feb_01_1206,59.7756793041,spr_backupper,001,Mo18,
,Die,Nicht,Am,Die,Sie,Wir,Die,Es,Sie,Wir,Mit,Er,Er,Wir,Die,Im,Alle,Wir,Viele,In,In,In,Die,Die,In,Wir,Sie,Dort,Jetzt,Wir,Wir,Es,Beträchtliche,Ich,100,Er,Die,Die,Er,Walter,Dort,Sie,Fernab,Man,Viele,100,Dass,Die,Mit,Nicht,Unter,Der,Die,Die,Sie,In,Außer,Die,Die,Bei,Er,Bei,Außer,Die,Beträchtliche,Danach,Ich,Bei,Bei,Die,Es,Das,Wir,Es,Man,Die,Außer,Manche,Außer,Ihr,Es,Im,Die,Am,Die,In,Jugendliche,In,Die,Sie,Die,Wir,Sie,Ich,Jungtiere,Die,In,Als,,,,,,,,,,,,,,,,,,,,,,,3,0,3,0,0,0,0,0,,,,,,None,space,0.77118897438,,,,,,2017_Feb_01_1206,59.7756793041,spr_backupper,001,Mo18,
,Lösung,ein,äußeren,Uhr,haben,hatten,Gäste,wurden,verlassen,mussten,dieser,wurde,stellt,konnten,Schuhe,Fernrohr,Betten,mussten,Tonnen,den,diesem,meinem,Autos,Uhr,den,übergaben,verlassen,türmen,ist,hatten,übergaben,waren,Stücke,nehme,g,wurde,Teilnehmerinnen,Linie,hat,Scheel,türmen,verbrauchen,des,machte,Tonnen,g,es,Eislaufbahnen,dieser,ein,keinen,Flug,Stücke,Autos,hatte,der,den,Formen,Schuhe,der,stellt,unserer,das,Schule,Stücke,wurde,wurde,unserer,der,Schule,wurden,Tuch,haben,hat,machte,müden,dem,Kreditnehmer,dem,Blutdruck,waren,Fernrohr,Kinder,äußersten,"Uhr,",einer,können,meinem,Uhr,verbrauchen,Kinder,haben,hatte,nehme,sollten,Gäste,der,die,,,,,,,,,,,,,,,,,,,,,,,3,0,3,0,0,1,1,1,,,,,,,space,0.335633993149,,,,,,2017_Feb_01_1206,59.7756793041,spr_backupper,001,Mo18,
,wird,Tropfen,Rand,war,die,in,suchen,Eimer,wegen,uns,Methode,trotz,die,dann,in,sahen,wurden,uns,gebrauchte,Kakao,Zirkus,Studium,beider,schlug,Kakao,dem,wegen,sich,genau,in,das,nur,saftiges,eine,brauner,trotz,wussten,101,ein,war,sich,60,Rummels,mal,gebrauchter,braunen,"regnete,",wurden,Methode,Tropfen,Umständen,zum,wurden,beider,keine,Tat,Bürgermeister,wurden,in,Feier,die,Ankunft,Essen,verbraucht,saftigen,die,damals,Ankunft,Feier,verbraucht,Eimer,wurde,jede,uns,mal,Teilnehmer,Essen,sind,Bürgermeister,kann,nur,sahen,fuhren,Rand,die,Studie,Kleidung,Studium,schlug,60,fuhren,jede,keine,eine,immer,suchen,Tat,Sonne,,,,,,,,,,,,,,,,,,,,,,,3,0,3,0,0,2,2,2,,,,,,,space,0.30250120163,,,,,,2017_Feb_01_1206,59.7756793041,spr_backupper,001,Mo18,
,mit,königliches,der,aus,Erlebnisse,Dänemark,die,rote,dem,durch,kann,dem,Masse,mit,Größe,wir,mit,durch,Kleidung,gehören,werden,las,beteiligter,"sporadisch,",gehören,Mann,des,Berge,die,Dänemark,Auto,kleinere,Fleisch,große,Zucker,des,überwiegend,hält,Hemd,der,Berge,Liter,wurde,wieder,Kleidung,Zuckers,hat,mit,kann,königlichen,können,Mond,aus,beteiligten,Lust,wissen,beschuldigten,unter,Größe,gedachte,Masse,stand,kann,260.000,Fleischs,Leinwand,schnell,stand,gedachte,260.000,roter,dann,Menge,die,wieder,wurden,kann,mit,beschuldigten,schon,kleinere,wir,mit,der,er,wurde,bei,habe,"sporadisch,",Liter,mit,Menge,Lust,große,auf,die,wissen,"unterging,",,,,,,,,,,,,,,,,,,,,,,,3,0,3,0,0,3,3,3,,,,,,,space,0.370252132416,,,,,,2017_Feb_01_1206,59.7756793041,spr_backupper,001,Mo18,
,"reichlichem,",Blut,Stadt,"Japan,",bei,gelegentlich,Wohnung,Farbe,schönen,Büschel,man,bekannten,mit,"minimalem,",36,den,"üblichem,",Büschel,landen,immer,die,ich,Fahrer,obschon,immer,das,schönen,schmutziger,richtige,einen,dem,"Delikte,",wurden,Packung,sind,bekannten,"nicht,",nicht,aus,vierte,schmutzige,sprudelndes,schon,viel,landen,sind,uns,dauerhaftem,man,Bluts,Neuwahlen,dauerte,"wertvollem,",Fahrer,auf,wir,die,"regelmäßigem,",36,man,mit,ein,ich,Kilowattstunden,wurden,aus,dank,ein,man,Kilowattstunden,Farbe,mit,alten,Stimmung,viel,mit,ich,"sämtlichem,",die,bei,"Delikte,",den,solchen,Stadt,"trug,",jetzt,ausreichendem,ich,obwohl,sprudelnden,solch,alten,auf,Packung,warmem,Wohnung,wir,war,,,,,,,,,,,,,,,,,,,,,,,3,0,3,0,0,4,4,4,,,,,,,space,0.814220905304,,,,,,2017_Feb_01_1206,59.7756793041,spr_backupper,001,Mo18,
,purem,hat,liegen,die,"frischem,",einen,des,geschleudert.,Wetter,frischen,eine,Skandal,einem,sauberen,würden,roten,harten,frisches,im,350,Tiere,mehr,wurden,sie,350,Auto,Wetters,Wäsche.,"Zeit,",gelegentlichen,Mann,derer,serviert.,salziger,auf,Skandals,was,am,feinem,Bundespräsident.,Wäsche.,Trinkwasser.,immer,Lärm,im,auf,die,feinem,eine,hat,vor,ungefähr,klassischen,wurden,noch,von,Störenfriede,kaltem,hätten,den,einem,Glas,leider,elektrischer,serviert.,seltenem,täglichem,Glas,der,elektrische,geschleudert.,"reichem,",Kram,ziemlich,Lärm,zusätzlichem,leider,künftigem,Störenfriede,minimalem,deren,roten,unzureichenden,liegen,war,"nachgewiesen,",monatlichem,mehr,sie,Trinkwassers.,unzureichenden,Krams,noch,salzige,weichem,des,um,die,,,,,,,,,,,,,,,,,,,,,,,3,0,3,0,0,5,5,5,,,,,,,space,0.403355836868,,,,,,2017_Feb_01_1206,59.7756793041,spr_backupper,001,Mo18,
,Alkohol,den,die,er,kaltem,Besucher.,Herrn,nan,die,Grases,große,wiedergewählt.,Esslöffel,Kraftstoff,seiner,Planeten,Schaumstoff,Gras,Müll.,ml,artgerecht,als,verschrottet.,defekt,ml,mehr,die,nan,um,Besucher.,mehr,sie,nan,Wurst,jeden,wiedergewählt.,Tupperware,Hauptbahnhof.,dichten,nan,nan,nan,ruhig,um,Müll.,jeden,Stimmung,Kunsteis,große,den,Dezember,drei,Schmuck,verschrottet.,eine,den,jeden.,Abduschen,seiner,Soldaten,Esslöffel,köstlicher,nichts,Energie.,nan,dichten,grünen,köstlichen,Soldaten,Energie.,nan,goldenen,aus,"vermiest,",um,schwarzem,nichts,Einkommen,jeden.,täglichen,sie,Planet,Helmen,die,aus,dass,Taschengeld,als,defekt,nan,Helmen,aus,eine,Wurst,Untergrund,Herrn,die,Flut,,,,,,,,,,,,,,,,,,,,,,,3,0,3,0,0,6,6,6,,,,,,,space,0.554533958435,,,,,,2017_Feb_01_1206,59.7756793041,spr_backupper,001,Mo18,
,,,,,,,,,,,,,,,,,,,,,,,,,,,,,,,,,,,,,,,,,,,,,,,,,,,,,,,,,,,,,,,,,,,,,,,,,,,,,,,,,,,,,,,,,,,,,,,,,,,,,,,,,,,,,,,,,,,,,,,,,3,0,3,0,,,,,,,,,,,,,None,n,1.82855701447,,,2017_Feb_01_1206,59.7756793041,spr_backupper,001,Mo18,
,Die,Nicht,Am,Die,Sie,Wir,Die,Es,Sie,Wir,Mit,Er,Er,Wir,Die,Im,Alle,Wir,Viele,In,In,In,Die,Die,In,Wir,Sie,Dort,Jetzt,Wir,Wir,Es,Beträchtliche,Ich,100,Er,Die,Die,Er,Walter,Dort,Sie,Fernab,Man,Viele,100,Dass,Die,Mit,Nicht,Unter,Der,Die,Die,Sie,In,Außer,Die,Die,Bei,Er,Bei,Außer,Die,Beträchtliche,Danach,Ich,Bei,Bei,Die,Es,Das,Wir,Es,Man,Die,Außer,Manche,Außer,Ihr,Es,Im,Die,Am,Die,In,Jugendliche,In,Die,Sie,Die,Wir,Sie,Ich,Jungtiere,Die,In,Als,,,,,,,,,,,,,,,,,,,,,,,4,0,4,0,0,0,0,0,,,,,,space,space,0.352563858032,,,,0.58664393425,,2017_Feb_01_1206,59.7756793041,spr_backupper,001,Mo18,
,Lösung,ein,äußeren,Uhr,haben,hatten,Gäste,wurden,verlassen,mussten,dieser,wurde,stellt,konnten,Schuhe,Fernrohr,Betten,mussten,Tonnen,den,diesem,meinem,Autos,Uhr,den,übergaben,verlassen,türmen,ist,hatten,übergaben,waren,Stücke,nehme,g,wurde,Teilnehmerinnen,Linie,hat,Scheel,türmen,verbrauchen,des,machte,Tonnen,g,es,Eislaufbahnen,dieser,ein,keinen,Flug,Stücke,Autos,hatte,der,den,Formen,Schuhe,der,stellt,unserer,das,Schule,Stücke,wurde,wurde,unserer,der,Schule,wurden,Tuch,haben,hat,machte,müden,dem,Kreditnehmer,dem,Blutdruck,waren,Fernrohr,Kinder,äußersten,"Uhr,",einer,können,meinem,Uhr,verbrauchen,Kinder,haben,hatte,nehme,sollten,Gäste,der,die,,,,,,,,,,,,,,,,,,,,,,,4,0,4,0,0,1,1,1,,,,,,,space,0.357392072678,,,,,,2017_Feb_01_1206,59.7756793041,spr_backupper,001,Mo18,
,wird,Tropfen,Rand,war,die,in,suchen,Eimer,wegen,uns,Methode,trotz,die,dann,in,sahen,wurden,uns,gebrauchte,Kakao,Zirkus,Studium,beider,schlug,Kakao,dem,wegen,sich,genau,in,das,nur,saftiges,eine,brauner,trotz,wussten,101,ein,war,sich,60,Rummels,mal,gebrauchter,braunen,"regnete,",wurden,Methode,Tropfen,Umständen,zum,wurden,beider,keine,Tat,Bürgermeister,wurden,in,Feier,die,Ankunft,Essen,verbraucht,saftigen,die,damals,Ankunft,Feier,verbraucht,Eimer,wurde,jede,uns,mal,Teilnehmer,Essen,sind,Bürgermeister,kann,nur,sahen,fuhren,Rand,die,Studie,Kleidung,Studium,schlug,60,fuhren,jede,keine,eine,immer,suchen,Tat,Sonne,,,,,,,,,,,,,,,,,,,,,,,4,0,4,0,0,2,2,2,,,,,,,space,0.38574385643,,,,,,2017_Feb_01_1206,59.7756793041,spr_backupper,001,Mo18,
,mit,königliches,der,aus,Erlebnisse,Dänemark,die,rote,dem,durch,kann,dem,Masse,mit,Größe,wir,mit,durch,Kleidung,gehören,werden,las,beteiligter,"sporadisch,",gehören,Mann,des,Berge,die,Dänemark,Auto,kleinere,Fleisch,große,Zucker,des,überwiegend,hält,Hemd,der,Berge,Liter,wurde,wieder,Kleidung,Zuckers,hat,mit,kann,königlichen,können,Mond,aus,beteiligten,Lust,wissen,beschuldigten,unter,Größe,gedachte,Masse,stand,kann,260.000,Fleischs,Leinwand,schnell,stand,gedachte,260.000,roter,dann,Menge,die,wieder,wurden,kann,mit,beschuldigten,schon,kleinere,wir,mit,der,er,wurde,bei,habe,"sporadisch,",Liter,mit,Menge,Lust,große,auf,die,wissen,"unterging,",,,,,,,,,,,,,,,,,,,,,,,4,0,4,0,0,3,3,3,,,,,,,space,0.368558883667,,,,,,2017_Feb_01_1206,59.7756793041,spr_backupper,001,Mo18,
,"reichlichem,",Blut,Stadt,"Japan,",bei,gelegentlich,Wohnung,Farbe,schönen,Büschel,man,bekannten,mit,"minimalem,",36,den,"üblichem,",Büschel,landen,immer,die,ich,Fahrer,obschon,immer,das,schönen,schmutziger,richtige,einen,dem,"Delikte,",wurden,Packung,sind,bekannten,"nicht,",nicht,aus,vierte,schmutzige,sprudelndes,schon,viel,landen,sind,uns,dauerhaftem,man,Bluts,Neuwahlen,dauerte,"wertvollem,",Fahrer,auf,wir,die,"regelmäßigem,",36,man,mit,ein,ich,Kilowattstunden,wurden,aus,dank,ein,man,Kilowattstunden,Farbe,mit,alten,Stimmung,viel,mit,ich,"sämtlichem,",die,bei,"Delikte,",den,solchen,Stadt,"trug,",jetzt,ausreichendem,ich,obwohl,sprudelnden,solch,alten,auf,Packung,warmem,Wohnung,wir,war,,,,,,,,,,,,,,,,,,,,,,,4,0,4,0,0,4,4,4,,,,,,,space,0.403517007828,,,,,,2017_Feb_01_1206,59.7756793041,spr_backupper,001,Mo18,
,purem,hat,liegen,die,"frischem,",einen,des,geschleudert.,Wetter,frischen,eine,Skandal,einem,sauberen,würden,roten,harten,frisches,im,350,Tiere,mehr,wurden,sie,350,Auto,Wetters,Wäsche.,"Zeit,",gelegentlichen,Mann,derer,serviert.,salziger,auf,Skandals,was,am,feinem,Bundespräsident.,Wäsche.,Trinkwasser.,immer,Lärm,im,auf,die,feinem,eine,hat,vor,ungefähr,klassischen,wurden,noch,von,Störenfriede,kaltem,hätten,den,einem,Glas,leider,elektrischer,serviert.,seltenem,täglichem,Glas,der,elektrische,geschleudert.,"reichem,",Kram,ziemlich,Lärm,zusätzlichem,leider,künftigem,Störenfriede,minimalem,deren,roten,unzureichenden,liegen,war,"nachgewiesen,",monatlichem,mehr,sie,Trinkwassers.,unzureichenden,Krams,noch,salzige,weichem,des,um,die,,,,,,,,,,,,,,,,,,,,,,,4,0,4,0,0,5,5,5,,,,,,,space,0.318578004837,,,,,,2017_Feb_01_1206,59.7756793041,spr_backupper,001,Mo18,
,Alkohol,den,die,er,kaltem,Besucher.,Herrn,nan,die,Grases,große,wiedergewählt.,Esslöffel,Kraftstoff,seiner,Planeten,Schaumstoff,Gras,Müll.,ml,artgerecht,als,verschrottet.,defekt,ml,mehr,die,nan,um,Besucher.,mehr,sie,nan,Wurst,jeden,wiedergewählt.,Tupperware,Hauptbahnhof.,dichten,nan,nan,nan,ruhig,um,Müll.,jeden,Stimmung,Kunsteis,große,den,Dezember,drei,Schmuck,verschrottet.,eine,den,jeden.,Abduschen,seiner,Soldaten,Esslöffel,köstlicher,nichts,Energie.,nan,dichten,grünen,köstlichen,Soldaten,Energie.,nan,goldenen,aus,"vermiest,",um,schwarzem,nichts,Einkommen,jeden.,täglichen,sie,Planet,Helmen,die,aus,dass,Taschengeld,als,defekt,nan,Helmen,aus,eine,Wurst,Untergrund,Herrn,die,Flut,,,,,,,,,,,,,,,,,,,,,,,4,0,4,0,0,6,6,6,,,,,,,space,0.352941989899,,,,,,2017_Feb_01_1206,59.7756793041,spr_backupper,001,Mo18,
,verdünnt.,Boden,Slums.,trug.,Saft,nan,Gantenbein.,nan,Wohnung.,zwängen.,Menge,nan,warmen,fahren.,Frau,ganz,gefertigt.,zwängen.,nan,warme,gehalten.,einmal,nan,war.,warmer,als,Wohnung.,nan,Nadelhölzer,nan,als,überführt,nan,mit,Fall,nan,ist.,nan,Stoff,nan,nan,nan,diskutiert.,jede,nan,Fall,ziemlich,eingesprüht.,Menge,Boden,stattfinden.,Tage.,umgearbeitet.,nan,Sammlung,Problemen,nan,gehärtet.,Frau,des,warmem,Wein,mitbringen.,nan,nan,Gewebe,Tee,Weins,des,nan,nan,Besatz,dem,dass,jede,Kaffee,mitbringen.,haftbar.,nan,Einsatz,überführt,ganz,zur,Slums.,Japan.,das,selber,einmal,war.,nan,zur,dem,Sammlung,mit,liegen.,Gantenbeins.,Probleme,zurückgekehrt.,,,,,,,,,,,,,,,,,,,,,,,4,0,4,0,0,7,7,7,,,,,,,space,0.350176095963,,,,,,2017_Feb_01_1206,59.7756793041,spr_backupper,001,Mo18,
,nan,berührt.,nan,nan,besprochen.,nan,nan,nan,nan,nan,dunkler,nan,Honigs,nan,gepasst,deutlich.,nan,nan,nan,Milch.,nan,Rilke.,nan,nan,Milch.,gerne.,nan,nan,umzusetzen.,nan,gerne.,wurden.,nan,an,genug.,nan,nan,nan,gefertigt.,nan,nan,nan,nan,Menge,nan,genug.,vermiest.,nan,dunkle,berührt.,nan,nan,nan,nan,dumme,im,nan,nan,gepasst.,zweiten,Honig,schon,nan,nan,nan,wiederhergestellt.,wieder,schon,zweiten,nan,nan,rekonstruiert.,Haus,es,Menge,wiederbelebt.,nan,nan,nan,sinken.,wurden.,deutlich.,Schule.,nan,nan,Medikament,kaufen.,Rilke,nan,nan,Schule.,Haus,dummer,an,nan,nan,im,nan,,,,,,,,,,,,,,,,,,,,,,,4,0,4,0,0,8,8,8,,,,,,,space,0.340788125992,,,,,,2017_Feb_01_1206,59.7756793041,spr_backupper,001,Mo18,
,nan,nan,nan,nan,nan,nan,nan,nan,nan,nan,Materie,nan,her.,nan,haben.,nan,nan,nan,nan,nan,nan,nan,nan,nan,nan,nan,nan,nan,nan,nan,nan,nan,nan,den,nan,nan,nan,nan,nan,nan,nan,nan,nan,heiße,nan,nan,nan,nan,Materie,nan,nan,nan,nan,nan,Sprüche.,Landkreis.,nan,nan,nan,Weltkriegs.,her.,auf,nan,nan,nan,nan,fit.,auf,Weltkriegs.,nan,nan,nan,geschafft.,regnete.,heißer,nan,nan,nan,nan,nan,nan,nan,nan,nan,nan,nicht,nan,gelesen.,nan,nan,nan,geschafft.,Sprüche.,den,nan,nan,Landkreis.,nan,,,,,,,,,,,,,,,,,,,,,,,4,0,4,0,0,9,9,9,,,,,,,space,0.409148931503,,,,,,2017_Feb_01_1206,59.7756793041,spr_backupper,001,Mo18,
,nan,nan,nan,nan,nan,nan,nan,nan,nan,nan,erzeugen.,nan,nan,nan,nan,nan,nan,nan,nan,nan,nan,nan,nan,nan,nan,nan,nan,nan,nan,nan,nan,nan,nan,See.,nan,nan,nan,nan,nan,nan,nan,nan,nan,Luft.,nan,nan,nan,nan,erzeugen.,nan,nan,nan,nan,nan,nan,nan,nan,nan,nan,nan,nan,dem,nan,nan,nan,nan,nan,dem,nan,nan,nan,nan,nan,nan,Luft.,nan,nan,nan,nan,nan,nan,nan,nan,nan,nan,wirkt.,nan,nan,nan,nan,nan,nan,nan,See.,nan,nan,nan,nan,,,,,,,,,,,,,,,,,,,,,,,4,0,4,0,0,10,10,10,,,,,,,space,0.406029939651,,,,,,2017_Feb_01_1206,59.7756793041,spr_backupper,001,Mo18,
,,,,,,,,,,,,,,,,,,,,,,,,,,,,,,,,,,,,,,,,,,,,,,,,,,,,,,,,,,,,,,,,,,,,,,,,,,,,,,,,,,,,,,,,,,,,,,,,,,,,,,,,,,,,,,,,,,,,,,,,,4,0,4,0,,,,,,,,,,,,,None,j,4.30554080009,,,2017_Feb_01_1206,59.7756793041,spr_backupper,001,Mo18,
,Die,Nicht,Am,Die,Sie,Wir,Die,Es,Sie,Wir,Mit,Er,Er,Wir,Die,Im,Alle,Wir,Viele,In,In,In,Die,Die,In,Wir,Sie,Dort,Jetzt,Wir,Wir,Es,Beträchtliche,Ich,100,Er,Die,Die,Er,Walter,Dort,Sie,Fernab,Man,Viele,100,Dass,Die,Mit,Nicht,Unter,Der,Die,Die,Sie,In,Außer,Die,Die,Bei,Er,Bei,Außer,Die,Beträchtliche,Danach,Ich,Bei,Bei,Die,Es,Das,Wir,Es,Man,Die,Außer,Manche,Außer,Ihr,Es,Im,Die,Am,Die,In,Jugendliche,In,Die,Sie,Die,Wir,Sie,Ich,Jungtiere,Die,In,Als,,,,,,,,,,,,,,,,,,,,,,,5,0,5,0,0,0,0,0,,,,,,space,space,0.506258964539,,,,0.587936162949,,2017_Feb_01_1206,59.7756793041,spr_backupper,001,Mo18,
,Lösung,ein,äußeren,Uhr,haben,hatten,Gäste,wurden,verlassen,mussten,dieser,wurde,stellt,konnten,Schuhe,Fernrohr,Betten,mussten,Tonnen,den,diesem,meinem,Autos,Uhr,den,übergaben,verlassen,türmen,ist,hatten,übergaben,waren,Stücke,nehme,g,wurde,Teilnehmerinnen,Linie,hat,Scheel,türmen,verbrauchen,des,machte,Tonnen,g,es,Eislaufbahnen,dieser,ein,keinen,Flug,Stücke,Autos,hatte,der,den,Formen,Schuhe,der,stellt,unserer,das,Schule,Stücke,wurde,wurde,unserer,der,Schule,wurden,Tuch,haben,hat,machte,müden,dem,Kreditnehmer,dem,Blutdruck,waren,Fernrohr,Kinder,äußersten,"Uhr,",einer,können,meinem,Uhr,verbrauchen,Kinder,haben,hatte,nehme,sollten,Gäste,der,die,,,,,,,,,,,,,,,,,,,,,,,5,0,5,0,0,1,1,1,,,,,,,space,0.360253095627,,,,,,2017_Feb_01_1206,59.7756793041,spr_backupper,001,Mo18,
,wird,Tropfen,Rand,war,die,in,suchen,Eimer,wegen,uns,Methode,trotz,die,dann,in,sahen,wurden,uns,gebrauchte,Kakao,Zirkus,Studium,beider,schlug,Kakao,dem,wegen,sich,genau,in,das,nur,saftiges,eine,brauner,trotz,wussten,101,ein,war,sich,60,Rummels,mal,gebrauchter,braunen,"regnete,",wurden,Methode,Tropfen,Umständen,zum,wurden,beider,keine,Tat,Bürgermeister,wurden,in,Feier,die,Ankunft,Essen,verbraucht,saftigen,die,damals,Ankunft,Feier,verbraucht,Eimer,wurde,jede,uns,mal,Teilnehmer,Essen,sind,Bürgermeister,kann,nur,sahen,fuhren,Rand,die,Studie,Kleidung,Studium,schlug,60,fuhren,jede,keine,eine,immer,suchen,Tat,Sonne,,,,,,,,,,,,,,,,,,,,,,,5,0,5,0,0,2,2,2,,,,,,,space,0.319273948669,,,,,,2017_Feb_01_1206,59.7756793041,spr_backupper,001,Mo18,
,mit,königliches,der,aus,Erlebnisse,Dänemark,die,rote,dem,durch,kann,dem,Masse,mit,Größe,wir,mit,durch,Kleidung,gehören,werden,las,beteiligter,"sporadisch,",gehören,Mann,des,Berge,die,Dänemark,Auto,kleinere,Fleisch,große,Zucker,des,überwiegend,hält,Hemd,der,Berge,Liter,wurde,wieder,Kleidung,Zuckers,hat,mit,kann,königlichen,können,Mond,aus,beteiligten,Lust,wissen,beschuldigten,unter,Größe,gedachte,Masse,stand,kann,260.000,Fleischs,Leinwand,schnell,stand,gedachte,260.000,roter,dann,Menge,die,wieder,wurden,kann,mit,beschuldigten,schon,kleinere,wir,mit,der,er,wurde,bei,habe,"sporadisch,",Liter,mit,Menge,Lust,große,auf,die,wissen,"unterging,",,,,,,,,,,,,,,,,,,,,,,,5,0,5,0,0,3,3,3,,,,,,,space,0.319082975388,,,,,,2017_Feb_01_1206,59.7756793041,spr_backupper,001,Mo18,
,"reichlichem,",Blut,Stadt,"Japan,",bei,gelegentlich,Wohnung,Farbe,schönen,Büschel,man,bekannten,mit,"minimalem,",36,den,"üblichem,",Büschel,landen,immer,die,ich,Fahrer,obschon,immer,das,schönen,schmutziger,richtige,einen,dem,"Delikte,",wurden,Packung,sind,bekannten,"nicht,",nicht,aus,vierte,schmutzige,sprudelndes,schon,viel,landen,sind,uns,dauerhaftem,man,Bluts,Neuwahlen,dauerte,"wertvollem,",Fahrer,auf,wir,die,"regelmäßigem,",36,man,mit,ein,ich,Kilowattstunden,wurden,aus,dank,ein,man,Kilowattstunden,Farbe,mit,alten,Stimmung,viel,mit,ich,"sämtlichem,",die,bei,"Delikte,",den,solchen,Stadt,"trug,",jetzt,ausreichendem,ich,obwohl,sprudelnden,solch,alten,auf,Packung,warmem,Wohnung,wir,war,,,,,,,,,,,,,,,,,,,,,,,5,0,5,0,0,4,4,4,,,,,,,space,0.342733860016,,,,,,2017_Feb_01_1206,59.7756793041,spr_backupper,001,Mo18,
,purem,hat,liegen,die,"frischem,",einen,des,geschleudert.,Wetter,frischen,eine,Skandal,einem,sauberen,würden,roten,harten,frisches,im,350,Tiere,mehr,wurden,sie,350,Auto,Wetters,Wäsche.,"Zeit,",gelegentlichen,Mann,derer,serviert.,salziger,auf,Skandals,was,am,feinem,Bundespräsident.,Wäsche.,Trinkwasser.,immer,Lärm,im,auf,die,feinem,eine,hat,vor,ungefähr,klassischen,wurden,noch,von,Störenfriede,kaltem,hätten,den,einem,Glas,leider,elektrischer,serviert.,seltenem,täglichem,Glas,der,elektrische,geschleudert.,"reichem,",Kram,ziemlich,Lärm,zusätzlichem,leider,künftigem,Störenfriede,minimalem,deren,roten,unzureichenden,liegen,war,"nachgewiesen,",monatlichem,mehr,sie,Trinkwassers.,unzureichenden,Krams,noch,salzige,weichem,des,um,die,,,,,,,,,,,,,,,,,,,,,,,5,0,5,0,0,5,5,5,,,,,,,space,0.446501970291,,,,,,2017_Feb_01_1206,59.7756793041,spr_backupper,001,Mo18,
,Alkohol,den,die,er,kaltem,Besucher.,Herrn,nan,die,Grases,große,wiedergewählt.,Esslöffel,Kraftstoff,seiner,Planeten,Schaumstoff,Gras,Müll.,ml,artgerecht,als,verschrottet.,defekt,ml,mehr,die,nan,um,Besucher.,mehr,sie,nan,Wurst,jeden,wiedergewählt.,Tupperware,Hauptbahnhof.,dichten,nan,nan,nan,ruhig,um,Müll.,jeden,Stimmung,Kunsteis,große,den,Dezember,drei,Schmuck,verschrottet.,eine,den,jeden.,Abduschen,seiner,Soldaten,Esslöffel,köstlicher,nichts,Energie.,nan,dichten,grünen,köstlichen,Soldaten,Energie.,nan,goldenen,aus,"vermiest,",um,schwarzem,nichts,Einkommen,jeden.,täglichen,sie,Planet,Helmen,die,aus,dass,Taschengeld,als,defekt,nan,Helmen,aus,eine,Wurst,Untergrund,Herrn,die,Flut,,,,,,,,,,,,,,,,,,,,,,,5,0,5,0,0,6,6,6,,,,,,,space,0.928793907166,,,,,,2017_Feb_01_1206,59.7756793041,spr_backupper,001,Mo18,
,verdünnt.,Boden,Slums.,trug.,Saft,nan,Gantenbein.,nan,Wohnung.,zwängen.,Menge,nan,warmen,fahren.,Frau,ganz,gefertigt.,zwängen.,nan,warme,gehalten.,einmal,nan,war.,warmer,als,Wohnung.,nan,Nadelhölzer,nan,als,überführt,nan,mit,Fall,nan,ist.,nan,Stoff,nan,nan,nan,diskutiert.,jede,nan,Fall,ziemlich,eingesprüht.,Menge,Boden,stattfinden.,Tage.,umgearbeitet.,nan,Sammlung,Problemen,nan,gehärtet.,Frau,des,warmem,Wein,mitbringen.,nan,nan,Gewebe,Tee,Weins,des,nan,nan,Besatz,dem,dass,jede,Kaffee,mitbringen.,haftbar.,nan,Einsatz,überführt,ganz,zur,Slums.,Japan.,das,selber,einmal,war.,nan,zur,dem,Sammlung,mit,liegen.,Gantenbeins.,Probleme,zurückgekehrt.,,,,,,,,,,,,,,,,,,,,,,,5,0,5,0,0,7,7,7,,,,,,,space,0.390618801117,,,,,,2017_Feb_01_1206,59.7756793041,spr_backupper,001,Mo18,
,,,,,,,,,,,,,,,,,,,,,,,,,,,,,,,,,,,,,,,,,,,,,,,,,,,,,,,,,,,,,,,,,,,,,,,,,,,,,,,,,,,,,,,,,,,,,,,,,,,,,,,,,,,,,,,,,,,,,,,,,5,0,5,0,,,,,,,,,,,,,None,n,2.24786782265,,,2017_Feb_01_1206,59.7756793041,spr_backupper,001,Mo18,
,Die,Nicht,Am,Die,Sie,Wir,Die,Es,Sie,Wir,Mit,Er,Er,Wir,Die,Im,Alle,Wir,Viele,In,In,In,Die,Die,In,Wir,Sie,Dort,Jetzt,Wir,Wir,Es,Beträchtliche,Ich,100,Er,Die,Die,Er,Walter,Dort,Sie,Fernab,Man,Viele,100,Dass,Die,Mit,Nicht,Unter,Der,Die,Die,Sie,In,Außer,Die,Die,Bei,Er,Bei,Außer,Die,Beträchtliche,Danach,Ich,Bei,Bei,Die,Es,Das,Wir,Es,Man,Die,Außer,Manche,Außer,Ihr,Es,Im,Die,Am,Die,In,Jugendliche,In,Die,Sie,Die,Wir,Sie,Ich,Jungtiere,Die,In,Als,,,,,,,,,,,,,,,,,,,,,,,6,0,6,0,0,0,0,0,,,,,,space,space,0.347412109375,,,,0.805359840393,,2017_Feb_01_1206,59.7756793041,spr_backupper,001,Mo18,
,Lösung,ein,äußeren,Uhr,haben,hatten,Gäste,wurden,verlassen,mussten,dieser,wurde,stellt,konnten,Schuhe,Fernrohr,Betten,mussten,Tonnen,den,diesem,meinem,Autos,Uhr,den,übergaben,verlassen,türmen,ist,hatten,übergaben,waren,Stücke,nehme,g,wurde,Teilnehmerinnen,Linie,hat,Scheel,türmen,verbrauchen,des,machte,Tonnen,g,es,Eislaufbahnen,dieser,ein,keinen,Flug,Stücke,Autos,hatte,der,den,Formen,Schuhe,der,stellt,unserer,das,Schule,Stücke,wurde,wurde,unserer,der,Schule,wurden,Tuch,haben,hat,machte,müden,dem,Kreditnehmer,dem,Blutdruck,waren,Fernrohr,Kinder,äußersten,"Uhr,",einer,können,meinem,Uhr,verbrauchen,Kinder,haben,hatte,nehme,sollten,Gäste,der,die,,,,,,,,,,,,,,,,,,,,,,,6,0,6,0,0,1,1,1,,,,,,,space,0.398892879486,,,,,,2017_Feb_01_1206,59.7756793041,spr_backupper,001,Mo18,
,wird,Tropfen,Rand,war,die,in,suchen,Eimer,wegen,uns,Methode,trotz,die,dann,in,sahen,wurden,uns,gebrauchte,Kakao,Zirkus,Studium,beider,schlug,Kakao,dem,wegen,sich,genau,in,das,nur,saftiges,eine,brauner,trotz,wussten,101,ein,war,sich,60,Rummels,mal,gebrauchter,braunen,"regnete,",wurden,Methode,Tropfen,Umständen,zum,wurden,beider,keine,Tat,Bürgermeister,wurden,in,Feier,die,Ankunft,Essen,verbraucht,saftigen,die,damals,Ankunft,Feier,verbraucht,Eimer,wurde,jede,uns,mal,Teilnehmer,Essen,sind,Bürgermeister,kann,nur,sahen,fuhren,Rand,die,Studie,Kleidung,Studium,schlug,60,fuhren,jede,keine,eine,immer,suchen,Tat,Sonne,,,,,,,,,,,,,,,,,,,,,,,6,0,6,0,0,2,2,2,,,,,,,space,0.402754068375,,,,,,2017_Feb_01_1206,59.7756793041,spr_backupper,001,Mo18,
,mit,königliches,der,aus,Erlebnisse,Dänemark,die,rote,dem,durch,kann,dem,Masse,mit,Größe,wir,mit,durch,Kleidung,gehören,werden,las,beteiligter,"sporadisch,",gehören,Mann,des,Berge,die,Dänemark,Auto,kleinere,Fleisch,große,Zucker,des,überwiegend,hält,Hemd,der,Berge,Liter,wurde,wieder,Kleidung,Zuckers,hat,mit,kann,königlichen,können,Mond,aus,beteiligten,Lust,wissen,beschuldigten,unter,Größe,gedachte,Masse,stand,kann,260.000,Fleischs,Leinwand,schnell,stand,gedachte,260.000,roter,dann,Menge,die,wieder,wurden,kann,mit,beschuldigten,schon,kleinere,wir,mit,der,er,wurde,bei,habe,"sporadisch,",Liter,mit,Menge,Lust,große,auf,die,wissen,"unterging,",,,,,,,,,,,,,,,,,,,,,,,6,0,6,0,0,3,3,3,,,,,,,space,0.379561185837,,,,,,2017_Feb_01_1206,59.7756793041,spr_backupper,001,Mo18,
,"reichlichem,",Blut,Stadt,"Japan,",bei,gelegentlich,Wohnung,Farbe,schönen,Büschel,man,bekannten,mit,"minimalem,",36,den,"üblichem,",Büschel,landen,immer,die,ich,Fahrer,obschon,immer,das,schönen,schmutziger,richtige,einen,dem,"Delikte,",wurden,Packung,sind,bekannten,"nicht,",nicht,aus,vierte,schmutzige,sprudelndes,schon,viel,landen,sind,uns,dauerhaftem,man,Bluts,Neuwahlen,dauerte,"wertvollem,",Fahrer,auf,wir,die,"regelmäßigem,",36,man,mit,ein,ich,Kilowattstunden,wurden,aus,dank,ein,man,Kilowattstunden,Farbe,mit,alten,Stimmung,viel,mit,ich,"sämtlichem,",die,bei,"Delikte,",den,solchen,Stadt,"trug,",jetzt,ausreichendem,ich,obwohl,sprudelnden,solch,alten,auf,Packung,warmem,Wohnung,wir,war,,,,,,,,,,,,,,,,,,,,,,,6,0,6,0,0,4,4,4,,,,,,,space,0.390252828598,,,,,,2017_Feb_01_1206,59.7756793041,spr_backupper,001,Mo18,
,purem,hat,liegen,die,"frischem,",einen,des,geschleudert.,Wetter,frischen,eine,Skandal,einem,sauberen,würden,roten,harten,frisches,im,350,Tiere,mehr,wurden,sie,350,Auto,Wetters,Wäsche.,"Zeit,",gelegentlichen,Mann,derer,serviert.,salziger,auf,Skandals,was,am,feinem,Bundespräsident.,Wäsche.,Trinkwasser.,immer,Lärm,im,auf,die,feinem,eine,hat,vor,ungefähr,klassischen,wurden,noch,von,Störenfriede,kaltem,hätten,den,einem,Glas,leider,elektrischer,serviert.,seltenem,täglichem,Glas,der,elektrische,geschleudert.,"reichem,",Kram,ziemlich,Lärm,zusätzlichem,leider,künftigem,Störenfriede,minimalem,deren,roten,unzureichenden,liegen,war,"nachgewiesen,",monatlichem,mehr,sie,Trinkwassers.,unzureichenden,Krams,noch,salzige,weichem,des,um,die,,,,,,,,,,,,,,,,,,,,,,,6,0,6,0,0,5,5,5,,,,,,,space,0.364651918411,,,,,,2017_Feb_01_1206,59.7756793041,spr_backupper,001,Mo18,
,Alkohol,den,die,er,kaltem,Besucher.,Herrn,nan,die,Grases,große,wiedergewählt.,Esslöffel,Kraftstoff,seiner,Planeten,Schaumstoff,Gras,Müll.,ml,artgerecht,als,verschrottet.,defekt,ml,mehr,die,nan,um,Besucher.,mehr,sie,nan,Wurst,jeden,wiedergewählt.,Tupperware,Hauptbahnhof.,dichten,nan,nan,nan,ruhig,um,Müll.,jeden,Stimmung,Kunsteis,große,den,Dezember,drei,Schmuck,verschrottet.,eine,den,jeden.,Abduschen,seiner,Soldaten,Esslöffel,köstlicher,nichts,Energie.,nan,dichten,grünen,köstlichen,Soldaten,Energie.,nan,goldenen,aus,"vermiest,",um,schwarzem,nichts,Einkommen,jeden.,täglichen,sie,Planet,Helmen,die,aus,dass,Taschengeld,als,defekt,nan,Helmen,aus,eine,Wurst,Untergrund,Herrn,die,Flut,,,,,,,,,,,,,,,,,,,,,,,6,0,6,0,0,6,6,6,,,,,,,space,0.401617050171,,,,,,2017_Feb_01_1206,59.7756793041,spr_backupper,001,Mo18,
,verdünnt.,Boden,Slums.,trug.,Saft,nan,Gantenbein.,nan,Wohnung.,zwängen.,Menge,nan,warmen,fahren.,Frau,ganz,gefertigt.,zwängen.,nan,warme,gehalten.,einmal,nan,war.,warmer,als,Wohnung.,nan,Nadelhölzer,nan,als,überführt,nan,mit,Fall,nan,ist.,nan,Stoff,nan,nan,nan,diskutiert.,jede,nan,Fall,ziemlich,eingesprüht.,Menge,Boden,stattfinden.,Tage.,umgearbeitet.,nan,Sammlung,Problemen,nan,gehärtet.,Frau,des,warmem,Wein,mitbringen.,nan,nan,Gewebe,Tee,Weins,des,nan,nan,Besatz,dem,dass,jede,Kaffee,mitbringen.,haftbar.,nan,Einsatz,überführt,ganz,zur,Slums.,Japan.,das,selber,einmal,war.,nan,zur,dem,Sammlung,mit,liegen.,Gantenbeins.,Probleme,zurückgekehrt.,,,,,,,,,,,,,,,,,,,,,,,6,0,6,0,0,7,7,7,,,,,,,space,0.328808069229,,,,,,2017_Feb_01_1206,59.7756793041,spr_backupper,001,Mo18,
,,,,,,,,,,,,,,,,,,,,,,,,,,,,,,,,,,,,,,,,,,,,,,,,,,,,,,,,,,,,,,,,,,,,,,,,,,,,,,,,,,,,,,,,,,,,,,,,,,,,,,,,,,,,,,,,,,,,,,,,,6,0,6,0,,,,,,,,,,,,,None,n,1.32562208176,,,2017_Feb_01_1206,59.7756793041,spr_backupper,001,Mo18,
,Die,Nicht,Am,Die,Sie,Wir,Die,Es,Sie,Wir,Mit,Er,Er,Wir,Die,Im,Alle,Wir,Viele,In,In,In,Die,Die,In,Wir,Sie,Dort,Jetzt,Wir,Wir,Es,Beträchtliche,Ich,100,Er,Die,Die,Er,Walter,Dort,Sie,Fernab,Man,Viele,100,Dass,Die,Mit,Nicht,Unter,Der,Die,Die,Sie,In,Außer,Die,Die,Bei,Er,Bei,Außer,Die,Beträchtliche,Danach,Ich,Bei,Bei,Die,Es,Das,Wir,Es,Man,Die,Außer,Manche,Außer,Ihr,Es,Im,Die,Am,Die,In,Jugendliche,In,Die,Sie,Die,Wir,Sie,Ich,Jungtiere,Die,In,Als,,,,,,,,,,,,,,,,,,,,,,,7,0,7,0,0,0,0,0,,,,,,space,space,0.363704919815,,,,0.988888025284,,2017_Feb_01_1206,59.7756793041,spr_backupper,001,Mo18,
,Lösung,ein,äußeren,Uhr,haben,hatten,Gäste,wurden,verlassen,mussten,dieser,wurde,stellt,konnten,Schuhe,Fernrohr,Betten,mussten,Tonnen,den,diesem,meinem,Autos,Uhr,den,übergaben,verlassen,türmen,ist,hatten,übergaben,waren,Stücke,nehme,g,wurde,Teilnehmerinnen,Linie,hat,Scheel,türmen,verbrauchen,des,machte,Tonnen,g,es,Eislaufbahnen,dieser,ein,keinen,Flug,Stücke,Autos,hatte,der,den,Formen,Schuhe,der,stellt,unserer,das,Schule,Stücke,wurde,wurde,unserer,der,Schule,wurden,Tuch,haben,hat,machte,müden,dem,Kreditnehmer,dem,Blutdruck,waren,Fernrohr,Kinder,äußersten,"Uhr,",einer,können,meinem,Uhr,verbrauchen,Kinder,haben,hatte,nehme,sollten,Gäste,der,die,,,,,,,,,,,,,,,,,,,,,,,7,0,7,0,0,1,1,1,,,,,,,space,0.343046188354,,,,,,2017_Feb_01_1206,59.7756793041,spr_backupper,001,Mo18,
,wird,Tropfen,Rand,war,die,in,suchen,Eimer,wegen,uns,Methode,trotz,die,dann,in,sahen,wurden,uns,gebrauchte,Kakao,Zirkus,Studium,beider,schlug,Kakao,dem,wegen,sich,genau,in,das,nur,saftiges,eine,brauner,trotz,wussten,101,ein,war,sich,60,Rummels,mal,gebrauchter,braunen,"regnete,",wurden,Methode,Tropfen,Umständen,zum,wurden,beider,keine,Tat,Bürgermeister,wurden,in,Feier,die,Ankunft,Essen,verbraucht,saftigen,die,damals,Ankunft,Feier,verbraucht,Eimer,wurde,jede,uns,mal,Teilnehmer,Essen,sind,Bürgermeister,kann,nur,sahen,fuhren,Rand,die,Studie,Kleidung,Studium,schlug,60,fuhren,jede,keine,eine,immer,suchen,Tat,Sonne,,,,,,,,,,,,,,,,,,,,,,,7,0,7,0,0,2,2,2,,,,,,,space,0.402090072632,,,,,,2017_Feb_01_1206,59.7756793041,spr_backupper,001,Mo18,
,mit,königliches,der,aus,Erlebnisse,Dänemark,die,rote,dem,durch,kann,dem,Masse,mit,Größe,wir,mit,durch,Kleidung,gehören,werden,las,beteiligter,"sporadisch,",gehören,Mann,des,Berge,die,Dänemark,Auto,kleinere,Fleisch,große,Zucker,des,überwiegend,hält,Hemd,der,Berge,Liter,wurde,wieder,Kleidung,Zuckers,hat,mit,kann,königlichen,können,Mond,aus,beteiligten,Lust,wissen,beschuldigten,unter,Größe,gedachte,Masse,stand,kann,260.000,Fleischs,Leinwand,schnell,stand,gedachte,260.000,roter,dann,Menge,die,wieder,wurden,kann,mit,beschuldigten,schon,kleinere,wir,mit,der,er,wurde,bei,habe,"sporadisch,",Liter,mit,Menge,Lust,große,auf,die,wissen,"unterging,",,,,,,,,,,,,,,,,,,,,,,,7,0,7,0,0,3,3,3,,,,,,,space,0.376143932343,,,,,,2017_Feb_01_1206,59.7756793041,spr_backupper,001,Mo18,
,"reichlichem,",Blut,Stadt,"Japan,",bei,gelegentlich,Wohnung,Farbe,schönen,Büschel,man,bekannten,mit,"minimalem,",36,den,"üblichem,",Büschel,landen,immer,die,ich,Fahrer,obschon,immer,das,schönen,schmutziger,richtige,einen,dem,"Delikte,",wurden,Packung,sind,bekannten,"nicht,",nicht,aus,vierte,schmutzige,sprudelndes,schon,viel,landen,sind,uns,dauerhaftem,man,Bluts,Neuwahlen,dauerte,"wertvollem,",Fahrer,auf,wir,die,"regelmäßigem,",36,man,mit,ein,ich,Kilowattstunden,wurden,aus,dank,ein,man,Kilowattstunden,Farbe,mit,alten,Stimmung,viel,mit,ich,"sämtlichem,",die,bei,"Delikte,",den,solchen,Stadt,"trug,",jetzt,ausreichendem,ich,obwohl,sprudelnden,solch,alten,auf,Packung,warmem,Wohnung,wir,war,,,,,,,,,,,,,,,,,,,,,,,7,0,7,0,0,4,4,4,,,,,,,space,0.369581222534,,,,,,2017_Feb_01_1206,59.7756793041,spr_backupper,001,Mo18,
,purem,hat,liegen,die,"frischem,",einen,des,geschleudert.,Wetter,frischen,eine,Skandal,einem,sauberen,würden,roten,harten,frisches,im,350,Tiere,mehr,wurden,sie,350,Auto,Wetters,Wäsche.,"Zeit,",gelegentlichen,Mann,derer,serviert.,salziger,auf,Skandals,was,am,feinem,Bundespräsident.,Wäsche.,Trinkwasser.,immer,Lärm,im,auf,die,feinem,eine,hat,vor,ungefähr,klassischen,wurden,noch,von,Störenfriede,kaltem,hätten,den,einem,Glas,leider,elektrischer,serviert.,seltenem,täglichem,Glas,der,elektrische,geschleudert.,"reichem,",Kram,ziemlich,Lärm,zusätzlichem,leider,künftigem,Störenfriede,minimalem,deren,roten,unzureichenden,liegen,war,"nachgewiesen,",monatlichem,mehr,sie,Trinkwassers.,unzureichenden,Krams,noch,salzige,weichem,des,um,die,,,,,,,,,,,,,,,,,,,,,,,7,0,7,0,0,5,5,5,,,,,,,space,0.400777101517,,,,,,2017_Feb_01_1206,59.7756793041,spr_backupper,001,Mo18,
,Alkohol,den,die,er,kaltem,Besucher.,Herrn,nan,die,Grases,große,wiedergewählt.,Esslöffel,Kraftstoff,seiner,Planeten,Schaumstoff,Gras,Müll.,ml,artgerecht,als,verschrottet.,defekt,ml,mehr,die,nan,um,Besucher.,mehr,sie,nan,Wurst,jeden,wiedergewählt.,Tupperware,Hauptbahnhof.,dichten,nan,nan,nan,ruhig,um,Müll.,jeden,Stimmung,Kunsteis,große,den,Dezember,drei,Schmuck,verschrottet.,eine,den,jeden.,Abduschen,seiner,Soldaten,Esslöffel,köstlicher,nichts,Energie.,nan,dichten,grünen,köstlichen,Soldaten,Energie.,nan,goldenen,aus,"vermiest,",um,schwarzem,nichts,Einkommen,jeden.,täglichen,sie,Planet,Helmen,die,aus,dass,Taschengeld,als,defekt,nan,Helmen,aus,eine,Wurst,Untergrund,Herrn,die,Flut,,,,,,,,,,,,,,,,,,,,,,,7,0,7,0,0,6,6,6,,,,,,,space,0.37030005455,,,,,,2017_Feb_01_1206,59.7756793041,spr_backupper,001,Mo18,
,verdünnt.,Boden,Slums.,trug.,Saft,nan,Gantenbein.,nan,Wohnung.,zwängen.,Menge,nan,warmen,fahren.,Frau,ganz,gefertigt.,zwängen.,nan,warme,gehalten.,einmal,nan,war.,warmer,als,Wohnung.,nan,Nadelhölzer,nan,als,überführt,nan,mit,Fall,nan,ist.,nan,Stoff,nan,nan,nan,diskutiert.,jede,nan,Fall,ziemlich,eingesprüht.,Menge,Boden,stattfinden.,Tage.,umgearbeitet.,nan,Sammlung,Problemen,nan,gehärtet.,Frau,des,warmem,Wein,mitbringen.,nan,nan,Gewebe,Tee,Weins,des,nan,nan,Besatz,dem,dass,jede,Kaffee,mitbringen.,haftbar.,nan,Einsatz,überführt,ganz,zur,Slums.,Japan.,das,selber,einmal,war.,nan,zur,dem,Sammlung,mit,liegen.,Gantenbeins.,Probleme,zurückgekehrt.,,,,,,,,,,,,,,,,,,,,,,,7,0,7,0,0,7,7,7,,,,,,,space,0.464507102966,,,,,,2017_Feb_01_1206,59.7756793041,spr_backupper,001,Mo18,
,,,,,,,,,,,,,,,,,,,,,,,,,,,,,,,,,,,,,,,,,,,,,,,,,,,,,,,,,,,,,,,,,,,,,,,,,,,,,,,,,,,,,,,,,,,,,,,,,,,,,,,,,,,,,,,,,,,,,,,,,7,0,7,0,,,,,,,,,,,,,None,n,2.19432091713,,,2017_Feb_01_1206,59.7756793041,spr_backupper,001,Mo18,
,Die,Nicht,Am,Die,Sie,Wir,Die,Es,Sie,Wir,Mit,Er,Er,Wir,Die,Im,Alle,Wir,Viele,In,In,In,Die,Die,In,Wir,Sie,Dort,Jetzt,Wir,Wir,Es,Beträchtliche,Ich,100,Er,Die,Die,Er,Walter,Dort,Sie,Fernab,Man,Viele,100,Dass,Die,Mit,Nicht,Unter,Der,Die,Die,Sie,In,Außer,Die,Die,Bei,Er,Bei,Außer,Die,Beträchtliche,Danach,Ich,Bei,Bei,Die,Es,Das,Wir,Es,Man,Die,Außer,Manche,Außer,Ihr,Es,Im,Die,Am,Die,In,Jugendliche,In,Die,Sie,Die,Wir,Sie,Ich,Jungtiere,Die,In,Als,,,,,,,,,,,,,,,,,,,,,,,8,0,8,0,0,0,0,0,,,,,,space,space,0.419564008713,,,,8.70227813721e-05,,2017_Feb_01_1206,59.7756793041,spr_backupper,001,Mo18,
,Lösung,ein,äußeren,Uhr,haben,hatten,Gäste,wurden,verlassen,mussten,dieser,wurde,stellt,konnten,Schuhe,Fernrohr,Betten,mussten,Tonnen,den,diesem,meinem,Autos,Uhr,den,übergaben,verlassen,türmen,ist,hatten,übergaben,waren,Stücke,nehme,g,wurde,Teilnehmerinnen,Linie,hat,Scheel,türmen,verbrauchen,des,machte,Tonnen,g,es,Eislaufbahnen,dieser,ein,keinen,Flug,Stücke,Autos,hatte,der,den,Formen,Schuhe,der,stellt,unserer,das,Schule,Stücke,wurde,wurde,unserer,der,Schule,wurden,Tuch,haben,hat,machte,müden,dem,Kreditnehmer,dem,Blutdruck,waren,Fernrohr,Kinder,äußersten,"Uhr,",einer,können,meinem,Uhr,verbrauchen,Kinder,haben,hatte,nehme,sollten,Gäste,der,die,,,,,,,,,,,,,,,,,,,,,,,8,0,8,0,0,1,1,1,,,,,,,space,0.374396800995,,,,,,2017_Feb_01_1206,59.7756793041,spr_backupper,001,Mo18,
,wird,Tropfen,Rand,war,die,in,suchen,Eimer,wegen,uns,Methode,trotz,die,dann,in,sahen,wurden,uns,gebrauchte,Kakao,Zirkus,Studium,beider,schlug,Kakao,dem,wegen,sich,genau,in,das,nur,saftiges,eine,brauner,trotz,wussten,101,ein,war,sich,60,Rummels,mal,gebrauchter,braunen,"regnete,",wurden,Methode,Tropfen,Umständen,zum,wurden,beider,keine,Tat,Bürgermeister,wurden,in,Feier,die,Ankunft,Essen,verbraucht,saftigen,die,damals,Ankunft,Feier,verbraucht,Eimer,wurde,jede,uns,mal,Teilnehmer,Essen,sind,Bürgermeister,kann,nur,sahen,fuhren,Rand,die,Studie,Kleidung,Studium,schlug,60,fuhren,jede,keine,eine,immer,suchen,Tat,Sonne,,,,,,,,,,,,,,,,,,,,,,,8,0,8,0,0,2,2,2,,,,,,,space,0.361167192459,,,,,,2017_Feb_01_1206,59.7756793041,spr_backupper,001,Mo18,
,mit,königliches,der,aus,Erlebnisse,Dänemark,die,rote,dem,durch,kann,dem,Masse,mit,Größe,wir,mit,durch,Kleidung,gehören,werden,las,beteiligter,"sporadisch,",gehören,Mann,des,Berge,die,Dänemark,Auto,kleinere,Fleisch,große,Zucker,des,überwiegend,hält,Hemd,der,Berge,Liter,wurde,wieder,Kleidung,Zuckers,hat,mit,kann,königlichen,können,Mond,aus,beteiligten,Lust,wissen,beschuldigten,unter,Größe,gedachte,Masse,stand,kann,260.000,Fleischs,Leinwand,schnell,stand,gedachte,260.000,roter,dann,Menge,die,wieder,wurden,kann,mit,beschuldigten,schon,kleinere,wir,mit,der,er,wurde,bei,habe,"sporadisch,",Liter,mit,Menge,Lust,große,auf,die,wissen,"unterging,",,,,,,,,,,,,,,,,,,,,,,,8,0,8,0,0,3,3,3,,,,,,,space,0.385056018829,,,,,,2017_Feb_01_1206,59.7756793041,spr_backupper,001,Mo18,
,"reichlichem,",Blut,Stadt,"Japan,",bei,gelegentlich,Wohnung,Farbe,schönen,Büschel,man,bekannten,mit,"minimalem,",36,den,"üblichem,",Büschel,landen,immer,die,ich,Fahrer,obschon,immer,das,schönen,schmutziger,richtige,einen,dem,"Delikte,",wurden,Packung,sind,bekannten,"nicht,",nicht,aus,vierte,schmutzige,sprudelndes,schon,viel,landen,sind,uns,dauerhaftem,man,Bluts,Neuwahlen,dauerte,"wertvollem,",Fahrer,auf,wir,die,"regelmäßigem,",36,man,mit,ein,ich,Kilowattstunden,wurden,aus,dank,ein,man,Kilowattstunden,Farbe,mit,alten,Stimmung,viel,mit,ich,"sämtlichem,",die,bei,"Delikte,",den,solchen,Stadt,"trug,",jetzt,ausreichendem,ich,obwohl,sprudelnden,solch,alten,auf,Packung,warmem,Wohnung,wir,war,,,,,,,,,,,,,,,,,,,,,,,8,0,8,0,0,4,4,4,,,,,,,space,0.433845996857,,,,,,2017_Feb_01_1206,59.7756793041,spr_backupper,001,Mo18,
,purem,hat,liegen,die,"frischem,",einen,des,geschleudert.,Wetter,frischen,eine,Skandal,einem,sauberen,würden,roten,harten,frisches,im,350,Tiere,mehr,wurden,sie,350,Auto,Wetters,Wäsche.,"Zeit,",gelegentlichen,Mann,derer,serviert.,salziger,auf,Skandals,was,am,feinem,Bundespräsident.,Wäsche.,Trinkwasser.,immer,Lärm,im,auf,die,feinem,eine,hat,vor,ungefähr,klassischen,wurden,noch,von,Störenfriede,kaltem,hätten,den,einem,Glas,leider,elektrischer,serviert.,seltenem,täglichem,Glas,der,elektrische,geschleudert.,"reichem,",Kram,ziemlich,Lärm,zusätzlichem,leider,künftigem,Störenfriede,minimalem,deren,roten,unzureichenden,liegen,war,"nachgewiesen,",monatlichem,mehr,sie,Trinkwassers.,unzureichenden,Krams,noch,salzige,weichem,des,um,die,,,,,,,,,,,,,,,,,,,,,,,8,0,8,0,0,5,5,5,,,,,,,space,0.384804010391,,,,,,2017_Feb_01_1206,59.7756793041,spr_backupper,001,Mo18,
,Alkohol,den,die,er,kaltem,Besucher.,Herrn,nan,die,Grases,große,wiedergewählt.,Esslöffel,Kraftstoff,seiner,Planeten,Schaumstoff,Gras,Müll.,ml,artgerecht,als,verschrottet.,defekt,ml,mehr,die,nan,um,Besucher.,mehr,sie,nan,Wurst,jeden,wiedergewählt.,Tupperware,Hauptbahnhof.,dichten,nan,nan,nan,ruhig,um,Müll.,jeden,Stimmung,Kunsteis,große,den,Dezember,drei,Schmuck,verschrottet.,eine,den,jeden.,Abduschen,seiner,Soldaten,Esslöffel,köstlicher,nichts,Energie.,nan,dichten,grünen,köstlichen,Soldaten,Energie.,nan,goldenen,aus,"vermiest,",um,schwarzem,nichts,Einkommen,jeden.,täglichen,sie,Planet,Helmen,die,aus,dass,Taschengeld,als,defekt,nan,Helmen,aus,eine,Wurst,Untergrund,Herrn,die,Flut,,,,,,,,,,,,,,,,,,,,,,,8,0,8,0,0,6,6,6,,,,,,,space,0.387094974518,,,,,,2017_Feb_01_1206,59.7756793041,spr_backupper,001,Mo18,
,verdünnt.,Boden,Slums.,trug.,Saft,nan,Gantenbein.,nan,Wohnung.,zwängen.,Menge,nan,warmen,fahren.,Frau,ganz,gefertigt.,zwängen.,nan,warme,gehalten.,einmal,nan,war.,warmer,als,Wohnung.,nan,Nadelhölzer,nan,als,überführt,nan,mit,Fall,nan,ist.,nan,Stoff,nan,nan,nan,diskutiert.,jede,nan,Fall,ziemlich,eingesprüht.,Menge,Boden,stattfinden.,Tage.,umgearbeitet.,nan,Sammlung,Problemen,nan,gehärtet.,Frau,des,warmem,Wein,mitbringen.,nan,nan,Gewebe,Tee,Weins,des,nan,nan,Besatz,dem,dass,jede,Kaffee,mitbringen.,haftbar.,nan,Einsatz,überführt,ganz,zur,Slums.,Japan.,das,selber,einmal,war.,nan,zur,dem,Sammlung,mit,liegen.,Gantenbeins.,Probleme,zurückgekehrt.,,,,,,,,,,,,,,,,,,,,,,,8,0,8,0,0,7,7,7,,,,,,,space,0.390712976456,,,,,,2017_Feb_01_1206,59.7756793041,spr_backupper,001,Mo18,
,nan,berührt.,nan,nan,besprochen.,nan,nan,nan,nan,nan,dunkler,nan,Honigs,nan,gepasst,deutlich.,nan,nan,nan,Milch.,nan,Rilke.,nan,nan,Milch.,gerne.,nan,nan,umzusetzen.,nan,gerne.,wurden.,nan,an,genug.,nan,nan,nan,gefertigt.,nan,nan,nan,nan,Menge,nan,genug.,vermiest.,nan,dunkle,berührt.,nan,nan,nan,nan,dumme,im,nan,nan,gepasst.,zweiten,Honig,schon,nan,nan,nan,wiederhergestellt.,wieder,schon,zweiten,nan,nan,rekonstruiert.,Haus,es,Menge,wiederbelebt.,nan,nan,nan,sinken.,wurden.,deutlich.,Schule.,nan,nan,Medikament,kaufen.,Rilke,nan,nan,Schule.,Haus,dummer,an,nan,nan,im,nan,,,,,,,,,,,,,,,,,,,,,,,8,0,8,0,0,8,8,8,,,,,,,space,0.383482933044,,,,,,2017_Feb_01_1206,59.7756793041,spr_backupper,001,Mo18,
,,,,,,,,,,,,,,,,,,,,,,,,,,,,,,,,,,,,,,,,,,,,,,,,,,,,,,,,,,,,,,,,,,,,,,,,,,,,,,,,,,,,,,,,,,,,,,,,,,,,,,,,,,,,,,,,,,,,,,,,,8,0,8,0,,,,,,,,,,,,,None,n,2.4213809967,,,2017_Feb_01_1206,59.7756793041,spr_backupper,001,Mo18,
,Die,Nicht,Am,Die,Sie,Wir,Die,Es,Sie,Wir,Mit,Er,Er,Wir,Die,Im,Alle,Wir,Viele,In,In,In,Die,Die,In,Wir,Sie,Dort,Jetzt,Wir,Wir,Es,Beträchtliche,Ich,100,Er,Die,Die,Er,Walter,Dort,Sie,Fernab,Man,Viele,100,Dass,Die,Mit,Nicht,Unter,Der,Die,Die,Sie,In,Außer,Die,Die,Bei,Er,Bei,Außer,Die,Beträchtliche,Danach,Ich,Bei,Bei,Die,Es,Das,Wir,Es,Man,Die,Außer,Manche,Außer,Ihr,Es,Im,Die,Am,Die,In,Jugendliche,In,Die,Sie,Die,Wir,Sie,Ich,Jungtiere,Die,In,Als,,,,,,,,,,,,,,,,,,,,,,,9,0,9,0,0,0,0,0,,,,,,None,space,0.600697994232,,,,,,2017_Feb_01_1206,59.7756793041,spr_backupper,001,Mo18,
,Lösung,ein,äußeren,Uhr,haben,hatten,Gäste,wurden,verlassen,mussten,dieser,wurde,stellt,konnten,Schuhe,Fernrohr,Betten,mussten,Tonnen,den,diesem,meinem,Autos,Uhr,den,übergaben,verlassen,türmen,ist,hatten,übergaben,waren,Stücke,nehme,g,wurde,Teilnehmerinnen,Linie,hat,Scheel,türmen,verbrauchen,des,machte,Tonnen,g,es,Eislaufbahnen,dieser,ein,keinen,Flug,Stücke,Autos,hatte,der,den,Formen,Schuhe,der,stellt,unserer,das,Schule,Stücke,wurde,wurde,unserer,der,Schule,wurden,Tuch,haben,hat,machte,müden,dem,Kreditnehmer,dem,Blutdruck,waren,Fernrohr,Kinder,äußersten,"Uhr,",einer,können,meinem,Uhr,verbrauchen,Kinder,haben,hatte,nehme,sollten,Gäste,der,die,,,,,,,,,,,,,,,,,,,,,,,9,0,9,0,0,1,1,1,,,,,,,space,0.358341932297,,,,,,2017_Feb_01_1206,59.7756793041,spr_backupper,001,Mo18,
,wird,Tropfen,Rand,war,die,in,suchen,Eimer,wegen,uns,Methode,trotz,die,dann,in,sahen,wurden,uns,gebrauchte,Kakao,Zirkus,Studium,beider,schlug,Kakao,dem,wegen,sich,genau,in,das,nur,saftiges,eine,brauner,trotz,wussten,101,ein,war,sich,60,Rummels,mal,gebrauchter,braunen,"regnete,",wurden,Methode,Tropfen,Umständen,zum,wurden,beider,keine,Tat,Bürgermeister,wurden,in,Feier,die,Ankunft,Essen,verbraucht,saftigen,die,damals,Ankunft,Feier,verbraucht,Eimer,wurde,jede,uns,mal,Teilnehmer,Essen,sind,Bürgermeister,kann,nur,sahen,fuhren,Rand,die,Studie,Kleidung,Studium,schlug,60,fuhren,jede,keine,eine,immer,suchen,Tat,Sonne,,,,,,,,,,,,,,,,,,,,,,,9,0,9,0,0,2,2,2,,,,,,,space,0.384733915329,,,,,,2017_Feb_01_1206,59.7756793041,spr_backupper,001,Mo18,
,mit,königliches,der,aus,Erlebnisse,Dänemark,die,rote,dem,durch,kann,dem,Masse,mit,Größe,wir,mit,durch,Kleidung,gehören,werden,las,beteiligter,"sporadisch,",gehören,Mann,des,Berge,die,Dänemark,Auto,kleinere,Fleisch,große,Zucker,des,überwiegend,hält,Hemd,der,Berge,Liter,wurde,wieder,Kleidung,Zuckers,hat,mit,kann,königlichen,können,Mond,aus,beteiligten,Lust,wissen,beschuldigten,unter,Größe,gedachte,Masse,stand,kann,260.000,Fleischs,Leinwand,schnell,stand,gedachte,260.000,roter,dann,Menge,die,wieder,wurden,kann,mit,beschuldigten,schon,kleinere,wir,mit,der,er,wurde,bei,habe,"sporadisch,",Liter,mit,Menge,Lust,große,auf,die,wissen,"unterging,",,,,,,,,,,,,,,,,,,,,,,,9,0,9,0,0,3,3,3,,,,,,,space,0.737998962402,,,,,,2017_Feb_01_1206,59.7756793041,spr_backupper,001,Mo18,
,"reichlichem,",Blut,Stadt,"Japan,",bei,gelegentlich,Wohnung,Farbe,schönen,Büschel,man,bekannten,mit,"minimalem,",36,den,"üblichem,",Büschel,landen,immer,die,ich,Fahrer,obschon,immer,das,schönen,schmutziger,richtige,einen,dem,"Delikte,",wurden,Packung,sind,bekannten,"nicht,",nicht,aus,vierte,schmutzige,sprudelndes,schon,viel,landen,sind,uns,dauerhaftem,man,Bluts,Neuwahlen,dauerte,"wertvollem,",Fahrer,auf,wir,die,"regelmäßigem,",36,man,mit,ein,ich,Kilowattstunden,wurden,aus,dank,ein,man,Kilowattstunden,Farbe,mit,alten,Stimmung,viel,mit,ich,"sämtlichem,",die,bei,"Delikte,",den,solchen,Stadt,"trug,",jetzt,ausreichendem,ich,obwohl,sprudelnden,solch,alten,auf,Packung,warmem,Wohnung,wir,war,,,,,,,,,,,,,,,,,,,,,,,9,0,9,0,0,4,4,4,,,,,,,space,0.660523891449,,,,,,2017_Feb_01_1206,59.7756793041,spr_backupper,001,Mo18,
,purem,hat,liegen,die,"frischem,",einen,des,geschleudert.,Wetter,frischen,eine,Skandal,einem,sauberen,würden,roten,harten,frisches,im,350,Tiere,mehr,wurden,sie,350,Auto,Wetters,Wäsche.,"Zeit,",gelegentlichen,Mann,derer,serviert.,salziger,auf,Skandals,was,am,feinem,Bundespräsident.,Wäsche.,Trinkwasser.,immer,Lärm,im,auf,die,feinem,eine,hat,vor,ungefähr,klassischen,wurden,noch,von,Störenfriede,kaltem,hätten,den,einem,Glas,leider,elektrischer,serviert.,seltenem,täglichem,Glas,der,elektrische,geschleudert.,"reichem,",Kram,ziemlich,Lärm,zusätzlichem,leider,künftigem,Störenfriede,minimalem,deren,roten,unzureichenden,liegen,war,"nachgewiesen,",monatlichem,mehr,sie,Trinkwassers.,unzureichenden,Krams,noch,salzige,weichem,des,um,die,,,,,,,,,,,,,,,,,,,,,,,9,0,9,0,0,5,5,5,,,,,,,space,0.443252086639,,,,,,2017_Feb_01_1206,59.7756793041,spr_backupper,001,Mo18,
,Alkohol,den,die,er,kaltem,Besucher.,Herrn,nan,die,Grases,große,wiedergewählt.,Esslöffel,Kraftstoff,seiner,Planeten,Schaumstoff,Gras,Müll.,ml,artgerecht,als,verschrottet.,defekt,ml,mehr,die,nan,um,Besucher.,mehr,sie,nan,Wurst,jeden,wiedergewählt.,Tupperware,Hauptbahnhof.,dichten,nan,nan,nan,ruhig,um,Müll.,jeden,Stimmung,Kunsteis,große,den,Dezember,drei,Schmuck,verschrottet.,eine,den,jeden.,Abduschen,seiner,Soldaten,Esslöffel,köstlicher,nichts,Energie.,nan,dichten,grünen,köstlichen,Soldaten,Energie.,nan,goldenen,aus,"vermiest,",um,schwarzem,nichts,Einkommen,jeden.,täglichen,sie,Planet,Helmen,die,aus,dass,Taschengeld,als,defekt,nan,Helmen,aus,eine,Wurst,Untergrund,Herrn,die,Flut,,,,,,,,,,,,,,,,,,,,,,,9,0,9,0,0,6,6,6,,,,,,,space,0.414219141006,,,,,,2017_Feb_01_1206,59.7756793041,spr_backupper,001,Mo18,
,verdünnt.,Boden,Slums.,trug.,Saft,nan,Gantenbein.,nan,Wohnung.,zwängen.,Menge,nan,warmen,fahren.,Frau,ganz,gefertigt.,zwängen.,nan,warme,gehalten.,einmal,nan,war.,warmer,als,Wohnung.,nan,Nadelhölzer,nan,als,überführt,nan,mit,Fall,nan,ist.,nan,Stoff,nan,nan,nan,diskutiert.,jede,nan,Fall,ziemlich,eingesprüht.,Menge,Boden,stattfinden.,Tage.,umgearbeitet.,nan,Sammlung,Problemen,nan,gehärtet.,Frau,des,warmem,Wein,mitbringen.,nan,nan,Gewebe,Tee,Weins,des,nan,nan,Besatz,dem,dass,jede,Kaffee,mitbringen.,haftbar.,nan,Einsatz,überführt,ganz,zur,Slums.,Japan.,das,selber,einmal,war.,nan,zur,dem,Sammlung,mit,liegen.,Gantenbeins.,Probleme,zurückgekehrt.,,,,,,,,,,,,,,,,,,,,,,,9,0,9,0,0,7,7,7,,,,,,,space,0.400125026703,,,,,,2017_Feb_01_1206,59.7756793041,spr_backupper,001,Mo18,
,,,,,,,,,,,,,,,,,,,,,,,,,,,,,,,,,,,,,,,,,,,,,,,,,,,,,,,,,,,,,,,,,,,,,,,,,,,,,,,,,,,,,,,,,,,,,,,,,,,,,,,,,,,,,,,,,,,,,,,,,9,0,9,0,,,,,,,,,,,,,None,n,3.180341959,,,2017_Feb_01_1206,59.7756793041,spr_backupper,001,Mo18,
,Die,Nicht,Am,Die,Sie,Wir,Die,Es,Sie,Wir,Mit,Er,Er,Wir,Die,Im,Alle,Wir,Viele,In,In,In,Die,Die,In,Wir,Sie,Dort,Jetzt,Wir,Wir,Es,Beträchtliche,Ich,100,Er,Die,Die,Er,Walter,Dort,Sie,Fernab,Man,Viele,100,Dass,Die,Mit,Nicht,Unter,Der,Die,Die,Sie,In,Außer,Die,Die,Bei,Er,Bei,Außer,Die,Beträchtliche,Danach,Ich,Bei,Bei,Die,Es,Das,Wir,Es,Man,Die,Außer,Manche,Außer,Ihr,Es,Im,Die,Am,Die,In,Jugendliche,In,Die,Sie,Die,Wir,Sie,Ich,Jungtiere,Die,In,Als,,,,,,,,,,,,,,,,,,,,,,,10,0,10,0,0,0,0,0,,,,,,None,space,0.519469976425,,,,,,2017_Feb_01_1206,59.7756793041,spr_backupper,001,Mo18,
,Lösung,ein,äußeren,Uhr,haben,hatten,Gäste,wurden,verlassen,mussten,dieser,wurde,stellt,konnten,Schuhe,Fernrohr,Betten,mussten,Tonnen,den,diesem,meinem,Autos,Uhr,den,übergaben,verlassen,türmen,ist,hatten,übergaben,waren,Stücke,nehme,g,wurde,Teilnehmerinnen,Linie,hat,Scheel,türmen,verbrauchen,des,machte,Tonnen,g,es,Eislaufbahnen,dieser,ein,keinen,Flug,Stücke,Autos,hatte,der,den,Formen,Schuhe,der,stellt,unserer,das,Schule,Stücke,wurde,wurde,unserer,der,Schule,wurden,Tuch,haben,hat,machte,müden,dem,Kreditnehmer,dem,Blutdruck,waren,Fernrohr,Kinder,äußersten,"Uhr,",einer,können,meinem,Uhr,verbrauchen,Kinder,haben,hatte,nehme,sollten,Gäste,der,die,,,,,,,,,,,,,,,,,,,,,,,10,0,10,0,0,1,1,1,,,,,,,space,0.36832690239,,,,,,2017_Feb_01_1206,59.7756793041,spr_backupper,001,Mo18,
,wird,Tropfen,Rand,war,die,in,suchen,Eimer,wegen,uns,Methode,trotz,die,dann,in,sahen,wurden,uns,gebrauchte,Kakao,Zirkus,Studium,beider,schlug,Kakao,dem,wegen,sich,genau,in,das,nur,saftiges,eine,brauner,trotz,wussten,101,ein,war,sich,60,Rummels,mal,gebrauchter,braunen,"regnete,",wurden,Methode,Tropfen,Umständen,zum,wurden,beider,keine,Tat,Bürgermeister,wurden,in,Feier,die,Ankunft,Essen,verbraucht,saftigen,die,damals,Ankunft,Feier,verbraucht,Eimer,wurde,jede,uns,mal,Teilnehmer,Essen,sind,Bürgermeister,kann,nur,sahen,fuhren,Rand,die,Studie,Kleidung,Studium,schlug,60,fuhren,jede,keine,eine,immer,suchen,Tat,Sonne,,,,,,,,,,,,,,,,,,,,,,,10,0,10,0,0,2,2,2,,,,,,,space,0.393448829651,,,,,,2017_Feb_01_1206,59.7756793041,spr_backupper,001,Mo18,
,mit,königliches,der,aus,Erlebnisse,Dänemark,die,rote,dem,durch,kann,dem,Masse,mit,Größe,wir,mit,durch,Kleidung,gehören,werden,las,beteiligter,"sporadisch,",gehören,Mann,des,Berge,die,Dänemark,Auto,kleinere,Fleisch,große,Zucker,des,überwiegend,hält,Hemd,der,Berge,Liter,wurde,wieder,Kleidung,Zuckers,hat,mit,kann,königlichen,können,Mond,aus,beteiligten,Lust,wissen,beschuldigten,unter,Größe,gedachte,Masse,stand,kann,260.000,Fleischs,Leinwand,schnell,stand,gedachte,260.000,roter,dann,Menge,die,wieder,wurden,kann,mit,beschuldigten,schon,kleinere,wir,mit,der,er,wurde,bei,habe,"sporadisch,",Liter,mit,Menge,Lust,große,auf,die,wissen,"unterging,",,,,,,,,,,,,,,,,,,,,,,,10,0,10,0,0,3,3,3,,,,,,,space,0.501898050308,,,,,,2017_Feb_01_1206,59.7756793041,spr_backupper,001,Mo18,
,"reichlichem,",Blut,Stadt,"Japan,",bei,gelegentlich,Wohnung,Farbe,schönen,Büschel,man,bekannten,mit,"minimalem,",36,den,"üblichem,",Büschel,landen,immer,die,ich,Fahrer,obschon,immer,das,schönen,schmutziger,richtige,einen,dem,"Delikte,",wurden,Packung,sind,bekannten,"nicht,",nicht,aus,vierte,schmutzige,sprudelndes,schon,viel,landen,sind,uns,dauerhaftem,man,Bluts,Neuwahlen,dauerte,"wertvollem,",Fahrer,auf,wir,die,"regelmäßigem,",36,man,mit,ein,ich,Kilowattstunden,wurden,aus,dank,ein,man,Kilowattstunden,Farbe,mit,alten,Stimmung,viel,mit,ich,"sämtlichem,",die,bei,"Delikte,",den,solchen,Stadt,"trug,",jetzt,ausreichendem,ich,obwohl,sprudelnden,solch,alten,auf,Packung,warmem,Wohnung,wir,war,,,,,,,,,,,,,,,,,,,,,,,10,0,10,0,0,4,4,4,,,,,,,space,0.594712018967,,,,,,2017_Feb_01_1206,59.7756793041,spr_backupper,001,Mo18,
,purem,hat,liegen,die,"frischem,",einen,des,geschleudert.,Wetter,frischen,eine,Skandal,einem,sauberen,würden,roten,harten,frisches,im,350,Tiere,mehr,wurden,sie,350,Auto,Wetters,Wäsche.,"Zeit,",gelegentlichen,Mann,derer,serviert.,salziger,auf,Skandals,was,am,feinem,Bundespräsident.,Wäsche.,Trinkwasser.,immer,Lärm,im,auf,die,feinem,eine,hat,vor,ungefähr,klassischen,wurden,noch,von,Störenfriede,kaltem,hätten,den,einem,Glas,leider,elektrischer,serviert.,seltenem,täglichem,Glas,der,elektrische,geschleudert.,"reichem,",Kram,ziemlich,Lärm,zusätzlichem,leider,künftigem,Störenfriede,minimalem,deren,roten,unzureichenden,liegen,war,"nachgewiesen,",monatlichem,mehr,sie,Trinkwassers.,unzureichenden,Krams,noch,salzige,weichem,des,um,die,,,,,,,,,,,,,,,,,,,,,,,10,0,10,0,0,5,5,5,,,,,,,space,0.47483086586,,,,,,2017_Feb_01_1206,59.7756793041,spr_backupper,001,Mo18,
,Alkohol,den,die,er,kaltem,Besucher.,Herrn,nan,die,Grases,große,wiedergewählt.,Esslöffel,Kraftstoff,seiner,Planeten,Schaumstoff,Gras,Müll.,ml,artgerecht,als,verschrottet.,defekt,ml,mehr,die,nan,um,Besucher.,mehr,sie,nan,Wurst,jeden,wiedergewählt.,Tupperware,Hauptbahnhof.,dichten,nan,nan,nan,ruhig,um,Müll.,jeden,Stimmung,Kunsteis,große,den,Dezember,drei,Schmuck,verschrottet.,eine,den,jeden.,Abduschen,seiner,Soldaten,Esslöffel,köstlicher,nichts,Energie.,nan,dichten,grünen,köstlichen,Soldaten,Energie.,nan,goldenen,aus,"vermiest,",um,schwarzem,nichts,Einkommen,jeden.,täglichen,sie,Planet,Helmen,die,aus,dass,Taschengeld,als,defekt,nan,Helmen,aus,eine,Wurst,Untergrund,Herrn,die,Flut,,,,,,,,,,,,,,,,,,,,,,,10,0,10,0,0,6,6,6,,,,,,,space,0.434571027756,,,,,,2017_Feb_01_1206,59.7756793041,spr_backupper,001,Mo18,
,,,,,,,,,,,,,,,,,,,,,,,,,,,,,,,,,,,,,,,,,,,,,,,,,,,,,,,,,,,,,,,,,,,,,,,,,,,,,,,,,,,,,,,,,,,,,,,,,,,,,,,,,,,,,,,,,,,,,,,,,10,0,10,0,,,,,,,,,,,,,None,j,2.54640984535,,,2017_Feb_01_1206,59.7756793041,spr_backupper,001,Mo18,
,Die,Nicht,Am,Die,Sie,Wir,Die,Es,Sie,Wir,Mit,Er,Er,Wir,Die,Im,Alle,Wir,Viele,In,In,In,Die,Die,In,Wir,Sie,Dort,Jetzt,Wir,Wir,Es,Beträchtliche,Ich,100,Er,Die,Die,Er,Walter,Dort,Sie,Fernab,Man,Viele,100,Dass,Die,Mit,Nicht,Unter,Der,Die,Die,Sie,In,Außer,Die,Die,Bei,Er,Bei,Außer,Die,Beträchtliche,Danach,Ich,Bei,Bei,Die,Es,Das,Wir,Es,Man,Die,Außer,Manche,Außer,Ihr,Es,Im,Die,Am,Die,In,Jugendliche,In,Die,Sie,Die,Wir,Sie,Ich,Jungtiere,Die,In,Als,,,,,,,,,,,,,,,,,,,,,,,11,0,11,0,0,0,0,0,,,,,,None,space,0.538423061371,,,,,,2017_Feb_01_1206,59.7756793041,spr_backupper,001,Mo18,
,Lösung,ein,äußeren,Uhr,haben,hatten,Gäste,wurden,verlassen,mussten,dieser,wurde,stellt,konnten,Schuhe,Fernrohr,Betten,mussten,Tonnen,den,diesem,meinem,Autos,Uhr,den,übergaben,verlassen,türmen,ist,hatten,übergaben,waren,Stücke,nehme,g,wurde,Teilnehmerinnen,Linie,hat,Scheel,türmen,verbrauchen,des,machte,Tonnen,g,es,Eislaufbahnen,dieser,ein,keinen,Flug,Stücke,Autos,hatte,der,den,Formen,Schuhe,der,stellt,unserer,das,Schule,Stücke,wurde,wurde,unserer,der,Schule,wurden,Tuch,haben,hat,machte,müden,dem,Kreditnehmer,dem,Blutdruck,waren,Fernrohr,Kinder,äußersten,"Uhr,",einer,können,meinem,Uhr,verbrauchen,Kinder,haben,hatte,nehme,sollten,Gäste,der,die,,,,,,,,,,,,,,,,,,,,,,,11,0,11,0,0,1,1,1,,,,,,,space,0.325409889221,,,,,,2017_Feb_01_1206,59.7756793041,spr_backupper,001,Mo18,
,wird,Tropfen,Rand,war,die,in,suchen,Eimer,wegen,uns,Methode,trotz,die,dann,in,sahen,wurden,uns,gebrauchte,Kakao,Zirkus,Studium,beider,schlug,Kakao,dem,wegen,sich,genau,in,das,nur,saftiges,eine,brauner,trotz,wussten,101,ein,war,sich,60,Rummels,mal,gebrauchter,braunen,"regnete,",wurden,Methode,Tropfen,Umständen,zum,wurden,beider,keine,Tat,Bürgermeister,wurden,in,Feier,die,Ankunft,Essen,verbraucht,saftigen,die,damals,Ankunft,Feier,verbraucht,Eimer,wurde,jede,uns,mal,Teilnehmer,Essen,sind,Bürgermeister,kann,nur,sahen,fuhren,Rand,die,Studie,Kleidung,Studium,schlug,60,fuhren,jede,keine,eine,immer,suchen,Tat,Sonne,,,,,,,,,,,,,,,,,,,,,,,11,0,11,0,0,2,2,2,,,,,,,space,0.391604185104,,,,,,2017_Feb_01_1206,59.7756793041,spr_backupper,001,Mo18,
,mit,königliches,der,aus,Erlebnisse,Dänemark,die,rote,dem,durch,kann,dem,Masse,mit,Größe,wir,mit,durch,Kleidung,gehören,werden,las,beteiligter,"sporadisch,",gehören,Mann,des,Berge,die,Dänemark,Auto,kleinere,Fleisch,große,Zucker,des,überwiegend,hält,Hemd,der,Berge,Liter,wurde,wieder,Kleidung,Zuckers,hat,mit,kann,königlichen,können,Mond,aus,beteiligten,Lust,wissen,beschuldigten,unter,Größe,gedachte,Masse,stand,kann,260.000,Fleischs,Leinwand,schnell,stand,gedachte,260.000,roter,dann,Menge,die,wieder,wurden,kann,mit,beschuldigten,schon,kleinere,wir,mit,der,er,wurde,bei,habe,"sporadisch,",Liter,mit,Menge,Lust,große,auf,die,wissen,"unterging,",,,,,,,,,,,,,,,,,,,,,,,11,0,11,0,0,3,3,3,,,,,,,space,0.352407932281,,,,,,2017_Feb_01_1206,59.7756793041,spr_backupper,001,Mo18,
,"reichlichem,",Blut,Stadt,"Japan,",bei,gelegentlich,Wohnung,Farbe,schönen,Büschel,man,bekannten,mit,"minimalem,",36,den,"üblichem,",Büschel,landen,immer,die,ich,Fahrer,obschon,immer,das,schönen,schmutziger,richtige,einen,dem,"Delikte,",wurden,Packung,sind,bekannten,"nicht,",nicht,aus,vierte,schmutzige,sprudelndes,schon,viel,landen,sind,uns,dauerhaftem,man,Bluts,Neuwahlen,dauerte,"wertvollem,",Fahrer,auf,wir,die,"regelmäßigem,",36,man,mit,ein,ich,Kilowattstunden,wurden,aus,dank,ein,man,Kilowattstunden,Farbe,mit,alten,Stimmung,viel,mit,ich,"sämtlichem,",die,bei,"Delikte,",den,solchen,Stadt,"trug,",jetzt,ausreichendem,ich,obwohl,sprudelnden,solch,alten,auf,Packung,warmem,Wohnung,wir,war,,,,,,,,,,,,,,,,,,,,,,,11,0,11,0,0,4,4,4,,,,,,,space,0.368339776993,,,,,,2017_Feb_01_1206,59.7756793041,spr_backupper,001,Mo18,
,purem,hat,liegen,die,"frischem,",einen,des,geschleudert.,Wetter,frischen,eine,Skandal,einem,sauberen,würden,roten,harten,frisches,im,350,Tiere,mehr,wurden,sie,350,Auto,Wetters,Wäsche.,"Zeit,",gelegentlichen,Mann,derer,serviert.,salziger,auf,Skandals,was,am,feinem,Bundespräsident.,Wäsche.,Trinkwasser.,immer,Lärm,im,auf,die,feinem,eine,hat,vor,ungefähr,klassischen,wurden,noch,von,Störenfriede,kaltem,hätten,den,einem,Glas,leider,elektrischer,serviert.,seltenem,täglichem,Glas,der,elektrische,geschleudert.,"reichem,",Kram,ziemlich,Lärm,zusätzlichem,leider,künftigem,Störenfriede,minimalem,deren,roten,unzureichenden,liegen,war,"nachgewiesen,",monatlichem,mehr,sie,Trinkwassers.,unzureichenden,Krams,noch,salzige,weichem,des,um,die,,,,,,,,,,,,,,,,,,,,,,,11,0,11,0,0,5,5,5,,,,,,,space,0.3198158741,,,,,,2017_Feb_01_1206,59.7756793041,spr_backupper,001,Mo18,
,Alkohol,den,die,er,kaltem,Besucher.,Herrn,nan,die,Grases,große,wiedergewählt.,Esslöffel,Kraftstoff,seiner,Planeten,Schaumstoff,Gras,Müll.,ml,artgerecht,als,verschrottet.,defekt,ml,mehr,die,nan,um,Besucher.,mehr,sie,nan,Wurst,jeden,wiedergewählt.,Tupperware,Hauptbahnhof.,dichten,nan,nan,nan,ruhig,um,Müll.,jeden,Stimmung,Kunsteis,große,den,Dezember,drei,Schmuck,verschrottet.,eine,den,jeden.,Abduschen,seiner,Soldaten,Esslöffel,köstlicher,nichts,Energie.,nan,dichten,grünen,köstlichen,Soldaten,Energie.,nan,goldenen,aus,"vermiest,",um,schwarzem,nichts,Einkommen,jeden.,täglichen,sie,Planet,Helmen,die,aus,dass,Taschengeld,als,defekt,nan,Helmen,aus,eine,Wurst,Untergrund,Herrn,die,Flut,,,,,,,,,,,,,,,,,,,,,,,11,0,11,0,0,6,6,6,,,,,,,space,0.326608896255,,,,,,2017_Feb_01_1206,59.7756793041,spr_backupper,001,Mo18,
,verdünnt.,Boden,Slums.,trug.,Saft,nan,Gantenbein.,nan,Wohnung.,zwängen.,Menge,nan,warmen,fahren.,Frau,ganz,gefertigt.,zwängen.,nan,warme,gehalten.,einmal,nan,war.,warmer,als,Wohnung.,nan,Nadelhölzer,nan,als,überführt,nan,mit,Fall,nan,ist.,nan,Stoff,nan,nan,nan,diskutiert.,jede,nan,Fall,ziemlich,eingesprüht.,Menge,Boden,stattfinden.,Tage.,umgearbeitet.,nan,Sammlung,Problemen,nan,gehärtet.,Frau,des,warmem,Wein,mitbringen.,nan,nan,Gewebe,Tee,Weins,des,nan,nan,Besatz,dem,dass,jede,Kaffee,mitbringen.,haftbar.,nan,Einsatz,überführt,ganz,zur,Slums.,Japan.,das,selber,einmal,war.,nan,zur,dem,Sammlung,mit,liegen.,Gantenbeins.,Probleme,zurückgekehrt.,,,,,,,,,,,,,,,,,,,,,,,11,0,11,0,0,7,7,7,,,,,,,space,0.346535921097,,,,,,2017_Feb_01_1206,59.7756793041,spr_backupper,001,Mo18,
,nan,berührt.,nan,nan,besprochen.,nan,nan,nan,nan,nan,dunkler,nan,Honigs,nan,gepasst,deutlich.,nan,nan,nan,Milch.,nan,Rilke.,nan,nan,Milch.,gerne.,nan,nan,umzusetzen.,nan,gerne.,wurden.,nan,an,genug.,nan,nan,nan,gefertigt.,nan,nan,nan,nan,Menge,nan,genug.,vermiest.,nan,dunkle,berührt.,nan,nan,nan,nan,dumme,im,nan,nan,gepasst.,zweiten,Honig,schon,nan,nan,nan,wiederhergestellt.,wieder,schon,zweiten,nan,nan,rekonstruiert.,Haus,es,Menge,wiederbelebt.,nan,nan,nan,sinken.,wurden.,deutlich.,Schule.,nan,nan,Medikament,kaufen.,Rilke,nan,nan,Schule.,Haus,dummer,an,nan,nan,im,nan,,,,,,,,,,,,,,,,,,,,,,,11,0,11,0,0,8,8,8,,,,,,,space,0.470216035843,,,,,,2017_Feb_01_1206,59.7756793041,spr_backupper,001,Mo18,
,,,,,,,,,,,,,,,,,,,,,,,,,,,,,,,,,,,,,,,,,,,,,,,,,,,,,,,,,,,,,,,,,,,,,,,,,,,,,,,,,,,,,,,,,,,,,,,,,,,,,,,,,,,,,,,,,,,,,,,,,11,0,11,0,,,,,,,,,,,,,None,n,2.70080518723,,,2017_Feb_01_1206,59.7756793041,spr_backupper,001,Mo18,
,Die,Nicht,Am,Die,Sie,Wir,Die,Es,Sie,Wir,Mit,Er,Er,Wir,Die,Im,Alle,Wir,Viele,In,In,In,Die,Die,In,Wir,Sie,Dort,Jetzt,Wir,Wir,Es,Beträchtliche,Ich,100,Er,Die,Die,Er,Walter,Dort,Sie,Fernab,Man,Viele,100,Dass,Die,Mit,Nicht,Unter,Der,Die,Die,Sie,In,Außer,Die,Die,Bei,Er,Bei,Außer,Die,Beträchtliche,Danach,Ich,Bei,Bei,Die,Es,Das,Wir,Es,Man,Die,Außer,Manche,Außer,Ihr,Es,Im,Die,Am,Die,In,Jugendliche,In,Die,Sie,Die,Wir,Sie,Ich,Jungtiere,Die,In,Als,,,,,,,,,,,,,,,,,,,,,,,12,0,12,0,0,0,0,0,,,,,,None,space,0.485368013382,,,,,,2017_Feb_01_1206,59.7756793041,spr_backupper,001,Mo18,
,Lösung,ein,äußeren,Uhr,haben,hatten,Gäste,wurden,verlassen,mussten,dieser,wurde,stellt,konnten,Schuhe,Fernrohr,Betten,mussten,Tonnen,den,diesem,meinem,Autos,Uhr,den,übergaben,verlassen,türmen,ist,hatten,übergaben,waren,Stücke,nehme,g,wurde,Teilnehmerinnen,Linie,hat,Scheel,türmen,verbrauchen,des,machte,Tonnen,g,es,Eislaufbahnen,dieser,ein,keinen,Flug,Stücke,Autos,hatte,der,den,Formen,Schuhe,der,stellt,unserer,das,Schule,Stücke,wurde,wurde,unserer,der,Schule,wurden,Tuch,haben,hat,machte,müden,dem,Kreditnehmer,dem,Blutdruck,waren,Fernrohr,Kinder,äußersten,"Uhr,",einer,können,meinem,Uhr,verbrauchen,Kinder,haben,hatte,nehme,sollten,Gäste,der,die,,,,,,,,,,,,,,,,,,,,,,,12,0,12,0,0,1,1,1,,,,,,,space,0.402612924576,,,,,,2017_Feb_01_1206,59.7756793041,spr_backupper,001,Mo18,
,wird,Tropfen,Rand,war,die,in,suchen,Eimer,wegen,uns,Methode,trotz,die,dann,in,sahen,wurden,uns,gebrauchte,Kakao,Zirkus,Studium,beider,schlug,Kakao,dem,wegen,sich,genau,in,das,nur,saftiges,eine,brauner,trotz,wussten,101,ein,war,sich,60,Rummels,mal,gebrauchter,braunen,"regnete,",wurden,Methode,Tropfen,Umständen,zum,wurden,beider,keine,Tat,Bürgermeister,wurden,in,Feier,die,Ankunft,Essen,verbraucht,saftigen,die,damals,Ankunft,Feier,verbraucht,Eimer,wurde,jede,uns,mal,Teilnehmer,Essen,sind,Bürgermeister,kann,nur,sahen,fuhren,Rand,die,Studie,Kleidung,Studium,schlug,60,fuhren,jede,keine,eine,immer,suchen,Tat,Sonne,,,,,,,,,,,,,,,,,,,,,,,12,0,12,0,0,2,2,2,,,,,,,space,0.420158863068,,,,,,2017_Feb_01_1206,59.7756793041,spr_backupper,001,Mo18,
,mit,königliches,der,aus,Erlebnisse,Dänemark,die,rote,dem,durch,kann,dem,Masse,mit,Größe,wir,mit,durch,Kleidung,gehören,werden,las,beteiligter,"sporadisch,",gehören,Mann,des,Berge,die,Dänemark,Auto,kleinere,Fleisch,große,Zucker,des,überwiegend,hält,Hemd,der,Berge,Liter,wurde,wieder,Kleidung,Zuckers,hat,mit,kann,königlichen,können,Mond,aus,beteiligten,Lust,wissen,beschuldigten,unter,Größe,gedachte,Masse,stand,kann,260.000,Fleischs,Leinwand,schnell,stand,gedachte,260.000,roter,dann,Menge,die,wieder,wurden,kann,mit,beschuldigten,schon,kleinere,wir,mit,der,er,wurde,bei,habe,"sporadisch,",Liter,mit,Menge,Lust,große,auf,die,wissen,"unterging,",,,,,,,,,,,,,,,,,,,,,,,12,0,12,0,0,3,3,3,,,,,,,space,0.367170095444,,,,,,2017_Feb_01_1206,59.7756793041,spr_backupper,001,Mo18,
,"reichlichem,",Blut,Stadt,"Japan,",bei,gelegentlich,Wohnung,Farbe,schönen,Büschel,man,bekannten,mit,"minimalem,",36,den,"üblichem,",Büschel,landen,immer,die,ich,Fahrer,obschon,immer,das,schönen,schmutziger,richtige,einen,dem,"Delikte,",wurden,Packung,sind,bekannten,"nicht,",nicht,aus,vierte,schmutzige,sprudelndes,schon,viel,landen,sind,uns,dauerhaftem,man,Bluts,Neuwahlen,dauerte,"wertvollem,",Fahrer,auf,wir,die,"regelmäßigem,",36,man,mit,ein,ich,Kilowattstunden,wurden,aus,dank,ein,man,Kilowattstunden,Farbe,mit,alten,Stimmung,viel,mit,ich,"sämtlichem,",die,bei,"Delikte,",den,solchen,Stadt,"trug,",jetzt,ausreichendem,ich,obwohl,sprudelnden,solch,alten,auf,Packung,warmem,Wohnung,wir,war,,,,,,,,,,,,,,,,,,,,,,,12,0,12,0,0,4,4,4,,,,,,,space,0.352504968643,,,,,,2017_Feb_01_1206,59.7756793041,spr_backupper,001,Mo18,
,purem,hat,liegen,die,"frischem,",einen,des,geschleudert.,Wetter,frischen,eine,Skandal,einem,sauberen,würden,roten,harten,frisches,im,350,Tiere,mehr,wurden,sie,350,Auto,Wetters,Wäsche.,"Zeit,",gelegentlichen,Mann,derer,serviert.,salziger,auf,Skandals,was,am,feinem,Bundespräsident.,Wäsche.,Trinkwasser.,immer,Lärm,im,auf,die,feinem,eine,hat,vor,ungefähr,klassischen,wurden,noch,von,Störenfriede,kaltem,hätten,den,einem,Glas,leider,elektrischer,serviert.,seltenem,täglichem,Glas,der,elektrische,geschleudert.,"reichem,",Kram,ziemlich,Lärm,zusätzlichem,leider,künftigem,Störenfriede,minimalem,deren,roten,unzureichenden,liegen,war,"nachgewiesen,",monatlichem,mehr,sie,Trinkwassers.,unzureichenden,Krams,noch,salzige,weichem,des,um,die,,,,,,,,,,,,,,,,,,,,,,,12,0,12,0,0,5,5,5,,,,,,,space,0.351276874542,,,,,,2017_Feb_01_1206,59.7756793041,spr_backupper,001,Mo18,
,Alkohol,den,die,er,kaltem,Besucher.,Herrn,nan,die,Grases,große,wiedergewählt.,Esslöffel,Kraftstoff,seiner,Planeten,Schaumstoff,Gras,Müll.,ml,artgerecht,als,verschrottet.,defekt,ml,mehr,die,nan,um,Besucher.,mehr,sie,nan,Wurst,jeden,wiedergewählt.,Tupperware,Hauptbahnhof.,dichten,nan,nan,nan,ruhig,um,Müll.,jeden,Stimmung,Kunsteis,große,den,Dezember,drei,Schmuck,verschrottet.,eine,den,jeden.,Abduschen,seiner,Soldaten,Esslöffel,köstlicher,nichts,Energie.,nan,dichten,grünen,köstlichen,Soldaten,Energie.,nan,goldenen,aus,"vermiest,",um,schwarzem,nichts,Einkommen,jeden.,täglichen,sie,Planet,Helmen,die,aus,dass,Taschengeld,als,defekt,nan,Helmen,aus,eine,Wurst,Untergrund,Herrn,die,Flut,,,,,,,,,,,,,,,,,,,,,,,12,0,12,0,0,6,6,6,,,,,,,space,0.349889039993,,,,,,2017_Feb_01_1206,59.7756793041,spr_backupper,001,Mo18,
,verdünnt.,Boden,Slums.,trug.,Saft,nan,Gantenbein.,nan,Wohnung.,zwängen.,Menge,nan,warmen,fahren.,Frau,ganz,gefertigt.,zwängen.,nan,warme,gehalten.,einmal,nan,war.,warmer,als,Wohnung.,nan,Nadelhölzer,nan,als,überführt,nan,mit,Fall,nan,ist.,nan,Stoff,nan,nan,nan,diskutiert.,jede,nan,Fall,ziemlich,eingesprüht.,Menge,Boden,stattfinden.,Tage.,umgearbeitet.,nan,Sammlung,Problemen,nan,gehärtet.,Frau,des,warmem,Wein,mitbringen.,nan,nan,Gewebe,Tee,Weins,des,nan,nan,Besatz,dem,dass,jede,Kaffee,mitbringen.,haftbar.,nan,Einsatz,überführt,ganz,zur,Slums.,Japan.,das,selber,einmal,war.,nan,zur,dem,Sammlung,mit,liegen.,Gantenbeins.,Probleme,zurückgekehrt.,,,,,,,,,,,,,,,,,,,,,,,12,0,12,0,0,7,7,7,,,,,,,space,0.570869922638,,,,,,2017_Feb_01_1206,59.7756793041,spr_backupper,001,Mo18,
,,,,,,,,,,,,,,,,,,,,,,,,,,,,,,,,,,,,,,,,,,,,,,,,,,,,,,,,,,,,,,,,,,,,,,,,,,,,,,,,,,,,,,,,,,,,,,,,,,,,,,,,,,,,,,,,,,,,,,,,,12,0,12,0,,,,,,,,,,,,,None,j,1.68838000298,,,2017_Feb_01_1206,59.7756793041,spr_backupper,001,Mo18,
,Die,Nicht,Am,Die,Sie,Wir,Die,Es,Sie,Wir,Mit,Er,Er,Wir,Die,Im,Alle,Wir,Viele,In,In,In,Die,Die,In,Wir,Sie,Dort,Jetzt,Wir,Wir,Es,Beträchtliche,Ich,100,Er,Die,Die,Er,Walter,Dort,Sie,Fernab,Man,Viele,100,Dass,Die,Mit,Nicht,Unter,Der,Die,Die,Sie,In,Außer,Die,Die,Bei,Er,Bei,Außer,Die,Beträchtliche,Danach,Ich,Bei,Bei,Die,Es,Das,Wir,Es,Man,Die,Außer,Manche,Außer,Ihr,Es,Im,Die,Am,Die,In,Jugendliche,In,Die,Sie,Die,Wir,Sie,Ich,Jungtiere,Die,In,Als,,,,,,,,,,,,,,,,,,,,,,,13,0,13,0,0,0,0,0,,,,,,None,space,0.616291999817,,,,,,2017_Feb_01_1206,59.7756793041,spr_backupper,001,Mo18,
,Lösung,ein,äußeren,Uhr,haben,hatten,Gäste,wurden,verlassen,mussten,dieser,wurde,stellt,konnten,Schuhe,Fernrohr,Betten,mussten,Tonnen,den,diesem,meinem,Autos,Uhr,den,übergaben,verlassen,türmen,ist,hatten,übergaben,waren,Stücke,nehme,g,wurde,Teilnehmerinnen,Linie,hat,Scheel,türmen,verbrauchen,des,machte,Tonnen,g,es,Eislaufbahnen,dieser,ein,keinen,Flug,Stücke,Autos,hatte,der,den,Formen,Schuhe,der,stellt,unserer,das,Schule,Stücke,wurde,wurde,unserer,der,Schule,wurden,Tuch,haben,hat,machte,müden,dem,Kreditnehmer,dem,Blutdruck,waren,Fernrohr,Kinder,äußersten,"Uhr,",einer,können,meinem,Uhr,verbrauchen,Kinder,haben,hatte,nehme,sollten,Gäste,der,die,,,,,,,,,,,,,,,,,,,,,,,13,0,13,0,0,1,1,1,,,,,,,space,0.336740016937,,,,,,2017_Feb_01_1206,59.7756793041,spr_backupper,001,Mo18,
,wird,Tropfen,Rand,war,die,in,suchen,Eimer,wegen,uns,Methode,trotz,die,dann,in,sahen,wurden,uns,gebrauchte,Kakao,Zirkus,Studium,beider,schlug,Kakao,dem,wegen,sich,genau,in,das,nur,saftiges,eine,brauner,trotz,wussten,101,ein,war,sich,60,Rummels,mal,gebrauchter,braunen,"regnete,",wurden,Methode,Tropfen,Umständen,zum,wurden,beider,keine,Tat,Bürgermeister,wurden,in,Feier,die,Ankunft,Essen,verbraucht,saftigen,die,damals,Ankunft,Feier,verbraucht,Eimer,wurde,jede,uns,mal,Teilnehmer,Essen,sind,Bürgermeister,kann,nur,sahen,fuhren,Rand,die,Studie,Kleidung,Studium,schlug,60,fuhren,jede,keine,eine,immer,suchen,Tat,Sonne,,,,,,,,,,,,,,,,,,,,,,,13,0,13,0,0,2,2,2,,,,,,,space,0.394384145737,,,,,,2017_Feb_01_1206,59.7756793041,spr_backupper,001,Mo18,
,mit,königliches,der,aus,Erlebnisse,Dänemark,die,rote,dem,durch,kann,dem,Masse,mit,Größe,wir,mit,durch,Kleidung,gehören,werden,las,beteiligter,"sporadisch,",gehören,Mann,des,Berge,die,Dänemark,Auto,kleinere,Fleisch,große,Zucker,des,überwiegend,hält,Hemd,der,Berge,Liter,wurde,wieder,Kleidung,Zuckers,hat,mit,kann,königlichen,können,Mond,aus,beteiligten,Lust,wissen,beschuldigten,unter,Größe,gedachte,Masse,stand,kann,260.000,Fleischs,Leinwand,schnell,stand,gedachte,260.000,roter,dann,Menge,die,wieder,wurden,kann,mit,beschuldigten,schon,kleinere,wir,mit,der,er,wurde,bei,habe,"sporadisch,",Liter,mit,Menge,Lust,große,auf,die,wissen,"unterging,",,,,,,,,,,,,,,,,,,,,,,,13,0,13,0,0,3,3,3,,,,,,,space,0.352700948715,,,,,,2017_Feb_01_1206,59.7756793041,spr_backupper,001,Mo18,
,"reichlichem,",Blut,Stadt,"Japan,",bei,gelegentlich,Wohnung,Farbe,schönen,Büschel,man,bekannten,mit,"minimalem,",36,den,"üblichem,",Büschel,landen,immer,die,ich,Fahrer,obschon,immer,das,schönen,schmutziger,richtige,einen,dem,"Delikte,",wurden,Packung,sind,bekannten,"nicht,",nicht,aus,vierte,schmutzige,sprudelndes,schon,viel,landen,sind,uns,dauerhaftem,man,Bluts,Neuwahlen,dauerte,"wertvollem,",Fahrer,auf,wir,die,"regelmäßigem,",36,man,mit,ein,ich,Kilowattstunden,wurden,aus,dank,ein,man,Kilowattstunden,Farbe,mit,alten,Stimmung,viel,mit,ich,"sämtlichem,",die,bei,"Delikte,",den,solchen,Stadt,"trug,",jetzt,ausreichendem,ich,obwohl,sprudelnden,solch,alten,auf,Packung,warmem,Wohnung,wir,war,,,,,,,,,,,,,,,,,,,,,,,13,0,13,0,0,4,4,4,,,,,,,space,0.484339952469,,,,,,2017_Feb_01_1206,59.7756793041,spr_backupper,001,Mo18,
,purem,hat,liegen,die,"frischem,",einen,des,geschleudert.,Wetter,frischen,eine,Skandal,einem,sauberen,würden,roten,harten,frisches,im,350,Tiere,mehr,wurden,sie,350,Auto,Wetters,Wäsche.,"Zeit,",gelegentlichen,Mann,derer,serviert.,salziger,auf,Skandals,was,am,feinem,Bundespräsident.,Wäsche.,Trinkwasser.,immer,Lärm,im,auf,die,feinem,eine,hat,vor,ungefähr,klassischen,wurden,noch,von,Störenfriede,kaltem,hätten,den,einem,Glas,leider,elektrischer,serviert.,seltenem,täglichem,Glas,der,elektrische,geschleudert.,"reichem,",Kram,ziemlich,Lärm,zusätzlichem,leider,künftigem,Störenfriede,minimalem,deren,roten,unzureichenden,liegen,war,"nachgewiesen,",monatlichem,mehr,sie,Trinkwassers.,unzureichenden,Krams,noch,salzige,weichem,des,um,die,,,,,,,,,,,,,,,,,,,,,,,13,0,13,0,0,5,5,5,,,,,,,space,0.368877887726,,,,,,2017_Feb_01_1206,59.7756793041,spr_backupper,001,Mo18,
,,,,,,,,,,,,,,,,,,,,,,,,,,,,,,,,,,,,,,,,,,,,,,,,,,,,,,,,,,,,,,,,,,,,,,,,,,,,,,,,,,,,,,,,,,,,,,,,,,,,,,,,,,,,,,,,,,,,,,,,,13,0,13,0,,,,,,,,,,,,,None,n,1.76205515862,,,2017_Feb_01_1206,59.7756793041,spr_backupper,001,Mo18,
,Die,Nicht,Am,Die,Sie,Wir,Die,Es,Sie,Wir,Mit,Er,Er,Wir,Die,Im,Alle,Wir,Viele,In,In,In,Die,Die,In,Wir,Sie,Dort,Jetzt,Wir,Wir,Es,Beträchtliche,Ich,100,Er,Die,Die,Er,Walter,Dort,Sie,Fernab,Man,Viele,100,Dass,Die,Mit,Nicht,Unter,Der,Die,Die,Sie,In,Außer,Die,Die,Bei,Er,Bei,Außer,Die,Beträchtliche,Danach,Ich,Bei,Bei,Die,Es,Das,Wir,Es,Man,Die,Außer,Manche,Außer,Ihr,Es,Im,Die,Am,Die,In,Jugendliche,In,Die,Sie,Die,Wir,Sie,Ich,Jungtiere,Die,In,Als,,,,,,,,,,,,,,,,,,,,,,,14,0,14,0,0,0,0,0,,,,,,None,space,0.420933008194,,,,,,2017_Feb_01_1206,59.7756793041,spr_backupper,001,Mo18,
,Lösung,ein,äußeren,Uhr,haben,hatten,Gäste,wurden,verlassen,mussten,dieser,wurde,stellt,konnten,Schuhe,Fernrohr,Betten,mussten,Tonnen,den,diesem,meinem,Autos,Uhr,den,übergaben,verlassen,türmen,ist,hatten,übergaben,waren,Stücke,nehme,g,wurde,Teilnehmerinnen,Linie,hat,Scheel,türmen,verbrauchen,des,machte,Tonnen,g,es,Eislaufbahnen,dieser,ein,keinen,Flug,Stücke,Autos,hatte,der,den,Formen,Schuhe,der,stellt,unserer,das,Schule,Stücke,wurde,wurde,unserer,der,Schule,wurden,Tuch,haben,hat,machte,müden,dem,Kreditnehmer,dem,Blutdruck,waren,Fernrohr,Kinder,äußersten,"Uhr,",einer,können,meinem,Uhr,verbrauchen,Kinder,haben,hatte,nehme,sollten,Gäste,der,die,,,,,,,,,,,,,,,,,,,,,,,14,0,14,0,0,1,1,1,,,,,,,space,0.345557928085,,,,,,2017_Feb_01_1206,59.7756793041,spr_backupper,001,Mo18,
,wird,Tropfen,Rand,war,die,in,suchen,Eimer,wegen,uns,Methode,trotz,die,dann,in,sahen,wurden,uns,gebrauchte,Kakao,Zirkus,Studium,beider,schlug,Kakao,dem,wegen,sich,genau,in,das,nur,saftiges,eine,brauner,trotz,wussten,101,ein,war,sich,60,Rummels,mal,gebrauchter,braunen,"regnete,",wurden,Methode,Tropfen,Umständen,zum,wurden,beider,keine,Tat,Bürgermeister,wurden,in,Feier,die,Ankunft,Essen,verbraucht,saftigen,die,damals,Ankunft,Feier,verbraucht,Eimer,wurde,jede,uns,mal,Teilnehmer,Essen,sind,Bürgermeister,kann,nur,sahen,fuhren,Rand,die,Studie,Kleidung,Studium,schlug,60,fuhren,jede,keine,eine,immer,suchen,Tat,Sonne,,,,,,,,,,,,,,,,,,,,,,,14,0,14,0,0,2,2,2,,,,,,,space,0.319852828979,,,,,,2017_Feb_01_1206,59.7756793041,spr_backupper,001,Mo18,
,mit,königliches,der,aus,Erlebnisse,Dänemark,die,rote,dem,durch,kann,dem,Masse,mit,Größe,wir,mit,durch,Kleidung,gehören,werden,las,beteiligter,"sporadisch,",gehören,Mann,des,Berge,die,Dänemark,Auto,kleinere,Fleisch,große,Zucker,des,überwiegend,hält,Hemd,der,Berge,Liter,wurde,wieder,Kleidung,Zuckers,hat,mit,kann,königlichen,können,Mond,aus,beteiligten,Lust,wissen,beschuldigten,unter,Größe,gedachte,Masse,stand,kann,260.000,Fleischs,Leinwand,schnell,stand,gedachte,260.000,roter,dann,Menge,die,wieder,wurden,kann,mit,beschuldigten,schon,kleinere,wir,mit,der,er,wurde,bei,habe,"sporadisch,",Liter,mit,Menge,Lust,große,auf,die,wissen,"unterging,",,,,,,,,,,,,,,,,,,,,,,,14,0,14,0,0,3,3,3,,,,,,,space,0.363950967789,,,,,,2017_Feb_01_1206,59.7756793041,spr_backupper,001,Mo18,
,"reichlichem,",Blut,Stadt,"Japan,",bei,gelegentlich,Wohnung,Farbe,schönen,Büschel,man,bekannten,mit,"minimalem,",36,den,"üblichem,",Büschel,landen,immer,die,ich,Fahrer,obschon,immer,das,schönen,schmutziger,richtige,einen,dem,"Delikte,",wurden,Packung,sind,bekannten,"nicht,",nicht,aus,vierte,schmutzige,sprudelndes,schon,viel,landen,sind,uns,dauerhaftem,man,Bluts,Neuwahlen,dauerte,"wertvollem,",Fahrer,auf,wir,die,"regelmäßigem,",36,man,mit,ein,ich,Kilowattstunden,wurden,aus,dank,ein,man,Kilowattstunden,Farbe,mit,alten,Stimmung,viel,mit,ich,"sämtlichem,",die,bei,"Delikte,",den,solchen,Stadt,"trug,",jetzt,ausreichendem,ich,obwohl,sprudelnden,solch,alten,auf,Packung,warmem,Wohnung,wir,war,,,,,,,,,,,,,,,,,,,,,,,14,0,14,0,0,4,4,4,,,,,,,space,0.385815858841,,,,,,2017_Feb_01_1206,59.7756793041,spr_backupper,001,Mo18,
,purem,hat,liegen,die,"frischem,",einen,des,geschleudert.,Wetter,frischen,eine,Skandal,einem,sauberen,würden,roten,harten,frisches,im,350,Tiere,mehr,wurden,sie,350,Auto,Wetters,Wäsche.,"Zeit,",gelegentlichen,Mann,derer,serviert.,salziger,auf,Skandals,was,am,feinem,Bundespräsident.,Wäsche.,Trinkwasser.,immer,Lärm,im,auf,die,feinem,eine,hat,vor,ungefähr,klassischen,wurden,noch,von,Störenfriede,kaltem,hätten,den,einem,Glas,leider,elektrischer,serviert.,seltenem,täglichem,Glas,der,elektrische,geschleudert.,"reichem,",Kram,ziemlich,Lärm,zusätzlichem,leider,künftigem,Störenfriede,minimalem,deren,roten,unzureichenden,liegen,war,"nachgewiesen,",monatlichem,mehr,sie,Trinkwassers.,unzureichenden,Krams,noch,salzige,weichem,des,um,die,,,,,,,,,,,,,,,,,,,,,,,14,0,14,0,0,5,5,5,,,,,,,space,0.369170188904,,,,,,2017_Feb_01_1206,59.7756793041,spr_backupper,001,Mo18,
