text,sent48,sent9,sent8,sent15,sent3,sent2,sent1,sent14,sent7,sent6,sent5,sent4,sent57,sent56,sent55,sent54,sent53,sent52,sent51,sent50,sent13,sent12,sent11,sent10,sent17,sent16,sent59,sent58,sent93,sent92,sent91,sent90,sent97,sent96,sent95,sent94,sent98,sent22,sent23,sent20,sent21,sent26,sent27,sent24,sent25,sent28,sent29,sent68,sent69,sent66,sent67,sent64,sent65,sent62,sent63,sent60,sent61,sent31,sent30,sent33,sent32,sent35,sent34,sent37,sent36,sent39,sent38,sent79,sent78,sent75,sent74,sent77,sent76,sent71,sent70,sent73,sent72,sent19,sent49,sent18,sent44,sent45,sent84,sent85,sent86,sent87,sent80,sent81,sent82,sent83,sent40,sent41,sent42,sent43,sent88,sent89,sent46,sent47,intros.thisRepN,intros.thisTrialN,intros.thisN,intros.thisIndex,trials.thisRepN,trials.thisTrialN,trials.thisN,trials.thisIndex,testWords.thisRepN,testWords.thisTrialN,testWords.thisN,testWords.thisIndex,test1,test3,test2,test5,test4,test7,test6,test9,test8,test10,realTrials.thisRepN,realTrials.thisTrialN,realTrials.thisN,realTrials.thisIndex,words.thisRepN,words.thisTrialN,words.thisN,words.thisIndex,key_resp_3.keys,key_resp_3.rt,key_resp_8.keys,key_resp_10.keys,key_resp_10.rt,key_resp_6.keys,wordRead.keys,wordRead.rt,key_resp_5.keys,questAnswer.keys,questAnswer.rt,date,frameRate,expName,session,participant,
"Vielen Dank, dass Sie an diesem Experiment teilnehmen. Vor dem eigentlichen Experiment sehen Sie nun zuerst eine kurze Erläuterung, und Sie absolvieren ein kurze Übungsphase.

Das Experiment dauert insgesamt nicht mehr als 45 Minuten.",,,,,,,,,,,,,,,,,,,,,,,,,,,,,,,,,,,,,,,,,,,,,,,,,,,,,,,,,,,,,,,,,,,,,,,,,,,,,,,,,,,,,,,,,,,,,,,,,,,0,0,0,0,,,,,,,,,,,,,,,,,,,,,,,,,,,,,,,,,,,,,,2017_Jan_25_1159,59.438871962,spr_backupper,001,Sa12,
"In diesem Experiment lesen Sie deutsche Sätze, indem Sie sich von Wort zu Wort mit der Leertaste durch den Satz klicken.",,,,,,,,,,,,,,,,,,,,,,,,,,,,,,,,,,,,,,,,,,,,,,,,,,,,,,,,,,,,,,,,,,,,,,,,,,,,,,,,,,,,,,,,,,,,,,,,,,,0,1,1,1,,,,,,,,,,,,,,,,,,,,,,,,,,,,,,,,,,,,,,2017_Jan_25_1159,59.438871962,spr_backupper,001,Sa12,
"Sie sehen dabei immer nur das aktuelle Wort. Die Lesegeschwindigkeit bestimmen Sie vollständig selber. Vor jedem Satz sehen Sie in der Bildschirmmitte für zwei Sekunden ein + an der Stelle, an der dann die Wörter erscheinen.",,,,,,,,,,,,,,,,,,,,,,,,,,,,,,,,,,,,,,,,,,,,,,,,,,,,,,,,,,,,,,,,,,,,,,,,,,,,,,,,,,,,,,,,,,,,,,,,,,,0,2,2,2,,,,,,,,,,,,,,,,,,,,,,,,,,,,,,,,,,,,,,2017_Jan_25_1159,59.438871962,spr_backupper,001,Sa12,
"Nach jedem Satz wird Ihnen eine Ja/Nein-Verständnisfrage zum zuvor gelesenen Satz gestellt, die Sie mit der J-Taste für "Ja" und der N-Taste für "Nein" beantworten. Antworten Sie möglichst spontan und ohne lange Nachzudenken.",,,,,,,,,,,,,,,,,,,,,,,,,,,,,,,,,,,,,,,,,,,,,,,,,,,,,,,,,,,,,,,,,,,,,,,,,,,,,,,,,,,,,,,,,,,,,,,,,,,0,3,3,3,,,,,,,,,,,,,,,,,,,,,,,,,,,,,,,,,,,,,,2017_Jan_25_1159,59.438871962,spr_backupper,001,Sa12,
"Unterbrechen Sie das Experiment bitte auf keinen Fall, stellen Sie den ExperimentatorInnen nach dem Experimentbeginn keine Fragen, und lassen Sie sich nicht durch Umgebungsgeräusche ablenken.",,,,,,,,,,,,,,,,,,,,,,,,,,,,,,,,,,,,,,,,,,,,,,,,,,,,,,,,,,,,,,,,,,,,,,,,,,,,,,,,,,,,,,,,,,,,,,,,,,,0,4,4,4,,,,,,,,,,,,,,,,,,,,,,,,,,,,,,,,,,,,,,2017_Jan_25_1159,59.438871962,spr_backupper,001,Sa12,
"Im nächsten Schritt beantworten Sie bitte eine Frage zu Ihren Deutschkenntnissen. Danach beginnt eine Übungseinheit, mit der Sie sich an die Art der Durchführung dieses Experiments gewöhnen können.",,,,,,,,,,,,,,,,,,,,,,,,,,,,,,,,,,,,,,,,,,,,,,,,,,,,,,,,,,,,,,,,,,,,,,,,,,,,,,,,,,,,,,,,,,,,,,,,,,,0,5,5,5,,,,,,,,,,,,,,,,,,,,,,,,,,,,,,,,,,,,,,2017_Jan_25_1159,59.438871962,spr_backupper,001,Sa12,
,,,,,,,,,,,,,,,,,,,,,,,,,,,,,,,,,,,,,,,,,,,,,,,,,,,,,,,,,,,,,,,,,,,,,,,,,,,,,,,,,,,,,,,,,,,,,,,,,,,,,,,,,,,,,,,,,,,,,,,,,,,,,,,,,j,6.33910799026,,,,,,,,,,2017_Jan_25_1159,59.438871962,spr_backupper,001,Sa12,
,,,,,,,,,,,,,,,,,,,,,,,,,,,,,,,,,,,,,,,,,,,,,,,,,,,,,,,,,,,,,,,,,,,,,,,,,,,,,,,,,,,,,,,,,,,,,,,,,,,,,,,0,0,0,0,,,,,,,,,,,,,,,,,,,,,,,,,None,,,,,,,,,2017_Jan_25_1159,59.438871962,spr_backupper,001,Sa12,
,,,,,,,,,,,,,,,,,,,,,,,,,,,,,,,,,,,,,,,,,,,,,,,,,,,,,,,,,,,,,,,,,,,,,,,,,,,,,,,,,,,,,,,,,,,,,,,,,,,,,,,1,0,1,0,,,,,,,,,,,,,,,,,,,,,,,,,None,,,,,,,,,2017_Jan_25_1159,59.438871962,spr_backupper,001,Sa12,
,,,,,,,,,,,,,,,,,,,,,,,,,,,,,,,,,,,,,,,,,,,,,,,,,,,,,,,,,,,,,,,,,,,,,,,,,,,,,,,,,,,,,,,,,,,,,,,,,,,,,,,2,0,2,0,,,,,,,,,,,,,,,,,,,,,,,,,None,,,,,,,,,2017_Jan_25_1159,59.438871962,spr_backupper,001,Sa12,
,,,,,,,,,,,,,,,,,,,,,,,,,,,,,,,,,,,,,,,,,,,,,,,,,,,,,,,,,,,,,,,,,,,,,,,,,,,,,,,,,,,,,,,,,,,,,,,,,,,,,,,3,0,3,0,,,,,,,,,,,,,,,,,,,,,,,,,None,,,,,,,,,2017_Jan_25_1159,59.438871962,spr_backupper,001,Sa12,
,,,,,,,,,,,,,,,,,,,,,,,,,,,,,,,,,,,,,,,,,,,,,,,,,,,,,,,,,,,,,,,,,,,,,,,,,,,,,,,,,,,,,,,,,,,,,,,,,,,,,,,4,0,4,0,,,,,,,,,,,,,,,,,,,,,,,,,None,,,,,,,,,2017_Jan_25_1159,59.438871962,spr_backupper,001,Sa12,
,,,,,,,,,,,,,,,,,,,,,,,,,,,,,,,,,,,,,,,,,,,,,,,,,,,,,,,,,,,,,,,,,,,,,,,,,,,,,,,,,,,,,,,,,,,,,,,,,,,,,,,5,0,5,0,,,,,,,,,,,,,,,,,,,,,,,,,None,,,,,,,,,2017_Jan_25_1159,59.438871962,spr_backupper,001,Sa12,
,,,,,,,,,,,,,,,,,,,,,,,,,,,,,,,,,,,,,,,,,,,,,,,,,,,,,,,,,,,,,,,,,,,,,,,,,,,,,,,,,,,,,,,,,,,,,,,,,,,,,,,6,0,6,0,,,,,,,,,,,,,,,,,,,,,,,,,None,,,,,,,,,2017_Jan_25_1159,59.438871962,spr_backupper,001,Sa12,
,,,,,,,,,,,,,,,,,,,,,,,,,,,,,,,,,,,,,,,,,,,,,,,,,,,,,,,,,,,,,,,,,,,,,,,,,,,,,,,,,,,,,,,,,,,,,,,,,,,,,,,7,0,7,0,,,,,,,,,,,,,,,,,,,,,,,,,None,,,,,,,,,2017_Jan_25_1159,59.438871962,spr_backupper,001,Sa12,
,,,,,,,,,,,,,,,,,,,,,,,,,,,,,,,,,,,,,,,,,,,,,,,,,,,,,,,,,,,,,,,,,,,,,,,,,,,,,,,,,,,,,,,,,,,,,,,,,,,,,,,8,0,8,0,,,,,,,,,,,,,,,,,,,,,,,,,None,,,,,,,,,2017_Jan_25_1159,59.438871962,spr_backupper,001,Sa12,
,,,,,,,,,,,,,,,,,,,,,,,,,,,,,,,,,,,,,,,,,,,,,,,,,,,,,,,,,,,,,,,,,,,,,,,,,,,,,,,,,,,,,,,,,,,,,,,,,,,,,,,9,0,9,0,,,,,,,,,,,,,,,,,,,,,,,,,None,,,,,,,,,2017_Jan_25_1159,59.438871962,spr_backupper,001,Sa12,
,,,,,,,,,,,,,,,,,,,,,,,,,,,,,,,,,,,,,,,,,,,,,,,,,,,,,,,,,,,,,,,,,,,,,,,,,,,,,,,,,,,,,,,,,,,,,,,,,,,,,,,,,,,,,,,,,,,,,,,,,,,,,,,,,,,,space,3.08678507805,,,,,,,2017_Jan_25_1159,59.438871962,spr_backupper,001,Sa12,
,Wir,Wir,Die,Die,Außer,Wir,Er,Als,In,In,Er,Die,Jetzt,In,Die,In,Die,Bei,Viele,Die,Es,Die,Die,Es,Die,Beträchtliche,Sie,Nicht,Am,Dort,Ich,Mit,Er,Wir,Man,Das,Wir,Sie,Nicht,Im,Außer,Viele,Man,Die,Mit,Bei,Sie,Es,Wir,Unter,Die,Im,Die,Es,Wir,Alle,Jugendliche,Die,Er,Am,Manche,Ich,Ihr,Dass,Bei,Walter,In,Die,Er,Beträchtliche,Bei,Außer,Die,Die,In,Der,Es,Sie,Die,Die,Sie,100,Die,100,Die,Sie,In,Wir,Sie,Außer,Dort,Wir,Danach,Fernab,Die,Jungtiere,Ich,In,,,,,,,,,,,,,,,,,,,,,,,0,0,0,0,0,0,0,0,,,,,,None,space,0.657459020615,,,,2017_Jan_25_1159,59.438871962,spr_backupper,001,Sa12,
,übergaben,mussten,Linie,Formen,das,haben,hat,die,meinem,der,wurde,Autos,ist,einer,Kinder,den,Schule,der,Tonnen,Stücke,wurden,Uhr,Lösung,waren,Kinder,Stücke,verbrauchen,ein,äußersten,türmen,nehme,dieser,stellt,mussten,machte,Tuch,konnten,verlassen,ein,Fernrohr,dem,Tonnen,machte,Uhr,dieser,unserer,hatte,hat,hatten,keinen,müden,Fernrohr,Uhr,waren,übergaben,Betten,können,Gäste,stellt,äußeren,Kreditnehmer,wurde,Blutdruck,es,der,Scheel,den,Teilnehmerinnen,wurde,Stücke,unserer,den,Eislaufbahnen,Gäste,meinem,Flug,wurden,haben,Schule,Schuhe,verbrauchen,g,Autos,g,Schuhe,verlassen,der,haben,hatte,dem,türmen,hatten,wurde,des,"Uhr,",sollten,nehme,diesem,,,,,,,,,,,,,,,,,,,,,,,0,0,0,0,0,1,1,1,,,,,,,space,0.537482023239,,,,2017_Jan_25_1159,59.438871962,spr_backupper,001,Sa12,
,dem,uns,101,wurden,Essen,jede,ein,Sonne,Studium,Tat,trotz,beider,genau,Studie,fuhren,Kakao,verbraucht,Feier,gebrauchte,wurden,Eimer,war,wird,nur,fuhren,saftigen,60,Tropfen,Rand,sich,eine,Methode,die,uns,mal,wurde,dann,wegen,Tropfen,sahen,Bürgermeister,gebrauchter,mal,schlug,Methode,Ankunft,keine,uns,in,Umständen,Teilnehmer,sahen,schlug,nur,das,wurden,Kleidung,suchen,die,Rand,sind,damals,kann,"regnete,",Feier,war,Kakao,wussten,trotz,saftiges,Ankunft,Bürgermeister,wurden,suchen,Studium,zum,Eimer,die,verbraucht,in,60,braunen,beider,brauner,in,wegen,Tat,jede,keine,Essen,sich,in,die,Rummels,die,immer,eine,Zirkus,,,,,,,,,,,,,,,,,,,,,,,0,0,0,0,0,2,2,2,,,,,,,space,0.477931022644,,,,2017_Jan_25_1159,59.438871962,spr_backupper,001,Sa12,
,Mann,durch,hält,unter,kann,Menge,Hemd,"unterging,",las,wissen,dem,beteiligter,die,wurde,mit,gehören,260.000,gedachte,Kleidung,aus,rote,aus,mit,kleinere,mit,Fleischs,Liter,königlichen,der,Berge,große,kann,Masse,durch,wieder,dann,mit,dem,königliches,wir,beschuldigten,Kleidung,wieder,"sporadisch,",kann,stand,Lust,die,Dänemark,können,wurden,wir,"sporadisch,",kleinere,Auto,mit,bei,die,Masse,der,mit,schnell,schon,hat,gedachte,der,gehören,überwiegend,des,Fleisch,stand,beschuldigten,mit,die,habe,Mond,roter,Erlebnisse,260.000,Größe,Liter,Zuckers,beteiligten,Zucker,Größe,des,wissen,Menge,Lust,kann,Berge,Dänemark,Leinwand,wurde,er,auf,große,werden,,,,,,,,,,,,,,,,,,,,,,,0,0,0,0,0,3,3,3,,,,,,,space,0.509915828705,,,,2017_Jan_25_1159,59.438871962,spr_backupper,001,Sa12,
,das,Büschel,nicht,"regelmäßigem,",ich,alten,aus,war,ich,wir,bekannten,Fahrer,richtige,jetzt,solchen,immer,Kilowattstunden,man,landen,"wertvollem,",Farbe,"Japan,","reichlichem,","Delikte,",solch,wurden,sprudelnden,Bluts,Stadt,schmutziger,Packung,man,mit,Büschel,viel,mit,"minimalem,",schönen,Blut,den,die,landen,viel,obschon,man,ein,auf,Stimmung,einen,Neuwahlen,mit,den,obwohl,"Delikte,",dem,"üblichem,",ausreichendem,Wohnung,mit,Stadt,"sämtlichem,",dank,bei,uns,man,vierte,immer,"nicht,",bekannten,wurden,ein,die,dauerhaftem,Wohnung,ich,dauerte,Farbe,bei,Kilowattstunden,36,sprudelndes,sind,Fahrer,sind,36,schönen,wir,alten,auf,ich,schmutzige,gelegentlich,aus,schon,"trug,",warmem,Packung,die,,,,,,,,,,,,,,,,,,,,,,,0,0,0,0,0,4,4,4,,,,,,,space,0.537794113159,,,,2017_Jan_25_1159,59.438871962,spr_backupper,001,Sa12,
,Auto,frischen,am,kaltem,leider,Krams,feinem,die,mehr,um,Skandal,wurden,"Zeit,","nachgewiesen,",unzureichenden,350,elektrische,der,im,klassischen,geschleudert.,die,purem,deren,unzureichenden,serviert.,Trinkwassers.,hat,liegen,Wäsche.,salziger,eine,einem,frisches,Lärm,"reichem,",sauberen,Wetter,hat,roten,Störenfriede,im,Lärm,sie,eine,Glas,noch,ziemlich,gelegentlichen,vor,zusätzlichem,roten,sie,derer,Mann,harten,monatlichem,des,einem,liegen,künftigem,täglichem,minimalem,die,den,Bundespräsident.,350,was,Skandals,serviert.,Glas,Störenfriede,feinem,des,mehr,ungefähr,geschleudert.,"frischem,",elektrischer,hätten,Trinkwasser.,auf,wurden,auf,würden,Wetters,von,Kram,noch,leider,Wäsche.,einen,seltenem,immer,war,weichem,salzige,Tiere,,,,,,,,,,,,,,,,,,,,,,,0,0,0,0,0,5,5,5,,,,,,,space,0.70355796814,,,,2017_Jan_25_1159,59.438871962,spr_backupper,001,Sa12,
,mehr,Grases,Hauptbahnhof.,Abduschen,nichts,aus,dichten,Flut,als,die,wiedergewählt.,verschrottet.,um,dass,Helmen,ml,Energie.,Soldaten,Müll.,Schmuck,nan,er,Alkohol,sie,Helmen,nan,nan,den,die,nan,Wurst,große,Esslöffel,Gras,um,goldenen,Kraftstoff,die,den,Planet,jeden.,Müll.,um,defekt,große,köstlicher,eine,"vermiest,",Besucher.,Dezember,schwarzem,Planeten,defekt,sie,mehr,Schaumstoff,Taschengeld,Herrn,Esslöffel,die,Einkommen,grünen,täglichen,Stimmung,Soldaten,nan,ml,Tupperware,wiedergewählt.,nan,köstlichen,jeden.,Kunsteis,Herrn,als,drei,nan,kaltem,Energie.,seiner,nan,jeden,verschrottet.,jeden,seiner,die,den,aus,eine,nichts,nan,Besucher.,dichten,ruhig,aus,Untergrund,Wurst,artgerecht,,,,,,,,,,,,,,,,,,,,,,,0,0,0,0,0,6,6,6,,,,,,,space,0.541594028473,,,,2017_Jan_25_1159,59.438871962,spr_backupper,001,Sa12,
,als,zwängen.,nan,gehärtet.,mitbringen.,dem,Stoff,zurückgekehrt.,einmal,Probleme,nan,nan,Nadelhölzer,das,zur,warme,nan,des,nan,umgearbeitet.,nan,trug.,verdünnt.,überführt,zur,nan,nan,Boden,Slums.,nan,mit,Menge,warmen,zwängen.,jede,Besatz,fahren.,Wohnung.,Boden,ganz,nan,nan,jede,war.,Menge,Wein,Sammlung,dass,nan,stattfinden.,Kaffee,ganz,war.,überführt,als,gefertigt.,selber,Gantenbein.,warmem,Slums.,haftbar.,Tee,Einsatz,ziemlich,des,nan,warmer,ist.,nan,nan,Weins,nan,eingesprüht.,Gantenbeins.,einmal,Tage.,nan,Saft,nan,Frau,nan,Fall,nan,Fall,Frau,Wohnung.,Problemen,dem,Sammlung,mitbringen.,nan,nan,Gewebe,diskutiert.,Japan.,liegen.,mit,gehalten.,,,,,,,,,,,,,,,,,,,,,,,0,0,0,0,0,7,7,7,,,,,,,space,0.565304994583,,,,2017_Jan_25_1159,59.438871962,spr_backupper,001,Sa12,
,gerne.,nan,nan,nan,nan,Haus,gefertigt.,nan,Rilke.,im,nan,nan,umzusetzen.,Medikament,Schule.,Milch.,nan,zweiten,nan,nan,nan,nan,nan,wurden.,Schule.,nan,nan,berührt.,nan,nan,an,dunkle,Honigs,nan,Menge,rekonstruiert.,nan,nan,berührt.,deutlich.,nan,nan,Menge,nan,dunkler,schon,dummer,es,nan,nan,wiederbelebt.,deutlich.,nan,wurden.,gerne.,nan,kaufen.,nan,Honig,nan,nan,wieder,sinken.,vermiest.,zweiten,nan,Milch.,nan,nan,nan,schon,nan,nan,nan,Rilke,nan,nan,besprochen.,nan,gepasst.,nan,genug.,nan,genug.,gepasst,nan,im,Haus,dumme,nan,nan,nan,wiederhergestellt.,nan,nan,nan,an,nan,,,,,,,,,,,,,,,,,,,,,,,0,0,0,0,0,8,8,8,,,,,,,space,0.653538942337,,,,2017_Jan_25_1159,59.438871962,spr_backupper,001,Sa12,
,,,,,,,,,,,,,,,,,,,,,,,,,,,,,,,,,,,,,,,,,,,,,,,,,,,,,,,,,,,,,,,,,,,,,,,,,,,,,,,,,,,,,,,,,,,,,,,,,,,,,,,,,,,,,,,,,,,,,,,,,0,0,0,0,,,,,,,,,,,,,None,n,2.20641708374,2017_Jan_25_1159,59.438871962,spr_backupper,001,Sa12,
,Wir,Wir,Die,Die,Außer,Wir,Er,Als,In,In,Er,Die,Jetzt,In,Die,In,Die,Bei,Viele,Die,Es,Die,Die,Es,Die,Beträchtliche,Sie,Nicht,Am,Dort,Ich,Mit,Er,Wir,Man,Das,Wir,Sie,Nicht,Im,Außer,Viele,Man,Die,Mit,Bei,Sie,Es,Wir,Unter,Die,Im,Die,Es,Wir,Alle,Jugendliche,Die,Er,Am,Manche,Ich,Ihr,Dass,Bei,Walter,In,Die,Er,Beträchtliche,Bei,Außer,Die,Die,In,Der,Es,Sie,Die,Die,Sie,100,Die,100,Die,Sie,In,Wir,Sie,Außer,Dort,Wir,Danach,Fernab,Die,Jungtiere,Ich,In,,,,,,,,,,,,,,,,,,,,,,,1,0,1,0,0,0,0,0,,,,,,None,space,0.856222867966,,,,2017_Jan_25_1159,59.438871962,spr_backupper,001,Sa12,
,übergaben,mussten,Linie,Formen,das,haben,hat,die,meinem,der,wurde,Autos,ist,einer,Kinder,den,Schule,der,Tonnen,Stücke,wurden,Uhr,Lösung,waren,Kinder,Stücke,verbrauchen,ein,äußersten,türmen,nehme,dieser,stellt,mussten,machte,Tuch,konnten,verlassen,ein,Fernrohr,dem,Tonnen,machte,Uhr,dieser,unserer,hatte,hat,hatten,keinen,müden,Fernrohr,Uhr,waren,übergaben,Betten,können,Gäste,stellt,äußeren,Kreditnehmer,wurde,Blutdruck,es,der,Scheel,den,Teilnehmerinnen,wurde,Stücke,unserer,den,Eislaufbahnen,Gäste,meinem,Flug,wurden,haben,Schule,Schuhe,verbrauchen,g,Autos,g,Schuhe,verlassen,der,haben,hatte,dem,türmen,hatten,wurde,des,"Uhr,",sollten,nehme,diesem,,,,,,,,,,,,,,,,,,,,,,,1,0,1,0,0,1,1,1,,,,,,,space,0.570978879929,,,,2017_Jan_25_1159,59.438871962,spr_backupper,001,Sa12,
,dem,uns,101,wurden,Essen,jede,ein,Sonne,Studium,Tat,trotz,beider,genau,Studie,fuhren,Kakao,verbraucht,Feier,gebrauchte,wurden,Eimer,war,wird,nur,fuhren,saftigen,60,Tropfen,Rand,sich,eine,Methode,die,uns,mal,wurde,dann,wegen,Tropfen,sahen,Bürgermeister,gebrauchter,mal,schlug,Methode,Ankunft,keine,uns,in,Umständen,Teilnehmer,sahen,schlug,nur,das,wurden,Kleidung,suchen,die,Rand,sind,damals,kann,"regnete,",Feier,war,Kakao,wussten,trotz,saftiges,Ankunft,Bürgermeister,wurden,suchen,Studium,zum,Eimer,die,verbraucht,in,60,braunen,beider,brauner,in,wegen,Tat,jede,keine,Essen,sich,in,die,Rummels,die,immer,eine,Zirkus,,,,,,,,,,,,,,,,,,,,,,,1,0,1,0,0,2,2,2,,,,,,,space,0.620153903961,,,,2017_Jan_25_1159,59.438871962,spr_backupper,001,Sa12,
,Mann,durch,hält,unter,kann,Menge,Hemd,"unterging,",las,wissen,dem,beteiligter,die,wurde,mit,gehören,260.000,gedachte,Kleidung,aus,rote,aus,mit,kleinere,mit,Fleischs,Liter,königlichen,der,Berge,große,kann,Masse,durch,wieder,dann,mit,dem,königliches,wir,beschuldigten,Kleidung,wieder,"sporadisch,",kann,stand,Lust,die,Dänemark,können,wurden,wir,"sporadisch,",kleinere,Auto,mit,bei,die,Masse,der,mit,schnell,schon,hat,gedachte,der,gehören,überwiegend,des,Fleisch,stand,beschuldigten,mit,die,habe,Mond,roter,Erlebnisse,260.000,Größe,Liter,Zuckers,beteiligten,Zucker,Größe,des,wissen,Menge,Lust,kann,Berge,Dänemark,Leinwand,wurde,er,auf,große,werden,,,,,,,,,,,,,,,,,,,,,,,1,0,1,0,0,3,3,3,,,,,,,space,0.51020693779,,,,2017_Jan_25_1159,59.438871962,spr_backupper,001,Sa12,
,das,Büschel,nicht,"regelmäßigem,",ich,alten,aus,war,ich,wir,bekannten,Fahrer,richtige,jetzt,solchen,immer,Kilowattstunden,man,landen,"wertvollem,",Farbe,"Japan,","reichlichem,","Delikte,",solch,wurden,sprudelnden,Bluts,Stadt,schmutziger,Packung,man,mit,Büschel,viel,mit,"minimalem,",schönen,Blut,den,die,landen,viel,obschon,man,ein,auf,Stimmung,einen,Neuwahlen,mit,den,obwohl,"Delikte,",dem,"üblichem,",ausreichendem,Wohnung,mit,Stadt,"sämtlichem,",dank,bei,uns,man,vierte,immer,"nicht,",bekannten,wurden,ein,die,dauerhaftem,Wohnung,ich,dauerte,Farbe,bei,Kilowattstunden,36,sprudelndes,sind,Fahrer,sind,36,schönen,wir,alten,auf,ich,schmutzige,gelegentlich,aus,schon,"trug,",warmem,Packung,die,,,,,,,,,,,,,,,,,,,,,,,1,0,1,0,0,4,4,4,,,,,,,space,0.52064704895,,,,2017_Jan_25_1159,59.438871962,spr_backupper,001,Sa12,
,Auto,frischen,am,kaltem,leider,Krams,feinem,die,mehr,um,Skandal,wurden,"Zeit,","nachgewiesen,",unzureichenden,350,elektrische,der,im,klassischen,geschleudert.,die,purem,deren,unzureichenden,serviert.,Trinkwassers.,hat,liegen,Wäsche.,salziger,eine,einem,frisches,Lärm,"reichem,",sauberen,Wetter,hat,roten,Störenfriede,im,Lärm,sie,eine,Glas,noch,ziemlich,gelegentlichen,vor,zusätzlichem,roten,sie,derer,Mann,harten,monatlichem,des,einem,liegen,künftigem,täglichem,minimalem,die,den,Bundespräsident.,350,was,Skandals,serviert.,Glas,Störenfriede,feinem,des,mehr,ungefähr,geschleudert.,"frischem,",elektrischer,hätten,Trinkwasser.,auf,wurden,auf,würden,Wetters,von,Kram,noch,leider,Wäsche.,einen,seltenem,immer,war,weichem,salzige,Tiere,,,,,,,,,,,,,,,,,,,,,,,1,0,1,0,0,5,5,5,,,,,,,space,0.646405935287,,,,2017_Jan_25_1159,59.438871962,spr_backupper,001,Sa12,
,mehr,Grases,Hauptbahnhof.,Abduschen,nichts,aus,dichten,Flut,als,die,wiedergewählt.,verschrottet.,um,dass,Helmen,ml,Energie.,Soldaten,Müll.,Schmuck,nan,er,Alkohol,sie,Helmen,nan,nan,den,die,nan,Wurst,große,Esslöffel,Gras,um,goldenen,Kraftstoff,die,den,Planet,jeden.,Müll.,um,defekt,große,köstlicher,eine,"vermiest,",Besucher.,Dezember,schwarzem,Planeten,defekt,sie,mehr,Schaumstoff,Taschengeld,Herrn,Esslöffel,die,Einkommen,grünen,täglichen,Stimmung,Soldaten,nan,ml,Tupperware,wiedergewählt.,nan,köstlichen,jeden.,Kunsteis,Herrn,als,drei,nan,kaltem,Energie.,seiner,nan,jeden,verschrottet.,jeden,seiner,die,den,aus,eine,nichts,nan,Besucher.,dichten,ruhig,aus,Untergrund,Wurst,artgerecht,,,,,,,,,,,,,,,,,,,,,,,1,0,1,0,0,6,6,6,,,,,,,space,0.59627699852,,,,2017_Jan_25_1159,59.438871962,spr_backupper,001,Sa12,
,als,zwängen.,nan,gehärtet.,mitbringen.,dem,Stoff,zurückgekehrt.,einmal,Probleme,nan,nan,Nadelhölzer,das,zur,warme,nan,des,nan,umgearbeitet.,nan,trug.,verdünnt.,überführt,zur,nan,nan,Boden,Slums.,nan,mit,Menge,warmen,zwängen.,jede,Besatz,fahren.,Wohnung.,Boden,ganz,nan,nan,jede,war.,Menge,Wein,Sammlung,dass,nan,stattfinden.,Kaffee,ganz,war.,überführt,als,gefertigt.,selber,Gantenbein.,warmem,Slums.,haftbar.,Tee,Einsatz,ziemlich,des,nan,warmer,ist.,nan,nan,Weins,nan,eingesprüht.,Gantenbeins.,einmal,Tage.,nan,Saft,nan,Frau,nan,Fall,nan,Fall,Frau,Wohnung.,Problemen,dem,Sammlung,mitbringen.,nan,nan,Gewebe,diskutiert.,Japan.,liegen.,mit,gehalten.,,,,,,,,,,,,,,,,,,,,,,,1,0,1,0,0,7,7,7,,,,,,,space,0.553776025772,,,,2017_Jan_25_1159,59.438871962,spr_backupper,001,Sa12,
,gerne.,nan,nan,nan,nan,Haus,gefertigt.,nan,Rilke.,im,nan,nan,umzusetzen.,Medikament,Schule.,Milch.,nan,zweiten,nan,nan,nan,nan,nan,wurden.,Schule.,nan,nan,berührt.,nan,nan,an,dunkle,Honigs,nan,Menge,rekonstruiert.,nan,nan,berührt.,deutlich.,nan,nan,Menge,nan,dunkler,schon,dummer,es,nan,nan,wiederbelebt.,deutlich.,nan,wurden.,gerne.,nan,kaufen.,nan,Honig,nan,nan,wieder,sinken.,vermiest.,zweiten,nan,Milch.,nan,nan,nan,schon,nan,nan,nan,Rilke,nan,nan,besprochen.,nan,gepasst.,nan,genug.,nan,genug.,gepasst,nan,im,Haus,dumme,nan,nan,nan,wiederhergestellt.,nan,nan,nan,an,nan,,,,,,,,,,,,,,,,,,,,,,,1,0,1,0,0,8,8,8,,,,,,,space,0.515383005142,,,,2017_Jan_25_1159,59.438871962,spr_backupper,001,Sa12,
,nan,nan,nan,nan,nan,geschafft.,nan,nan,nan,Landkreis.,nan,nan,nan,nicht,nan,nan,nan,Weltkriegs.,nan,nan,nan,nan,nan,nan,nan,nan,nan,nan,nan,nan,den,Materie,her.,nan,heißer,nan,nan,nan,nan,nan,nan,nan,heiße,nan,Materie,auf,Sprüche.,regnete.,nan,nan,nan,nan,nan,nan,nan,nan,nan,nan,her.,nan,nan,fit.,nan,nan,Weltkriegs.,nan,nan,nan,nan,nan,auf,nan,nan,nan,gelesen.,nan,nan,nan,nan,nan,nan,nan,nan,nan,haben.,nan,Landkreis.,geschafft.,Sprüche.,nan,nan,nan,nan,nan,nan,nan,den,nan,,,,,,,,,,,,,,,,,,,,,,,1,0,1,0,0,9,9,9,,,,,,,space,0.684606075287,,,,2017_Jan_25_1159,59.438871962,spr_backupper,001,Sa12,
,,,,,,,,,,,,,,,,,,,,,,,,,,,,,,,,,,,,,,,,,,,,,,,,,,,,,,,,,,,,,,,,,,,,,,,,,,,,,,,,,,,,,,,,,,,,,,,,,,,,,,,,,,,,,,,,,,,,,,,,,1,0,1,0,,,,,,,,,,,,,None,n,2.44546484947,2017_Jan_25_1159,59.438871962,spr_backupper,001,Sa12,
,Wir,Wir,Die,Die,Außer,Wir,Er,Als,In,In,Er,Die,Jetzt,In,Die,In,Die,Bei,Viele,Die,Es,Die,Die,Es,Die,Beträchtliche,Sie,Nicht,Am,Dort,Ich,Mit,Er,Wir,Man,Das,Wir,Sie,Nicht,Im,Außer,Viele,Man,Die,Mit,Bei,Sie,Es,Wir,Unter,Die,Im,Die,Es,Wir,Alle,Jugendliche,Die,Er,Am,Manche,Ich,Ihr,Dass,Bei,Walter,In,Die,Er,Beträchtliche,Bei,Außer,Die,Die,In,Der,Es,Sie,Die,Die,Sie,100,Die,100,Die,Sie,In,Wir,Sie,Außer,Dort,Wir,Danach,Fernab,Die,Jungtiere,Ich,In,,,,,,,,,,,,,,,,,,,,,,,2,0,2,0,0,0,0,0,,,,,,None,space,0.550670862198,,,,2017_Jan_25_1159,59.438871962,spr_backupper,001,Sa12,
,übergaben,mussten,Linie,Formen,das,haben,hat,die,meinem,der,wurde,Autos,ist,einer,Kinder,den,Schule,der,Tonnen,Stücke,wurden,Uhr,Lösung,waren,Kinder,Stücke,verbrauchen,ein,äußersten,türmen,nehme,dieser,stellt,mussten,machte,Tuch,konnten,verlassen,ein,Fernrohr,dem,Tonnen,machte,Uhr,dieser,unserer,hatte,hat,hatten,keinen,müden,Fernrohr,Uhr,waren,übergaben,Betten,können,Gäste,stellt,äußeren,Kreditnehmer,wurde,Blutdruck,es,der,Scheel,den,Teilnehmerinnen,wurde,Stücke,unserer,den,Eislaufbahnen,Gäste,meinem,Flug,wurden,haben,Schule,Schuhe,verbrauchen,g,Autos,g,Schuhe,verlassen,der,haben,hatte,dem,türmen,hatten,wurde,des,"Uhr,",sollten,nehme,diesem,,,,,,,,,,,,,,,,,,,,,,,2,0,2,0,0,1,1,1,,,,,,,space,0.469438791275,,,,2017_Jan_25_1159,59.438871962,spr_backupper,001,Sa12,
,dem,uns,101,wurden,Essen,jede,ein,Sonne,Studium,Tat,trotz,beider,genau,Studie,fuhren,Kakao,verbraucht,Feier,gebrauchte,wurden,Eimer,war,wird,nur,fuhren,saftigen,60,Tropfen,Rand,sich,eine,Methode,die,uns,mal,wurde,dann,wegen,Tropfen,sahen,Bürgermeister,gebrauchter,mal,schlug,Methode,Ankunft,keine,uns,in,Umständen,Teilnehmer,sahen,schlug,nur,das,wurden,Kleidung,suchen,die,Rand,sind,damals,kann,"regnete,",Feier,war,Kakao,wussten,trotz,saftiges,Ankunft,Bürgermeister,wurden,suchen,Studium,zum,Eimer,die,verbraucht,in,60,braunen,beider,brauner,in,wegen,Tat,jede,keine,Essen,sich,in,die,Rummels,die,immer,eine,Zirkus,,,,,,,,,,,,,,,,,,,,,,,2,0,2,0,0,2,2,2,,,,,,,space,0.570896148682,,,,2017_Jan_25_1159,59.438871962,spr_backupper,001,Sa12,
,Mann,durch,hält,unter,kann,Menge,Hemd,"unterging,",las,wissen,dem,beteiligter,die,wurde,mit,gehören,260.000,gedachte,Kleidung,aus,rote,aus,mit,kleinere,mit,Fleischs,Liter,königlichen,der,Berge,große,kann,Masse,durch,wieder,dann,mit,dem,königliches,wir,beschuldigten,Kleidung,wieder,"sporadisch,",kann,stand,Lust,die,Dänemark,können,wurden,wir,"sporadisch,",kleinere,Auto,mit,bei,die,Masse,der,mit,schnell,schon,hat,gedachte,der,gehören,überwiegend,des,Fleisch,stand,beschuldigten,mit,die,habe,Mond,roter,Erlebnisse,260.000,Größe,Liter,Zuckers,beteiligten,Zucker,Größe,des,wissen,Menge,Lust,kann,Berge,Dänemark,Leinwand,wurde,er,auf,große,werden,,,,,,,,,,,,,,,,,,,,,,,2,0,2,0,0,3,3,3,,,,,,,space,0.503905057907,,,,2017_Jan_25_1159,59.438871962,spr_backupper,001,Sa12,
,das,Büschel,nicht,"regelmäßigem,",ich,alten,aus,war,ich,wir,bekannten,Fahrer,richtige,jetzt,solchen,immer,Kilowattstunden,man,landen,"wertvollem,",Farbe,"Japan,","reichlichem,","Delikte,",solch,wurden,sprudelnden,Bluts,Stadt,schmutziger,Packung,man,mit,Büschel,viel,mit,"minimalem,",schönen,Blut,den,die,landen,viel,obschon,man,ein,auf,Stimmung,einen,Neuwahlen,mit,den,obwohl,"Delikte,",dem,"üblichem,",ausreichendem,Wohnung,mit,Stadt,"sämtlichem,",dank,bei,uns,man,vierte,immer,"nicht,",bekannten,wurden,ein,die,dauerhaftem,Wohnung,ich,dauerte,Farbe,bei,Kilowattstunden,36,sprudelndes,sind,Fahrer,sind,36,schönen,wir,alten,auf,ich,schmutzige,gelegentlich,aus,schon,"trug,",warmem,Packung,die,,,,,,,,,,,,,,,,,,,,,,,2,0,2,0,0,4,4,4,,,,,,,space,0.586617946625,,,,2017_Jan_25_1159,59.438871962,spr_backupper,001,Sa12,
,Auto,frischen,am,kaltem,leider,Krams,feinem,die,mehr,um,Skandal,wurden,"Zeit,","nachgewiesen,",unzureichenden,350,elektrische,der,im,klassischen,geschleudert.,die,purem,deren,unzureichenden,serviert.,Trinkwassers.,hat,liegen,Wäsche.,salziger,eine,einem,frisches,Lärm,"reichem,",sauberen,Wetter,hat,roten,Störenfriede,im,Lärm,sie,eine,Glas,noch,ziemlich,gelegentlichen,vor,zusätzlichem,roten,sie,derer,Mann,harten,monatlichem,des,einem,liegen,künftigem,täglichem,minimalem,die,den,Bundespräsident.,350,was,Skandals,serviert.,Glas,Störenfriede,feinem,des,mehr,ungefähr,geschleudert.,"frischem,",elektrischer,hätten,Trinkwasser.,auf,wurden,auf,würden,Wetters,von,Kram,noch,leider,Wäsche.,einen,seltenem,immer,war,weichem,salzige,Tiere,,,,,,,,,,,,,,,,,,,,,,,2,0,2,0,0,5,5,5,,,,,,,space,0.549489974976,,,,2017_Jan_25_1159,59.438871962,spr_backupper,001,Sa12,
,mehr,Grases,Hauptbahnhof.,Abduschen,nichts,aus,dichten,Flut,als,die,wiedergewählt.,verschrottet.,um,dass,Helmen,ml,Energie.,Soldaten,Müll.,Schmuck,nan,er,Alkohol,sie,Helmen,nan,nan,den,die,nan,Wurst,große,Esslöffel,Gras,um,goldenen,Kraftstoff,die,den,Planet,jeden.,Müll.,um,defekt,große,köstlicher,eine,"vermiest,",Besucher.,Dezember,schwarzem,Planeten,defekt,sie,mehr,Schaumstoff,Taschengeld,Herrn,Esslöffel,die,Einkommen,grünen,täglichen,Stimmung,Soldaten,nan,ml,Tupperware,wiedergewählt.,nan,köstlichen,jeden.,Kunsteis,Herrn,als,drei,nan,kaltem,Energie.,seiner,nan,jeden,verschrottet.,jeden,seiner,die,den,aus,eine,nichts,nan,Besucher.,dichten,ruhig,aus,Untergrund,Wurst,artgerecht,,,,,,,,,,,,,,,,,,,,,,,2,0,2,0,0,6,6,6,,,,,,,space,0.548460960388,,,,2017_Jan_25_1159,59.438871962,spr_backupper,001,Sa12,
,als,zwängen.,nan,gehärtet.,mitbringen.,dem,Stoff,zurückgekehrt.,einmal,Probleme,nan,nan,Nadelhölzer,das,zur,warme,nan,des,nan,umgearbeitet.,nan,trug.,verdünnt.,überführt,zur,nan,nan,Boden,Slums.,nan,mit,Menge,warmen,zwängen.,jede,Besatz,fahren.,Wohnung.,Boden,ganz,nan,nan,jede,war.,Menge,Wein,Sammlung,dass,nan,stattfinden.,Kaffee,ganz,war.,überführt,als,gefertigt.,selber,Gantenbein.,warmem,Slums.,haftbar.,Tee,Einsatz,ziemlich,des,nan,warmer,ist.,nan,nan,Weins,nan,eingesprüht.,Gantenbeins.,einmal,Tage.,nan,Saft,nan,Frau,nan,Fall,nan,Fall,Frau,Wohnung.,Problemen,dem,Sammlung,mitbringen.,nan,nan,Gewebe,diskutiert.,Japan.,liegen.,mit,gehalten.,,,,,,,,,,,,,,,,,,,,,,,2,0,2,0,0,7,7,7,,,,,,,space,0.839236021042,,,,2017_Jan_25_1159,59.438871962,spr_backupper,001,Sa12,
,,,,,,,,,,,,,,,,,,,,,,,,,,,,,,,,,,,,,,,,,,,,,,,,,,,,,,,,,,,,,,,,,,,,,,,,,,,,,,,,,,,,,,,,,,,,,,,,,,,,,,,,,,,,,,,,,,,,,,,,,2,0,2,0,,,,,,,,,,,,,None,j,4.52534222603,2017_Jan_25_1159,59.438871962,spr_backupper,001,Sa12,
,Wir,Wir,Die,Die,Außer,Wir,Er,Als,In,In,Er,Die,Jetzt,In,Die,In,Die,Bei,Viele,Die,Es,Die,Die,Es,Die,Beträchtliche,Sie,Nicht,Am,Dort,Ich,Mit,Er,Wir,Man,Das,Wir,Sie,Nicht,Im,Außer,Viele,Man,Die,Mit,Bei,Sie,Es,Wir,Unter,Die,Im,Die,Es,Wir,Alle,Jugendliche,Die,Er,Am,Manche,Ich,Ihr,Dass,Bei,Walter,In,Die,Er,Beträchtliche,Bei,Außer,Die,Die,In,Der,Es,Sie,Die,Die,Sie,100,Die,100,Die,Sie,In,Wir,Sie,Außer,Dort,Wir,Danach,Fernab,Die,Jungtiere,Ich,In,,,,,,,,,,,,,,,,,,,,,,,3,0,3,0,0,0,0,0,,,,,,None,space,0.528455972672,,,,2017_Jan_25_1159,59.438871962,spr_backupper,001,Sa12,
,übergaben,mussten,Linie,Formen,das,haben,hat,die,meinem,der,wurde,Autos,ist,einer,Kinder,den,Schule,der,Tonnen,Stücke,wurden,Uhr,Lösung,waren,Kinder,Stücke,verbrauchen,ein,äußersten,türmen,nehme,dieser,stellt,mussten,machte,Tuch,konnten,verlassen,ein,Fernrohr,dem,Tonnen,machte,Uhr,dieser,unserer,hatte,hat,hatten,keinen,müden,Fernrohr,Uhr,waren,übergaben,Betten,können,Gäste,stellt,äußeren,Kreditnehmer,wurde,Blutdruck,es,der,Scheel,den,Teilnehmerinnen,wurde,Stücke,unserer,den,Eislaufbahnen,Gäste,meinem,Flug,wurden,haben,Schule,Schuhe,verbrauchen,g,Autos,g,Schuhe,verlassen,der,haben,hatte,dem,türmen,hatten,wurde,des,"Uhr,",sollten,nehme,diesem,,,,,,,,,,,,,,,,,,,,,,,3,0,3,0,0,1,1,1,,,,,,,space,0.61391711235,,,,2017_Jan_25_1159,59.438871962,spr_backupper,001,Sa12,
,dem,uns,101,wurden,Essen,jede,ein,Sonne,Studium,Tat,trotz,beider,genau,Studie,fuhren,Kakao,verbraucht,Feier,gebrauchte,wurden,Eimer,war,wird,nur,fuhren,saftigen,60,Tropfen,Rand,sich,eine,Methode,die,uns,mal,wurde,dann,wegen,Tropfen,sahen,Bürgermeister,gebrauchter,mal,schlug,Methode,Ankunft,keine,uns,in,Umständen,Teilnehmer,sahen,schlug,nur,das,wurden,Kleidung,suchen,die,Rand,sind,damals,kann,"regnete,",Feier,war,Kakao,wussten,trotz,saftiges,Ankunft,Bürgermeister,wurden,suchen,Studium,zum,Eimer,die,verbraucht,in,60,braunen,beider,brauner,in,wegen,Tat,jede,keine,Essen,sich,in,die,Rummels,die,immer,eine,Zirkus,,,,,,,,,,,,,,,,,,,,,,,3,0,3,0,0,2,2,2,,,,,,,space,0.62242603302,,,,2017_Jan_25_1159,59.438871962,spr_backupper,001,Sa12,
,Mann,durch,hält,unter,kann,Menge,Hemd,"unterging,",las,wissen,dem,beteiligter,die,wurde,mit,gehören,260.000,gedachte,Kleidung,aus,rote,aus,mit,kleinere,mit,Fleischs,Liter,königlichen,der,Berge,große,kann,Masse,durch,wieder,dann,mit,dem,königliches,wir,beschuldigten,Kleidung,wieder,"sporadisch,",kann,stand,Lust,die,Dänemark,können,wurden,wir,"sporadisch,",kleinere,Auto,mit,bei,die,Masse,der,mit,schnell,schon,hat,gedachte,der,gehören,überwiegend,des,Fleisch,stand,beschuldigten,mit,die,habe,Mond,roter,Erlebnisse,260.000,Größe,Liter,Zuckers,beteiligten,Zucker,Größe,des,wissen,Menge,Lust,kann,Berge,Dänemark,Leinwand,wurde,er,auf,große,werden,,,,,,,,,,,,,,,,,,,,,,,3,0,3,0,0,3,3,3,,,,,,,space,0.506809949875,,,,2017_Jan_25_1159,59.438871962,spr_backupper,001,Sa12,
,das,Büschel,nicht,"regelmäßigem,",ich,alten,aus,war,ich,wir,bekannten,Fahrer,richtige,jetzt,solchen,immer,Kilowattstunden,man,landen,"wertvollem,",Farbe,"Japan,","reichlichem,","Delikte,",solch,wurden,sprudelnden,Bluts,Stadt,schmutziger,Packung,man,mit,Büschel,viel,mit,"minimalem,",schönen,Blut,den,die,landen,viel,obschon,man,ein,auf,Stimmung,einen,Neuwahlen,mit,den,obwohl,"Delikte,",dem,"üblichem,",ausreichendem,Wohnung,mit,Stadt,"sämtlichem,",dank,bei,uns,man,vierte,immer,"nicht,",bekannten,wurden,ein,die,dauerhaftem,Wohnung,ich,dauerte,Farbe,bei,Kilowattstunden,36,sprudelndes,sind,Fahrer,sind,36,schönen,wir,alten,auf,ich,schmutzige,gelegentlich,aus,schon,"trug,",warmem,Packung,die,,,,,,,,,,,,,,,,,,,,,,,3,0,3,0,0,4,4,4,,,,,,,space,0.529238939285,,,,2017_Jan_25_1159,59.438871962,spr_backupper,001,Sa12,
,Auto,frischen,am,kaltem,leider,Krams,feinem,die,mehr,um,Skandal,wurden,"Zeit,","nachgewiesen,",unzureichenden,350,elektrische,der,im,klassischen,geschleudert.,die,purem,deren,unzureichenden,serviert.,Trinkwassers.,hat,liegen,Wäsche.,salziger,eine,einem,frisches,Lärm,"reichem,",sauberen,Wetter,hat,roten,Störenfriede,im,Lärm,sie,eine,Glas,noch,ziemlich,gelegentlichen,vor,zusätzlichem,roten,sie,derer,Mann,harten,monatlichem,des,einem,liegen,künftigem,täglichem,minimalem,die,den,Bundespräsident.,350,was,Skandals,serviert.,Glas,Störenfriede,feinem,des,mehr,ungefähr,geschleudert.,"frischem,",elektrischer,hätten,Trinkwasser.,auf,wurden,auf,würden,Wetters,von,Kram,noch,leider,Wäsche.,einen,seltenem,immer,war,weichem,salzige,Tiere,,,,,,,,,,,,,,,,,,,,,,,3,0,3,0,0,5,5,5,,,,,,,space,0.532874107361,,,,2017_Jan_25_1159,59.438871962,spr_backupper,001,Sa12,
,mehr,Grases,Hauptbahnhof.,Abduschen,nichts,aus,dichten,Flut,als,die,wiedergewählt.,verschrottet.,um,dass,Helmen,ml,Energie.,Soldaten,Müll.,Schmuck,nan,er,Alkohol,sie,Helmen,nan,nan,den,die,nan,Wurst,große,Esslöffel,Gras,um,goldenen,Kraftstoff,die,den,Planet,jeden.,Müll.,um,defekt,große,köstlicher,eine,"vermiest,",Besucher.,Dezember,schwarzem,Planeten,defekt,sie,mehr,Schaumstoff,Taschengeld,Herrn,Esslöffel,die,Einkommen,grünen,täglichen,Stimmung,Soldaten,nan,ml,Tupperware,wiedergewählt.,nan,köstlichen,jeden.,Kunsteis,Herrn,als,drei,nan,kaltem,Energie.,seiner,nan,jeden,verschrottet.,jeden,seiner,die,den,aus,eine,nichts,nan,Besucher.,dichten,ruhig,aus,Untergrund,Wurst,artgerecht,,,,,,,,,,,,,,,,,,,,,,,3,0,3,0,0,6,6,6,,,,,,,space,0.560094833374,,,,2017_Jan_25_1159,59.438871962,spr_backupper,001,Sa12,
,,,,,,,,,,,,,,,,,,,,,,,,,,,,,,,,,,,,,,,,,,,,,,,,,,,,,,,,,,,,,,,,,,,,,,,,,,,,,,,,,,,,,,,,,,,,,,,,,,,,,,,,,,,,,,,,,,,,,,,,,3,0,3,0,,,,,,,,,,,,,None,j,4.07584214211,2017_Jan_25_1159,59.438871962,spr_backupper,001,Sa12,
,Wir,Wir,Die,Die,Außer,Wir,Er,Als,In,In,Er,Die,Jetzt,In,Die,In,Die,Bei,Viele,Die,Es,Die,Die,Es,Die,Beträchtliche,Sie,Nicht,Am,Dort,Ich,Mit,Er,Wir,Man,Das,Wir,Sie,Nicht,Im,Außer,Viele,Man,Die,Mit,Bei,Sie,Es,Wir,Unter,Die,Im,Die,Es,Wir,Alle,Jugendliche,Die,Er,Am,Manche,Ich,Ihr,Dass,Bei,Walter,In,Die,Er,Beträchtliche,Bei,Außer,Die,Die,In,Der,Es,Sie,Die,Die,Sie,100,Die,100,Die,Sie,In,Wir,Sie,Außer,Dort,Wir,Danach,Fernab,Die,Jungtiere,Ich,In,,,,,,,,,,,,,,,,,,,,,,,4,0,4,0,0,0,0,0,,,,,,None,space,0.838833808899,,,,2017_Jan_25_1159,59.438871962,spr_backupper,001,Sa12,
,übergaben,mussten,Linie,Formen,das,haben,hat,die,meinem,der,wurde,Autos,ist,einer,Kinder,den,Schule,der,Tonnen,Stücke,wurden,Uhr,Lösung,waren,Kinder,Stücke,verbrauchen,ein,äußersten,türmen,nehme,dieser,stellt,mussten,machte,Tuch,konnten,verlassen,ein,Fernrohr,dem,Tonnen,machte,Uhr,dieser,unserer,hatte,hat,hatten,keinen,müden,Fernrohr,Uhr,waren,übergaben,Betten,können,Gäste,stellt,äußeren,Kreditnehmer,wurde,Blutdruck,es,der,Scheel,den,Teilnehmerinnen,wurde,Stücke,unserer,den,Eislaufbahnen,Gäste,meinem,Flug,wurden,haben,Schule,Schuhe,verbrauchen,g,Autos,g,Schuhe,verlassen,der,haben,hatte,dem,türmen,hatten,wurde,des,"Uhr,",sollten,nehme,diesem,,,,,,,,,,,,,,,,,,,,,,,4,0,4,0,0,1,1,1,,,,,,,space,0.436867952347,,,,2017_Jan_25_1159,59.438871962,spr_backupper,001,Sa12,
,dem,uns,101,wurden,Essen,jede,ein,Sonne,Studium,Tat,trotz,beider,genau,Studie,fuhren,Kakao,verbraucht,Feier,gebrauchte,wurden,Eimer,war,wird,nur,fuhren,saftigen,60,Tropfen,Rand,sich,eine,Methode,die,uns,mal,wurde,dann,wegen,Tropfen,sahen,Bürgermeister,gebrauchter,mal,schlug,Methode,Ankunft,keine,uns,in,Umständen,Teilnehmer,sahen,schlug,nur,das,wurden,Kleidung,suchen,die,Rand,sind,damals,kann,"regnete,",Feier,war,Kakao,wussten,trotz,saftiges,Ankunft,Bürgermeister,wurden,suchen,Studium,zum,Eimer,die,verbraucht,in,60,braunen,beider,brauner,in,wegen,Tat,jede,keine,Essen,sich,in,die,Rummels,die,immer,eine,Zirkus,,,,,,,,,,,,,,,,,,,,,,,4,0,4,0,0,2,2,2,,,,,,,space,0.477076053619,,,,2017_Jan_25_1159,59.438871962,spr_backupper,001,Sa12,
,Mann,durch,hält,unter,kann,Menge,Hemd,"unterging,",las,wissen,dem,beteiligter,die,wurde,mit,gehören,260.000,gedachte,Kleidung,aus,rote,aus,mit,kleinere,mit,Fleischs,Liter,königlichen,der,Berge,große,kann,Masse,durch,wieder,dann,mit,dem,königliches,wir,beschuldigten,Kleidung,wieder,"sporadisch,",kann,stand,Lust,die,Dänemark,können,wurden,wir,"sporadisch,",kleinere,Auto,mit,bei,die,Masse,der,mit,schnell,schon,hat,gedachte,der,gehören,überwiegend,des,Fleisch,stand,beschuldigten,mit,die,habe,Mond,roter,Erlebnisse,260.000,Größe,Liter,Zuckers,beteiligten,Zucker,Größe,des,wissen,Menge,Lust,kann,Berge,Dänemark,Leinwand,wurde,er,auf,große,werden,,,,,,,,,,,,,,,,,,,,,,,4,0,4,0,0,3,3,3,,,,,,,space,0.496374130249,,,,2017_Jan_25_1159,59.438871962,spr_backupper,001,Sa12,
,das,Büschel,nicht,"regelmäßigem,",ich,alten,aus,war,ich,wir,bekannten,Fahrer,richtige,jetzt,solchen,immer,Kilowattstunden,man,landen,"wertvollem,",Farbe,"Japan,","reichlichem,","Delikte,",solch,wurden,sprudelnden,Bluts,Stadt,schmutziger,Packung,man,mit,Büschel,viel,mit,"minimalem,",schönen,Blut,den,die,landen,viel,obschon,man,ein,auf,Stimmung,einen,Neuwahlen,mit,den,obwohl,"Delikte,",dem,"üblichem,",ausreichendem,Wohnung,mit,Stadt,"sämtlichem,",dank,bei,uns,man,vierte,immer,"nicht,",bekannten,wurden,ein,die,dauerhaftem,Wohnung,ich,dauerte,Farbe,bei,Kilowattstunden,36,sprudelndes,sind,Fahrer,sind,36,schönen,wir,alten,auf,ich,schmutzige,gelegentlich,aus,schon,"trug,",warmem,Packung,die,,,,,,,,,,,,,,,,,,,,,,,4,0,4,0,0,4,4,4,,,,,,,space,0.604897975922,,,,2017_Jan_25_1159,59.438871962,spr_backupper,001,Sa12,
,Auto,frischen,am,kaltem,leider,Krams,feinem,die,mehr,um,Skandal,wurden,"Zeit,","nachgewiesen,",unzureichenden,350,elektrische,der,im,klassischen,geschleudert.,die,purem,deren,unzureichenden,serviert.,Trinkwassers.,hat,liegen,Wäsche.,salziger,eine,einem,frisches,Lärm,"reichem,",sauberen,Wetter,hat,roten,Störenfriede,im,Lärm,sie,eine,Glas,noch,ziemlich,gelegentlichen,vor,zusätzlichem,roten,sie,derer,Mann,harten,monatlichem,des,einem,liegen,künftigem,täglichem,minimalem,die,den,Bundespräsident.,350,was,Skandals,serviert.,Glas,Störenfriede,feinem,des,mehr,ungefähr,geschleudert.,"frischem,",elektrischer,hätten,Trinkwasser.,auf,wurden,auf,würden,Wetters,von,Kram,noch,leider,Wäsche.,einen,seltenem,immer,war,weichem,salzige,Tiere,,,,,,,,,,,,,,,,,,,,,,,4,0,4,0,0,5,5,5,,,,,,,space,0.576445102692,,,,2017_Jan_25_1159,59.438871962,spr_backupper,001,Sa12,
,mehr,Grases,Hauptbahnhof.,Abduschen,nichts,aus,dichten,Flut,als,die,wiedergewählt.,verschrottet.,um,dass,Helmen,ml,Energie.,Soldaten,Müll.,Schmuck,nan,er,Alkohol,sie,Helmen,nan,nan,den,die,nan,Wurst,große,Esslöffel,Gras,um,goldenen,Kraftstoff,die,den,Planet,jeden.,Müll.,um,defekt,große,köstlicher,eine,"vermiest,",Besucher.,Dezember,schwarzem,Planeten,defekt,sie,mehr,Schaumstoff,Taschengeld,Herrn,Esslöffel,die,Einkommen,grünen,täglichen,Stimmung,Soldaten,nan,ml,Tupperware,wiedergewählt.,nan,köstlichen,jeden.,Kunsteis,Herrn,als,drei,nan,kaltem,Energie.,seiner,nan,jeden,verschrottet.,jeden,seiner,die,den,aus,eine,nichts,nan,Besucher.,dichten,ruhig,aus,Untergrund,Wurst,artgerecht,,,,,,,,,,,,,,,,,,,,,,,4,0,4,0,0,6,6,6,,,,,,,space,0.574163913727,,,,2017_Jan_25_1159,59.438871962,spr_backupper,001,Sa12,
,,,,,,,,,,,,,,,,,,,,,,,,,,,,,,,,,,,,,,,,,,,,,,,,,,,,,,,,,,,,,,,,,,,,,,,,,,,,,,,,,,,,,,,,,,,,,,,,,,,,,,,,,,,,,,,,,,,,,,,,,4,0,4,0,,,,,,,,,,,,,None,n,4.94793987274,2017_Jan_25_1159,59.438871962,spr_backupper,001,Sa12,
,Wir,Wir,Die,Die,Außer,Wir,Er,Als,In,In,Er,Die,Jetzt,In,Die,In,Die,Bei,Viele,Die,Es,Die,Die,Es,Die,Beträchtliche,Sie,Nicht,Am,Dort,Ich,Mit,Er,Wir,Man,Das,Wir,Sie,Nicht,Im,Außer,Viele,Man,Die,Mit,Bei,Sie,Es,Wir,Unter,Die,Im,Die,Es,Wir,Alle,Jugendliche,Die,Er,Am,Manche,Ich,Ihr,Dass,Bei,Walter,In,Die,Er,Beträchtliche,Bei,Außer,Die,Die,In,Der,Es,Sie,Die,Die,Sie,100,Die,100,Die,Sie,In,Wir,Sie,Außer,Dort,Wir,Danach,Fernab,Die,Jungtiere,Ich,In,,,,,,,,,,,,,,,,,,,,,,,5,0,5,0,0,0,0,0,,,,,,None,space,0.709390878677,,,,2017_Jan_25_1159,59.438871962,spr_backupper,001,Sa12,
,übergaben,mussten,Linie,Formen,das,haben,hat,die,meinem,der,wurde,Autos,ist,einer,Kinder,den,Schule,der,Tonnen,Stücke,wurden,Uhr,Lösung,waren,Kinder,Stücke,verbrauchen,ein,äußersten,türmen,nehme,dieser,stellt,mussten,machte,Tuch,konnten,verlassen,ein,Fernrohr,dem,Tonnen,machte,Uhr,dieser,unserer,hatte,hat,hatten,keinen,müden,Fernrohr,Uhr,waren,übergaben,Betten,können,Gäste,stellt,äußeren,Kreditnehmer,wurde,Blutdruck,es,der,Scheel,den,Teilnehmerinnen,wurde,Stücke,unserer,den,Eislaufbahnen,Gäste,meinem,Flug,wurden,haben,Schule,Schuhe,verbrauchen,g,Autos,g,Schuhe,verlassen,der,haben,hatte,dem,türmen,hatten,wurde,des,"Uhr,",sollten,nehme,diesem,,,,,,,,,,,,,,,,,,,,,,,5,0,5,0,0,1,1,1,,,,,,,space,0.44290804863,,,,2017_Jan_25_1159,59.438871962,spr_backupper,001,Sa12,
,dem,uns,101,wurden,Essen,jede,ein,Sonne,Studium,Tat,trotz,beider,genau,Studie,fuhren,Kakao,verbraucht,Feier,gebrauchte,wurden,Eimer,war,wird,nur,fuhren,saftigen,60,Tropfen,Rand,sich,eine,Methode,die,uns,mal,wurde,dann,wegen,Tropfen,sahen,Bürgermeister,gebrauchter,mal,schlug,Methode,Ankunft,keine,uns,in,Umständen,Teilnehmer,sahen,schlug,nur,das,wurden,Kleidung,suchen,die,Rand,sind,damals,kann,"regnete,",Feier,war,Kakao,wussten,trotz,saftiges,Ankunft,Bürgermeister,wurden,suchen,Studium,zum,Eimer,die,verbraucht,in,60,braunen,beider,brauner,in,wegen,Tat,jede,keine,Essen,sich,in,die,Rummels,die,immer,eine,Zirkus,,,,,,,,,,,,,,,,,,,,,,,5,0,5,0,0,2,2,2,,,,,,,space,0.502905845642,,,,2017_Jan_25_1159,59.438871962,spr_backupper,001,Sa12,
,Mann,durch,hält,unter,kann,Menge,Hemd,"unterging,",las,wissen,dem,beteiligter,die,wurde,mit,gehören,260.000,gedachte,Kleidung,aus,rote,aus,mit,kleinere,mit,Fleischs,Liter,königlichen,der,Berge,große,kann,Masse,durch,wieder,dann,mit,dem,königliches,wir,beschuldigten,Kleidung,wieder,"sporadisch,",kann,stand,Lust,die,Dänemark,können,wurden,wir,"sporadisch,",kleinere,Auto,mit,bei,die,Masse,der,mit,schnell,schon,hat,gedachte,der,gehören,überwiegend,des,Fleisch,stand,beschuldigten,mit,die,habe,Mond,roter,Erlebnisse,260.000,Größe,Liter,Zuckers,beteiligten,Zucker,Größe,des,wissen,Menge,Lust,kann,Berge,Dänemark,Leinwand,wurde,er,auf,große,werden,,,,,,,,,,,,,,,,,,,,,,,5,0,5,0,0,3,3,3,,,,,,,space,0.486634969711,,,,2017_Jan_25_1159,59.438871962,spr_backupper,001,Sa12,
,das,Büschel,nicht,"regelmäßigem,",ich,alten,aus,war,ich,wir,bekannten,Fahrer,richtige,jetzt,solchen,immer,Kilowattstunden,man,landen,"wertvollem,",Farbe,"Japan,","reichlichem,","Delikte,",solch,wurden,sprudelnden,Bluts,Stadt,schmutziger,Packung,man,mit,Büschel,viel,mit,"minimalem,",schönen,Blut,den,die,landen,viel,obschon,man,ein,auf,Stimmung,einen,Neuwahlen,mit,den,obwohl,"Delikte,",dem,"üblichem,",ausreichendem,Wohnung,mit,Stadt,"sämtlichem,",dank,bei,uns,man,vierte,immer,"nicht,",bekannten,wurden,ein,die,dauerhaftem,Wohnung,ich,dauerte,Farbe,bei,Kilowattstunden,36,sprudelndes,sind,Fahrer,sind,36,schönen,wir,alten,auf,ich,schmutzige,gelegentlich,aus,schon,"trug,",warmem,Packung,die,,,,,,,,,,,,,,,,,,,,,,,5,0,5,0,0,4,4,4,,,,,,,space,0.513018846512,,,,2017_Jan_25_1159,59.438871962,spr_backupper,001,Sa12,
,Auto,frischen,am,kaltem,leider,Krams,feinem,die,mehr,um,Skandal,wurden,"Zeit,","nachgewiesen,",unzureichenden,350,elektrische,der,im,klassischen,geschleudert.,die,purem,deren,unzureichenden,serviert.,Trinkwassers.,hat,liegen,Wäsche.,salziger,eine,einem,frisches,Lärm,"reichem,",sauberen,Wetter,hat,roten,Störenfriede,im,Lärm,sie,eine,Glas,noch,ziemlich,gelegentlichen,vor,zusätzlichem,roten,sie,derer,Mann,harten,monatlichem,des,einem,liegen,künftigem,täglichem,minimalem,die,den,Bundespräsident.,350,was,Skandals,serviert.,Glas,Störenfriede,feinem,des,mehr,ungefähr,geschleudert.,"frischem,",elektrischer,hätten,Trinkwasser.,auf,wurden,auf,würden,Wetters,von,Kram,noch,leider,Wäsche.,einen,seltenem,immer,war,weichem,salzige,Tiere,,,,,,,,,,,,,,,,,,,,,,,5,0,5,0,0,5,5,5,,,,,,,space,0.469563961029,,,,2017_Jan_25_1159,59.438871962,spr_backupper,001,Sa12,
,mehr,Grases,Hauptbahnhof.,Abduschen,nichts,aus,dichten,Flut,als,die,wiedergewählt.,verschrottet.,um,dass,Helmen,ml,Energie.,Soldaten,Müll.,Schmuck,nan,er,Alkohol,sie,Helmen,nan,nan,den,die,nan,Wurst,große,Esslöffel,Gras,um,goldenen,Kraftstoff,die,den,Planet,jeden.,Müll.,um,defekt,große,köstlicher,eine,"vermiest,",Besucher.,Dezember,schwarzem,Planeten,defekt,sie,mehr,Schaumstoff,Taschengeld,Herrn,Esslöffel,die,Einkommen,grünen,täglichen,Stimmung,Soldaten,nan,ml,Tupperware,wiedergewählt.,nan,köstlichen,jeden.,Kunsteis,Herrn,als,drei,nan,kaltem,Energie.,seiner,nan,jeden,verschrottet.,jeden,seiner,die,den,aus,eine,nichts,nan,Besucher.,dichten,ruhig,aus,Untergrund,Wurst,artgerecht,,,,,,,,,,,,,,,,,,,,,,,5,0,5,0,0,6,6,6,,,,,,,space,0.485812187195,,,,2017_Jan_25_1159,59.438871962,spr_backupper,001,Sa12,
,als,zwängen.,nan,gehärtet.,mitbringen.,dem,Stoff,zurückgekehrt.,einmal,Probleme,nan,nan,Nadelhölzer,das,zur,warme,nan,des,nan,umgearbeitet.,nan,trug.,verdünnt.,überführt,zur,nan,nan,Boden,Slums.,nan,mit,Menge,warmen,zwängen.,jede,Besatz,fahren.,Wohnung.,Boden,ganz,nan,nan,jede,war.,Menge,Wein,Sammlung,dass,nan,stattfinden.,Kaffee,ganz,war.,überführt,als,gefertigt.,selber,Gantenbein.,warmem,Slums.,haftbar.,Tee,Einsatz,ziemlich,des,nan,warmer,ist.,nan,nan,Weins,nan,eingesprüht.,Gantenbeins.,einmal,Tage.,nan,Saft,nan,Frau,nan,Fall,nan,Fall,Frau,Wohnung.,Problemen,dem,Sammlung,mitbringen.,nan,nan,Gewebe,diskutiert.,Japan.,liegen.,mit,gehalten.,,,,,,,,,,,,,,,,,,,,,,,5,0,5,0,0,7,7,7,,,,,,,space,0.554180145264,,,,2017_Jan_25_1159,59.438871962,spr_backupper,001,Sa12,
,gerne.,nan,nan,nan,nan,Haus,gefertigt.,nan,Rilke.,im,nan,nan,umzusetzen.,Medikament,Schule.,Milch.,nan,zweiten,nan,nan,nan,nan,nan,wurden.,Schule.,nan,nan,berührt.,nan,nan,an,dunkle,Honigs,nan,Menge,rekonstruiert.,nan,nan,berührt.,deutlich.,nan,nan,Menge,nan,dunkler,schon,dummer,es,nan,nan,wiederbelebt.,deutlich.,nan,wurden.,gerne.,nan,kaufen.,nan,Honig,nan,nan,wieder,sinken.,vermiest.,zweiten,nan,Milch.,nan,nan,nan,schon,nan,nan,nan,Rilke,nan,nan,besprochen.,nan,gepasst.,nan,genug.,nan,genug.,gepasst,nan,im,Haus,dumme,nan,nan,nan,wiederhergestellt.,nan,nan,nan,an,nan,,,,,,,,,,,,,,,,,,,,,,,5,0,5,0,0,8,8,8,,,,,,,space,0.585421085358,,,,2017_Jan_25_1159,59.438871962,spr_backupper,001,Sa12,
,nan,nan,nan,nan,nan,geschafft.,nan,nan,nan,Landkreis.,nan,nan,nan,nicht,nan,nan,nan,Weltkriegs.,nan,nan,nan,nan,nan,nan,nan,nan,nan,nan,nan,nan,den,Materie,her.,nan,heißer,nan,nan,nan,nan,nan,nan,nan,heiße,nan,Materie,auf,Sprüche.,regnete.,nan,nan,nan,nan,nan,nan,nan,nan,nan,nan,her.,nan,nan,fit.,nan,nan,Weltkriegs.,nan,nan,nan,nan,nan,auf,nan,nan,nan,gelesen.,nan,nan,nan,nan,nan,nan,nan,nan,nan,haben.,nan,Landkreis.,geschafft.,Sprüche.,nan,nan,nan,nan,nan,nan,nan,den,nan,,,,,,,,,,,,,,,,,,,,,,,5,0,5,0,0,9,9,9,,,,,,,space,0.705290794373,,,,2017_Jan_25_1159,59.438871962,spr_backupper,001,Sa12,
,,,,,,,,,,,,,,,,,,,,,,,,,,,,,,,,,,,,,,,,,,,,,,,,,,,,,,,,,,,,,,,,,,,,,,,,,,,,,,,,,,,,,,,,,,,,,,,,,,,,,,,,,,,,,,,,,,,,,,,,,5,0,5,0,,,,,,,,,,,,,None,j,2.89332795143,2017_Jan_25_1159,59.438871962,spr_backupper,001,Sa12,
,Wir,Wir,Die,Die,Außer,Wir,Er,Als,In,In,Er,Die,Jetzt,In,Die,In,Die,Bei,Viele,Die,Es,Die,Die,Es,Die,Beträchtliche,Sie,Nicht,Am,Dort,Ich,Mit,Er,Wir,Man,Das,Wir,Sie,Nicht,Im,Außer,Viele,Man,Die,Mit,Bei,Sie,Es,Wir,Unter,Die,Im,Die,Es,Wir,Alle,Jugendliche,Die,Er,Am,Manche,Ich,Ihr,Dass,Bei,Walter,In,Die,Er,Beträchtliche,Bei,Außer,Die,Die,In,Der,Es,Sie,Die,Die,Sie,100,Die,100,Die,Sie,In,Wir,Sie,Außer,Dort,Wir,Danach,Fernab,Die,Jungtiere,Ich,In,,,,,,,,,,,,,,,,,,,,,,,6,0,6,0,0,0,0,0,,,,,,None,space,0.700115919113,,,,2017_Jan_25_1159,59.438871962,spr_backupper,001,Sa12,
,übergaben,mussten,Linie,Formen,das,haben,hat,die,meinem,der,wurde,Autos,ist,einer,Kinder,den,Schule,der,Tonnen,Stücke,wurden,Uhr,Lösung,waren,Kinder,Stücke,verbrauchen,ein,äußersten,türmen,nehme,dieser,stellt,mussten,machte,Tuch,konnten,verlassen,ein,Fernrohr,dem,Tonnen,machte,Uhr,dieser,unserer,hatte,hat,hatten,keinen,müden,Fernrohr,Uhr,waren,übergaben,Betten,können,Gäste,stellt,äußeren,Kreditnehmer,wurde,Blutdruck,es,der,Scheel,den,Teilnehmerinnen,wurde,Stücke,unserer,den,Eislaufbahnen,Gäste,meinem,Flug,wurden,haben,Schule,Schuhe,verbrauchen,g,Autos,g,Schuhe,verlassen,der,haben,hatte,dem,türmen,hatten,wurde,des,"Uhr,",sollten,nehme,diesem,,,,,,,,,,,,,,,,,,,,,,,6,0,6,0,0,1,1,1,,,,,,,space,0.457942008972,,,,2017_Jan_25_1159,59.438871962,spr_backupper,001,Sa12,
,dem,uns,101,wurden,Essen,jede,ein,Sonne,Studium,Tat,trotz,beider,genau,Studie,fuhren,Kakao,verbraucht,Feier,gebrauchte,wurden,Eimer,war,wird,nur,fuhren,saftigen,60,Tropfen,Rand,sich,eine,Methode,die,uns,mal,wurde,dann,wegen,Tropfen,sahen,Bürgermeister,gebrauchter,mal,schlug,Methode,Ankunft,keine,uns,in,Umständen,Teilnehmer,sahen,schlug,nur,das,wurden,Kleidung,suchen,die,Rand,sind,damals,kann,"regnete,",Feier,war,Kakao,wussten,trotz,saftiges,Ankunft,Bürgermeister,wurden,suchen,Studium,zum,Eimer,die,verbraucht,in,60,braunen,beider,brauner,in,wegen,Tat,jede,keine,Essen,sich,in,die,Rummels,die,immer,eine,Zirkus,,,,,,,,,,,,,,,,,,,,,,,6,0,6,0,0,2,2,2,,,,,,,space,0.486588001251,,,,2017_Jan_25_1159,59.438871962,spr_backupper,001,Sa12,
,Mann,durch,hält,unter,kann,Menge,Hemd,"unterging,",las,wissen,dem,beteiligter,die,wurde,mit,gehören,260.000,gedachte,Kleidung,aus,rote,aus,mit,kleinere,mit,Fleischs,Liter,königlichen,der,Berge,große,kann,Masse,durch,wieder,dann,mit,dem,königliches,wir,beschuldigten,Kleidung,wieder,"sporadisch,",kann,stand,Lust,die,Dänemark,können,wurden,wir,"sporadisch,",kleinere,Auto,mit,bei,die,Masse,der,mit,schnell,schon,hat,gedachte,der,gehören,überwiegend,des,Fleisch,stand,beschuldigten,mit,die,habe,Mond,roter,Erlebnisse,260.000,Größe,Liter,Zuckers,beteiligten,Zucker,Größe,des,wissen,Menge,Lust,kann,Berge,Dänemark,Leinwand,wurde,er,auf,große,werden,,,,,,,,,,,,,,,,,,,,,,,6,0,6,0,0,3,3,3,,,,,,,space,0.553004026413,,,,2017_Jan_25_1159,59.438871962,spr_backupper,001,Sa12,
,das,Büschel,nicht,"regelmäßigem,",ich,alten,aus,war,ich,wir,bekannten,Fahrer,richtige,jetzt,solchen,immer,Kilowattstunden,man,landen,"wertvollem,",Farbe,"Japan,","reichlichem,","Delikte,",solch,wurden,sprudelnden,Bluts,Stadt,schmutziger,Packung,man,mit,Büschel,viel,mit,"minimalem,",schönen,Blut,den,die,landen,viel,obschon,man,ein,auf,Stimmung,einen,Neuwahlen,mit,den,obwohl,"Delikte,",dem,"üblichem,",ausreichendem,Wohnung,mit,Stadt,"sämtlichem,",dank,bei,uns,man,vierte,immer,"nicht,",bekannten,wurden,ein,die,dauerhaftem,Wohnung,ich,dauerte,Farbe,bei,Kilowattstunden,36,sprudelndes,sind,Fahrer,sind,36,schönen,wir,alten,auf,ich,schmutzige,gelegentlich,aus,schon,"trug,",warmem,Packung,die,,,,,,,,,,,,,,,,,,,,,,,6,0,6,0,0,4,4,4,,,,,,,space,0.554342985153,,,,2017_Jan_25_1159,59.438871962,spr_backupper,001,Sa12,
,Auto,frischen,am,kaltem,leider,Krams,feinem,die,mehr,um,Skandal,wurden,"Zeit,","nachgewiesen,",unzureichenden,350,elektrische,der,im,klassischen,geschleudert.,die,purem,deren,unzureichenden,serviert.,Trinkwassers.,hat,liegen,Wäsche.,salziger,eine,einem,frisches,Lärm,"reichem,",sauberen,Wetter,hat,roten,Störenfriede,im,Lärm,sie,eine,Glas,noch,ziemlich,gelegentlichen,vor,zusätzlichem,roten,sie,derer,Mann,harten,monatlichem,des,einem,liegen,künftigem,täglichem,minimalem,die,den,Bundespräsident.,350,was,Skandals,serviert.,Glas,Störenfriede,feinem,des,mehr,ungefähr,geschleudert.,"frischem,",elektrischer,hätten,Trinkwasser.,auf,wurden,auf,würden,Wetters,von,Kram,noch,leider,Wäsche.,einen,seltenem,immer,war,weichem,salzige,Tiere,,,,,,,,,,,,,,,,,,,,,,,6,0,6,0,0,5,5,5,,,,,,,space,0.618803024292,,,,2017_Jan_25_1159,59.438871962,spr_backupper,001,Sa12,
,mehr,Grases,Hauptbahnhof.,Abduschen,nichts,aus,dichten,Flut,als,die,wiedergewählt.,verschrottet.,um,dass,Helmen,ml,Energie.,Soldaten,Müll.,Schmuck,nan,er,Alkohol,sie,Helmen,nan,nan,den,die,nan,Wurst,große,Esslöffel,Gras,um,goldenen,Kraftstoff,die,den,Planet,jeden.,Müll.,um,defekt,große,köstlicher,eine,"vermiest,",Besucher.,Dezember,schwarzem,Planeten,defekt,sie,mehr,Schaumstoff,Taschengeld,Herrn,Esslöffel,die,Einkommen,grünen,täglichen,Stimmung,Soldaten,nan,ml,Tupperware,wiedergewählt.,nan,köstlichen,jeden.,Kunsteis,Herrn,als,drei,nan,kaltem,Energie.,seiner,nan,jeden,verschrottet.,jeden,seiner,die,den,aus,eine,nichts,nan,Besucher.,dichten,ruhig,aus,Untergrund,Wurst,artgerecht,,,,,,,,,,,,,,,,,,,,,,,6,0,6,0,0,6,6,6,,,,,,,space,0.62183380127,,,,2017_Jan_25_1159,59.438871962,spr_backupper,001,Sa12,
,als,zwängen.,nan,gehärtet.,mitbringen.,dem,Stoff,zurückgekehrt.,einmal,Probleme,nan,nan,Nadelhölzer,das,zur,warme,nan,des,nan,umgearbeitet.,nan,trug.,verdünnt.,überführt,zur,nan,nan,Boden,Slums.,nan,mit,Menge,warmen,zwängen.,jede,Besatz,fahren.,Wohnung.,Boden,ganz,nan,nan,jede,war.,Menge,Wein,Sammlung,dass,nan,stattfinden.,Kaffee,ganz,war.,überführt,als,gefertigt.,selber,Gantenbein.,warmem,Slums.,haftbar.,Tee,Einsatz,ziemlich,des,nan,warmer,ist.,nan,nan,Weins,nan,eingesprüht.,Gantenbeins.,einmal,Tage.,nan,Saft,nan,Frau,nan,Fall,nan,Fall,Frau,Wohnung.,Problemen,dem,Sammlung,mitbringen.,nan,nan,Gewebe,diskutiert.,Japan.,liegen.,mit,gehalten.,,,,,,,,,,,,,,,,,,,,,,,6,0,6,0,0,7,7,7,,,,,,,space,0.558207035065,,,,2017_Jan_25_1159,59.438871962,spr_backupper,001,Sa12,
,gerne.,nan,nan,nan,nan,Haus,gefertigt.,nan,Rilke.,im,nan,nan,umzusetzen.,Medikament,Schule.,Milch.,nan,zweiten,nan,nan,nan,nan,nan,wurden.,Schule.,nan,nan,berührt.,nan,nan,an,dunkle,Honigs,nan,Menge,rekonstruiert.,nan,nan,berührt.,deutlich.,nan,nan,Menge,nan,dunkler,schon,dummer,es,nan,nan,wiederbelebt.,deutlich.,nan,wurden.,gerne.,nan,kaufen.,nan,Honig,nan,nan,wieder,sinken.,vermiest.,zweiten,nan,Milch.,nan,nan,nan,schon,nan,nan,nan,Rilke,nan,nan,besprochen.,nan,gepasst.,nan,genug.,nan,genug.,gepasst,nan,im,Haus,dumme,nan,nan,nan,wiederhergestellt.,nan,nan,nan,an,nan,,,,,,,,,,,,,,,,,,,,,,,6,0,6,0,0,8,8,8,,,,,,,space,0.979557991028,,,,2017_Jan_25_1159,59.438871962,spr_backupper,001,Sa12,
,,,,,,,,,,,,,,,,,,,,,,,,,,,,,,,,,,,,,,,,,,,,,,,,,,,,,,,,,,,,,,,,,,,,,,,,,,,,,,,,,,,,,,,,,,,,,,,,,,,,,,,,,,,,,,,,,,,,,,,,,6,0,6,0,,,,,,,,,,,,,None,n,2.95040512085,2017_Jan_25_1159,59.438871962,spr_backupper,001,Sa12,
,Wir,Wir,Die,Die,Außer,Wir,Er,Als,In,In,Er,Die,Jetzt,In,Die,In,Die,Bei,Viele,Die,Es,Die,Die,Es,Die,Beträchtliche,Sie,Nicht,Am,Dort,Ich,Mit,Er,Wir,Man,Das,Wir,Sie,Nicht,Im,Außer,Viele,Man,Die,Mit,Bei,Sie,Es,Wir,Unter,Die,Im,Die,Es,Wir,Alle,Jugendliche,Die,Er,Am,Manche,Ich,Ihr,Dass,Bei,Walter,In,Die,Er,Beträchtliche,Bei,Außer,Die,Die,In,Der,Es,Sie,Die,Die,Sie,100,Die,100,Die,Sie,In,Wir,Sie,Außer,Dort,Wir,Danach,Fernab,Die,Jungtiere,Ich,In,,,,,,,,,,,,,,,,,,,,,,,7,0,7,0,0,0,0,0,,,,,,None,space,0.705965042114,,,,2017_Jan_25_1159,59.438871962,spr_backupper,001,Sa12,
,übergaben,mussten,Linie,Formen,das,haben,hat,die,meinem,der,wurde,Autos,ist,einer,Kinder,den,Schule,der,Tonnen,Stücke,wurden,Uhr,Lösung,waren,Kinder,Stücke,verbrauchen,ein,äußersten,türmen,nehme,dieser,stellt,mussten,machte,Tuch,konnten,verlassen,ein,Fernrohr,dem,Tonnen,machte,Uhr,dieser,unserer,hatte,hat,hatten,keinen,müden,Fernrohr,Uhr,waren,übergaben,Betten,können,Gäste,stellt,äußeren,Kreditnehmer,wurde,Blutdruck,es,der,Scheel,den,Teilnehmerinnen,wurde,Stücke,unserer,den,Eislaufbahnen,Gäste,meinem,Flug,wurden,haben,Schule,Schuhe,verbrauchen,g,Autos,g,Schuhe,verlassen,der,haben,hatte,dem,türmen,hatten,wurde,des,"Uhr,",sollten,nehme,diesem,,,,,,,,,,,,,,,,,,,,,,,7,0,7,0,0,1,1,1,,,,,,,space,0.507983922958,,,,2017_Jan_25_1159,59.438871962,spr_backupper,001,Sa12,
,dem,uns,101,wurden,Essen,jede,ein,Sonne,Studium,Tat,trotz,beider,genau,Studie,fuhren,Kakao,verbraucht,Feier,gebrauchte,wurden,Eimer,war,wird,nur,fuhren,saftigen,60,Tropfen,Rand,sich,eine,Methode,die,uns,mal,wurde,dann,wegen,Tropfen,sahen,Bürgermeister,gebrauchter,mal,schlug,Methode,Ankunft,keine,uns,in,Umständen,Teilnehmer,sahen,schlug,nur,das,wurden,Kleidung,suchen,die,Rand,sind,damals,kann,"regnete,",Feier,war,Kakao,wussten,trotz,saftiges,Ankunft,Bürgermeister,wurden,suchen,Studium,zum,Eimer,die,verbraucht,in,60,braunen,beider,brauner,in,wegen,Tat,jede,keine,Essen,sich,in,die,Rummels,die,immer,eine,Zirkus,,,,,,,,,,,,,,,,,,,,,,,7,0,7,0,0,2,2,2,,,,,,,space,0.837274074554,,,,2017_Jan_25_1159,59.438871962,spr_backupper,001,Sa12,
,Mann,durch,hält,unter,kann,Menge,Hemd,"unterging,",las,wissen,dem,beteiligter,die,wurde,mit,gehören,260.000,gedachte,Kleidung,aus,rote,aus,mit,kleinere,mit,Fleischs,Liter,königlichen,der,Berge,große,kann,Masse,durch,wieder,dann,mit,dem,königliches,wir,beschuldigten,Kleidung,wieder,"sporadisch,",kann,stand,Lust,die,Dänemark,können,wurden,wir,"sporadisch,",kleinere,Auto,mit,bei,die,Masse,der,mit,schnell,schon,hat,gedachte,der,gehören,überwiegend,des,Fleisch,stand,beschuldigten,mit,die,habe,Mond,roter,Erlebnisse,260.000,Größe,Liter,Zuckers,beteiligten,Zucker,Größe,des,wissen,Menge,Lust,kann,Berge,Dänemark,Leinwand,wurde,er,auf,große,werden,,,,,,,,,,,,,,,,,,,,,,,7,0,7,0,0,3,3,3,,,,,,,space,0.671319961548,,,,2017_Jan_25_1159,59.438871962,spr_backupper,001,Sa12,
,das,Büschel,nicht,"regelmäßigem,",ich,alten,aus,war,ich,wir,bekannten,Fahrer,richtige,jetzt,solchen,immer,Kilowattstunden,man,landen,"wertvollem,",Farbe,"Japan,","reichlichem,","Delikte,",solch,wurden,sprudelnden,Bluts,Stadt,schmutziger,Packung,man,mit,Büschel,viel,mit,"minimalem,",schönen,Blut,den,die,landen,viel,obschon,man,ein,auf,Stimmung,einen,Neuwahlen,mit,den,obwohl,"Delikte,",dem,"üblichem,",ausreichendem,Wohnung,mit,Stadt,"sämtlichem,",dank,bei,uns,man,vierte,immer,"nicht,",bekannten,wurden,ein,die,dauerhaftem,Wohnung,ich,dauerte,Farbe,bei,Kilowattstunden,36,sprudelndes,sind,Fahrer,sind,36,schönen,wir,alten,auf,ich,schmutzige,gelegentlich,aus,schon,"trug,",warmem,Packung,die,,,,,,,,,,,,,,,,,,,,,,,7,0,7,0,0,4,4,4,,,,,,,space,0.543174028397,,,,2017_Jan_25_1159,59.438871962,spr_backupper,001,Sa12,
,Auto,frischen,am,kaltem,leider,Krams,feinem,die,mehr,um,Skandal,wurden,"Zeit,","nachgewiesen,",unzureichenden,350,elektrische,der,im,klassischen,geschleudert.,die,purem,deren,unzureichenden,serviert.,Trinkwassers.,hat,liegen,Wäsche.,salziger,eine,einem,frisches,Lärm,"reichem,",sauberen,Wetter,hat,roten,Störenfriede,im,Lärm,sie,eine,Glas,noch,ziemlich,gelegentlichen,vor,zusätzlichem,roten,sie,derer,Mann,harten,monatlichem,des,einem,liegen,künftigem,täglichem,minimalem,die,den,Bundespräsident.,350,was,Skandals,serviert.,Glas,Störenfriede,feinem,des,mehr,ungefähr,geschleudert.,"frischem,",elektrischer,hätten,Trinkwasser.,auf,wurden,auf,würden,Wetters,von,Kram,noch,leider,Wäsche.,einen,seltenem,immer,war,weichem,salzige,Tiere,,,,,,,,,,,,,,,,,,,,,,,7,0,7,0,0,5,5,5,,,,,,,space,0.603881835938,,,,2017_Jan_25_1159,59.438871962,spr_backupper,001,Sa12,
,mehr,Grases,Hauptbahnhof.,Abduschen,nichts,aus,dichten,Flut,als,die,wiedergewählt.,verschrottet.,um,dass,Helmen,ml,Energie.,Soldaten,Müll.,Schmuck,nan,er,Alkohol,sie,Helmen,nan,nan,den,die,nan,Wurst,große,Esslöffel,Gras,um,goldenen,Kraftstoff,die,den,Planet,jeden.,Müll.,um,defekt,große,köstlicher,eine,"vermiest,",Besucher.,Dezember,schwarzem,Planeten,defekt,sie,mehr,Schaumstoff,Taschengeld,Herrn,Esslöffel,die,Einkommen,grünen,täglichen,Stimmung,Soldaten,nan,ml,Tupperware,wiedergewählt.,nan,köstlichen,jeden.,Kunsteis,Herrn,als,drei,nan,kaltem,Energie.,seiner,nan,jeden,verschrottet.,jeden,seiner,die,den,aus,eine,nichts,nan,Besucher.,dichten,ruhig,aus,Untergrund,Wurst,artgerecht,,,,,,,,,,,,,,,,,,,,,,,7,0,7,0,0,6,6,6,,,,,,,space,0.590609073639,,,,2017_Jan_25_1159,59.438871962,spr_backupper,001,Sa12,
,,,,,,,,,,,,,,,,,,,,,,,,,,,,,,,,,,,,,,,,,,,,,,,,,,,,,,,,,,,,,,,,,,,,,,,,,,,,,,,,,,,,,,,,,,,,,,,,,,,,,,,,,,,,,,,,,,,,,,,,,7,0,7,0,,,,,,,,,,,,,None,n,2.30735421181,2017_Jan_25_1159,59.438871962,spr_backupper,001,Sa12,
,Wir,Wir,Die,Die,Außer,Wir,Er,Als,In,In,Er,Die,Jetzt,In,Die,In,Die,Bei,Viele,Die,Es,Die,Die,Es,Die,Beträchtliche,Sie,Nicht,Am,Dort,Ich,Mit,Er,Wir,Man,Das,Wir,Sie,Nicht,Im,Außer,Viele,Man,Die,Mit,Bei,Sie,Es,Wir,Unter,Die,Im,Die,Es,Wir,Alle,Jugendliche,Die,Er,Am,Manche,Ich,Ihr,Dass,Bei,Walter,In,Die,Er,Beträchtliche,Bei,Außer,Die,Die,In,Der,Es,Sie,Die,Die,Sie,100,Die,100,Die,Sie,In,Wir,Sie,Außer,Dort,Wir,Danach,Fernab,Die,Jungtiere,Ich,In,,,,,,,,,,,,,,,,,,,,,,,8,0,8,0,0,0,0,0,,,,,,None,space,0.440673112869,,,,2017_Jan_25_1159,59.438871962,spr_backupper,001,Sa12,
,übergaben,mussten,Linie,Formen,das,haben,hat,die,meinem,der,wurde,Autos,ist,einer,Kinder,den,Schule,der,Tonnen,Stücke,wurden,Uhr,Lösung,waren,Kinder,Stücke,verbrauchen,ein,äußersten,türmen,nehme,dieser,stellt,mussten,machte,Tuch,konnten,verlassen,ein,Fernrohr,dem,Tonnen,machte,Uhr,dieser,unserer,hatte,hat,hatten,keinen,müden,Fernrohr,Uhr,waren,übergaben,Betten,können,Gäste,stellt,äußeren,Kreditnehmer,wurde,Blutdruck,es,der,Scheel,den,Teilnehmerinnen,wurde,Stücke,unserer,den,Eislaufbahnen,Gäste,meinem,Flug,wurden,haben,Schule,Schuhe,verbrauchen,g,Autos,g,Schuhe,verlassen,der,haben,hatte,dem,türmen,hatten,wurde,des,"Uhr,",sollten,nehme,diesem,,,,,,,,,,,,,,,,,,,,,,,8,0,8,0,0,1,1,1,,,,,,,space,0.458225011826,,,,2017_Jan_25_1159,59.438871962,spr_backupper,001,Sa12,
,dem,uns,101,wurden,Essen,jede,ein,Sonne,Studium,Tat,trotz,beider,genau,Studie,fuhren,Kakao,verbraucht,Feier,gebrauchte,wurden,Eimer,war,wird,nur,fuhren,saftigen,60,Tropfen,Rand,sich,eine,Methode,die,uns,mal,wurde,dann,wegen,Tropfen,sahen,Bürgermeister,gebrauchter,mal,schlug,Methode,Ankunft,keine,uns,in,Umständen,Teilnehmer,sahen,schlug,nur,das,wurden,Kleidung,suchen,die,Rand,sind,damals,kann,"regnete,",Feier,war,Kakao,wussten,trotz,saftiges,Ankunft,Bürgermeister,wurden,suchen,Studium,zum,Eimer,die,verbraucht,in,60,braunen,beider,brauner,in,wegen,Tat,jede,keine,Essen,sich,in,die,Rummels,die,immer,eine,Zirkus,,,,,,,,,,,,,,,,,,,,,,,8,0,8,0,0,2,2,2,,,,,,,space,0.478240013123,,,,2017_Jan_25_1159,59.438871962,spr_backupper,001,Sa12,
,Mann,durch,hält,unter,kann,Menge,Hemd,"unterging,",las,wissen,dem,beteiligter,die,wurde,mit,gehören,260.000,gedachte,Kleidung,aus,rote,aus,mit,kleinere,mit,Fleischs,Liter,königlichen,der,Berge,große,kann,Masse,durch,wieder,dann,mit,dem,königliches,wir,beschuldigten,Kleidung,wieder,"sporadisch,",kann,stand,Lust,die,Dänemark,können,wurden,wir,"sporadisch,",kleinere,Auto,mit,bei,die,Masse,der,mit,schnell,schon,hat,gedachte,der,gehören,überwiegend,des,Fleisch,stand,beschuldigten,mit,die,habe,Mond,roter,Erlebnisse,260.000,Größe,Liter,Zuckers,beteiligten,Zucker,Größe,des,wissen,Menge,Lust,kann,Berge,Dänemark,Leinwand,wurde,er,auf,große,werden,,,,,,,,,,,,,,,,,,,,,,,8,0,8,0,0,3,3,3,,,,,,,space,0.476011037827,,,,2017_Jan_25_1159,59.438871962,spr_backupper,001,Sa12,
,das,Büschel,nicht,"regelmäßigem,",ich,alten,aus,war,ich,wir,bekannten,Fahrer,richtige,jetzt,solchen,immer,Kilowattstunden,man,landen,"wertvollem,",Farbe,"Japan,","reichlichem,","Delikte,",solch,wurden,sprudelnden,Bluts,Stadt,schmutziger,Packung,man,mit,Büschel,viel,mit,"minimalem,",schönen,Blut,den,die,landen,viel,obschon,man,ein,auf,Stimmung,einen,Neuwahlen,mit,den,obwohl,"Delikte,",dem,"üblichem,",ausreichendem,Wohnung,mit,Stadt,"sämtlichem,",dank,bei,uns,man,vierte,immer,"nicht,",bekannten,wurden,ein,die,dauerhaftem,Wohnung,ich,dauerte,Farbe,bei,Kilowattstunden,36,sprudelndes,sind,Fahrer,sind,36,schönen,wir,alten,auf,ich,schmutzige,gelegentlich,aus,schon,"trug,",warmem,Packung,die,,,,,,,,,,,,,,,,,,,,,,,8,0,8,0,0,4,4,4,,,,,,,space,0.627275943756,,,,2017_Jan_25_1159,59.438871962,spr_backupper,001,Sa12,
,Auto,frischen,am,kaltem,leider,Krams,feinem,die,mehr,um,Skandal,wurden,"Zeit,","nachgewiesen,",unzureichenden,350,elektrische,der,im,klassischen,geschleudert.,die,purem,deren,unzureichenden,serviert.,Trinkwassers.,hat,liegen,Wäsche.,salziger,eine,einem,frisches,Lärm,"reichem,",sauberen,Wetter,hat,roten,Störenfriede,im,Lärm,sie,eine,Glas,noch,ziemlich,gelegentlichen,vor,zusätzlichem,roten,sie,derer,Mann,harten,monatlichem,des,einem,liegen,künftigem,täglichem,minimalem,die,den,Bundespräsident.,350,was,Skandals,serviert.,Glas,Störenfriede,feinem,des,mehr,ungefähr,geschleudert.,"frischem,",elektrischer,hätten,Trinkwasser.,auf,wurden,auf,würden,Wetters,von,Kram,noch,leider,Wäsche.,einen,seltenem,immer,war,weichem,salzige,Tiere,,,,,,,,,,,,,,,,,,,,,,,8,0,8,0,0,5,5,5,,,,,,,space,0.687191009521,,,,2017_Jan_25_1159,59.438871962,spr_backupper,001,Sa12,
,mehr,Grases,Hauptbahnhof.,Abduschen,nichts,aus,dichten,Flut,als,die,wiedergewählt.,verschrottet.,um,dass,Helmen,ml,Energie.,Soldaten,Müll.,Schmuck,nan,er,Alkohol,sie,Helmen,nan,nan,den,die,nan,Wurst,große,Esslöffel,Gras,um,goldenen,Kraftstoff,die,den,Planet,jeden.,Müll.,um,defekt,große,köstlicher,eine,"vermiest,",Besucher.,Dezember,schwarzem,Planeten,defekt,sie,mehr,Schaumstoff,Taschengeld,Herrn,Esslöffel,die,Einkommen,grünen,täglichen,Stimmung,Soldaten,nan,ml,Tupperware,wiedergewählt.,nan,köstlichen,jeden.,Kunsteis,Herrn,als,drei,nan,kaltem,Energie.,seiner,nan,jeden,verschrottet.,jeden,seiner,die,den,aus,eine,nichts,nan,Besucher.,dichten,ruhig,aus,Untergrund,Wurst,artgerecht,,,,,,,,,,,,,,,,,,,,,,,8,0,8,0,0,6,6,6,,,,,,,space,0.653934001923,,,,2017_Jan_25_1159,59.438871962,spr_backupper,001,Sa12,
,als,zwängen.,nan,gehärtet.,mitbringen.,dem,Stoff,zurückgekehrt.,einmal,Probleme,nan,nan,Nadelhölzer,das,zur,warme,nan,des,nan,umgearbeitet.,nan,trug.,verdünnt.,überführt,zur,nan,nan,Boden,Slums.,nan,mit,Menge,warmen,zwängen.,jede,Besatz,fahren.,Wohnung.,Boden,ganz,nan,nan,jede,war.,Menge,Wein,Sammlung,dass,nan,stattfinden.,Kaffee,ganz,war.,überführt,als,gefertigt.,selber,Gantenbein.,warmem,Slums.,haftbar.,Tee,Einsatz,ziemlich,des,nan,warmer,ist.,nan,nan,Weins,nan,eingesprüht.,Gantenbeins.,einmal,Tage.,nan,Saft,nan,Frau,nan,Fall,nan,Fall,Frau,Wohnung.,Problemen,dem,Sammlung,mitbringen.,nan,nan,Gewebe,diskutiert.,Japan.,liegen.,mit,gehalten.,,,,,,,,,,,,,,,,,,,,,,,8,0,8,0,0,7,7,7,,,,,,,space,0.627135038376,,,,2017_Jan_25_1159,59.438871962,spr_backupper,001,Sa12,
,,,,,,,,,,,,,,,,,,,,,,,,,,,,,,,,,,,,,,,,,,,,,,,,,,,,,,,,,,,,,,,,,,,,,,,,,,,,,,,,,,,,,,,,,,,,,,,,,,,,,,,,,,,,,,,,,,,,,,,,,8,0,8,0,,,,,,,,,,,,,None,n,2.9353249073,2017_Jan_25_1159,59.438871962,spr_backupper,001,Sa12,
,Wir,Wir,Die,Die,Außer,Wir,Er,Als,In,In,Er,Die,Jetzt,In,Die,In,Die,Bei,Viele,Die,Es,Die,Die,Es,Die,Beträchtliche,Sie,Nicht,Am,Dort,Ich,Mit,Er,Wir,Man,Das,Wir,Sie,Nicht,Im,Außer,Viele,Man,Die,Mit,Bei,Sie,Es,Wir,Unter,Die,Im,Die,Es,Wir,Alle,Jugendliche,Die,Er,Am,Manche,Ich,Ihr,Dass,Bei,Walter,In,Die,Er,Beträchtliche,Bei,Außer,Die,Die,In,Der,Es,Sie,Die,Die,Sie,100,Die,100,Die,Sie,In,Wir,Sie,Außer,Dort,Wir,Danach,Fernab,Die,Jungtiere,Ich,In,,,,,,,,,,,,,,,,,,,,,,,9,0,9,0,0,0,0,0,,,,,,None,space,0.44766497612,,,,2017_Jan_25_1159,59.438871962,spr_backupper,001,Sa12,
,übergaben,mussten,Linie,Formen,das,haben,hat,die,meinem,der,wurde,Autos,ist,einer,Kinder,den,Schule,der,Tonnen,Stücke,wurden,Uhr,Lösung,waren,Kinder,Stücke,verbrauchen,ein,äußersten,türmen,nehme,dieser,stellt,mussten,machte,Tuch,konnten,verlassen,ein,Fernrohr,dem,Tonnen,machte,Uhr,dieser,unserer,hatte,hat,hatten,keinen,müden,Fernrohr,Uhr,waren,übergaben,Betten,können,Gäste,stellt,äußeren,Kreditnehmer,wurde,Blutdruck,es,der,Scheel,den,Teilnehmerinnen,wurde,Stücke,unserer,den,Eislaufbahnen,Gäste,meinem,Flug,wurden,haben,Schule,Schuhe,verbrauchen,g,Autos,g,Schuhe,verlassen,der,haben,hatte,dem,türmen,hatten,wurde,des,"Uhr,",sollten,nehme,diesem,,,,,,,,,,,,,,,,,,,,,,,9,0,9,0,0,1,1,1,,,,,,,space,0.45383810997,,,,2017_Jan_25_1159,59.438871962,spr_backupper,001,Sa12,
,dem,uns,101,wurden,Essen,jede,ein,Sonne,Studium,Tat,trotz,beider,genau,Studie,fuhren,Kakao,verbraucht,Feier,gebrauchte,wurden,Eimer,war,wird,nur,fuhren,saftigen,60,Tropfen,Rand,sich,eine,Methode,die,uns,mal,wurde,dann,wegen,Tropfen,sahen,Bürgermeister,gebrauchter,mal,schlug,Methode,Ankunft,keine,uns,in,Umständen,Teilnehmer,sahen,schlug,nur,das,wurden,Kleidung,suchen,die,Rand,sind,damals,kann,"regnete,",Feier,war,Kakao,wussten,trotz,saftiges,Ankunft,Bürgermeister,wurden,suchen,Studium,zum,Eimer,die,verbraucht,in,60,braunen,beider,brauner,in,wegen,Tat,jede,keine,Essen,sich,in,die,Rummels,die,immer,eine,Zirkus,,,,,,,,,,,,,,,,,,,,,,,9,0,9,0,0,2,2,2,,,,,,,space,0.476777076721,,,,2017_Jan_25_1159,59.438871962,spr_backupper,001,Sa12,
,Mann,durch,hält,unter,kann,Menge,Hemd,"unterging,",las,wissen,dem,beteiligter,die,wurde,mit,gehören,260.000,gedachte,Kleidung,aus,rote,aus,mit,kleinere,mit,Fleischs,Liter,königlichen,der,Berge,große,kann,Masse,durch,wieder,dann,mit,dem,königliches,wir,beschuldigten,Kleidung,wieder,"sporadisch,",kann,stand,Lust,die,Dänemark,können,wurden,wir,"sporadisch,",kleinere,Auto,mit,bei,die,Masse,der,mit,schnell,schon,hat,gedachte,der,gehören,überwiegend,des,Fleisch,stand,beschuldigten,mit,die,habe,Mond,roter,Erlebnisse,260.000,Größe,Liter,Zuckers,beteiligten,Zucker,Größe,des,wissen,Menge,Lust,kann,Berge,Dänemark,Leinwand,wurde,er,auf,große,werden,,,,,,,,,,,,,,,,,,,,,,,9,0,9,0,0,3,3,3,,,,,,,space,0.503695011139,,,,2017_Jan_25_1159,59.438871962,spr_backupper,001,Sa12,
,das,Büschel,nicht,"regelmäßigem,",ich,alten,aus,war,ich,wir,bekannten,Fahrer,richtige,jetzt,solchen,immer,Kilowattstunden,man,landen,"wertvollem,",Farbe,"Japan,","reichlichem,","Delikte,",solch,wurden,sprudelnden,Bluts,Stadt,schmutziger,Packung,man,mit,Büschel,viel,mit,"minimalem,",schönen,Blut,den,die,landen,viel,obschon,man,ein,auf,Stimmung,einen,Neuwahlen,mit,den,obwohl,"Delikte,",dem,"üblichem,",ausreichendem,Wohnung,mit,Stadt,"sämtlichem,",dank,bei,uns,man,vierte,immer,"nicht,",bekannten,wurden,ein,die,dauerhaftem,Wohnung,ich,dauerte,Farbe,bei,Kilowattstunden,36,sprudelndes,sind,Fahrer,sind,36,schönen,wir,alten,auf,ich,schmutzige,gelegentlich,aus,schon,"trug,",warmem,Packung,die,,,,,,,,,,,,,,,,,,,,,,,9,0,9,0,0,4,4,4,,,,,,,space,0.689078092575,,,,2017_Jan_25_1159,59.438871962,spr_backupper,001,Sa12,
,Auto,frischen,am,kaltem,leider,Krams,feinem,die,mehr,um,Skandal,wurden,"Zeit,","nachgewiesen,",unzureichenden,350,elektrische,der,im,klassischen,geschleudert.,die,purem,deren,unzureichenden,serviert.,Trinkwassers.,hat,liegen,Wäsche.,salziger,eine,einem,frisches,Lärm,"reichem,",sauberen,Wetter,hat,roten,Störenfriede,im,Lärm,sie,eine,Glas,noch,ziemlich,gelegentlichen,vor,zusätzlichem,roten,sie,derer,Mann,harten,monatlichem,des,einem,liegen,künftigem,täglichem,minimalem,die,den,Bundespräsident.,350,was,Skandals,serviert.,Glas,Störenfriede,feinem,des,mehr,ungefähr,geschleudert.,"frischem,",elektrischer,hätten,Trinkwasser.,auf,wurden,auf,würden,Wetters,von,Kram,noch,leider,Wäsche.,einen,seltenem,immer,war,weichem,salzige,Tiere,,,,,,,,,,,,,,,,,,,,,,,9,0,9,0,0,5,5,5,,,,,,,space,0.944495916367,,,,2017_Jan_25_1159,59.438871962,spr_backupper,001,Sa12,
,mehr,Grases,Hauptbahnhof.,Abduschen,nichts,aus,dichten,Flut,als,die,wiedergewählt.,verschrottet.,um,dass,Helmen,ml,Energie.,Soldaten,Müll.,Schmuck,nan,er,Alkohol,sie,Helmen,nan,nan,den,die,nan,Wurst,große,Esslöffel,Gras,um,goldenen,Kraftstoff,die,den,Planet,jeden.,Müll.,um,defekt,große,köstlicher,eine,"vermiest,",Besucher.,Dezember,schwarzem,Planeten,defekt,sie,mehr,Schaumstoff,Taschengeld,Herrn,Esslöffel,die,Einkommen,grünen,täglichen,Stimmung,Soldaten,nan,ml,Tupperware,wiedergewählt.,nan,köstlichen,jeden.,Kunsteis,Herrn,als,drei,nan,kaltem,Energie.,seiner,nan,jeden,verschrottet.,jeden,seiner,die,den,aus,eine,nichts,nan,Besucher.,dichten,ruhig,aus,Untergrund,Wurst,artgerecht,,,,,,,,,,,,,,,,,,,,,,,9,0,9,0,0,6,6,6,,,,,,,space,0.956670045853,,,,2017_Jan_25_1159,59.438871962,spr_backupper,001,Sa12,
,als,zwängen.,nan,gehärtet.,mitbringen.,dem,Stoff,zurückgekehrt.,einmal,Probleme,nan,nan,Nadelhölzer,das,zur,warme,nan,des,nan,umgearbeitet.,nan,trug.,verdünnt.,überführt,zur,nan,nan,Boden,Slums.,nan,mit,Menge,warmen,zwängen.,jede,Besatz,fahren.,Wohnung.,Boden,ganz,nan,nan,jede,war.,Menge,Wein,Sammlung,dass,nan,stattfinden.,Kaffee,ganz,war.,überführt,als,gefertigt.,selber,Gantenbein.,warmem,Slums.,haftbar.,Tee,Einsatz,ziemlich,des,nan,warmer,ist.,nan,nan,Weins,nan,eingesprüht.,Gantenbeins.,einmal,Tage.,nan,Saft,nan,Frau,nan,Fall,nan,Fall,Frau,Wohnung.,Problemen,dem,Sammlung,mitbringen.,nan,nan,Gewebe,diskutiert.,Japan.,liegen.,mit,gehalten.,,,,,,,,,,,,,,,,,,,,,,,9,0,9,0,0,7,7,7,,,,,,,space,0.888764858246,,,,2017_Jan_25_1159,59.438871962,spr_backupper,001,Sa12,
,gerne.,nan,nan,nan,nan,Haus,gefertigt.,nan,Rilke.,im,nan,nan,umzusetzen.,Medikament,Schule.,Milch.,nan,zweiten,nan,nan,nan,nan,nan,wurden.,Schule.,nan,nan,berührt.,nan,nan,an,dunkle,Honigs,nan,Menge,rekonstruiert.,nan,nan,berührt.,deutlich.,nan,nan,Menge,nan,dunkler,schon,dummer,es,nan,nan,wiederbelebt.,deutlich.,nan,wurden.,gerne.,nan,kaufen.,nan,Honig,nan,nan,wieder,sinken.,vermiest.,zweiten,nan,Milch.,nan,nan,nan,schon,nan,nan,nan,Rilke,nan,nan,besprochen.,nan,gepasst.,nan,genug.,nan,genug.,gepasst,nan,im,Haus,dumme,nan,nan,nan,wiederhergestellt.,nan,nan,nan,an,nan,,,,,,,,,,,,,,,,,,,,,,,9,0,9,0,0,8,8,8,,,,,,,space,0.688220977783,,,,2017_Jan_25_1159,59.438871962,spr_backupper,001,Sa12,
,,,,,,,,,,,,,,,,,,,,,,,,,,,,,,,,,,,,,,,,,,,,,,,,,,,,,,,,,,,,,,,,,,,,,,,,,,,,,,,,,,,,,,,,,,,,,,,,,,,,,,,,,,,,,,,,,,,,,,,,,9,0,9,0,,,,,,,,,,,,,None,n,3.89476203918,2017_Jan_25_1159,59.438871962,spr_backupper,001,Sa12,
,Wir,Wir,Die,Die,Außer,Wir,Er,Als,In,In,Er,Die,Jetzt,In,Die,In,Die,Bei,Viele,Die,Es,Die,Die,Es,Die,Beträchtliche,Sie,Nicht,Am,Dort,Ich,Mit,Er,Wir,Man,Das,Wir,Sie,Nicht,Im,Außer,Viele,Man,Die,Mit,Bei,Sie,Es,Wir,Unter,Die,Im,Die,Es,Wir,Alle,Jugendliche,Die,Er,Am,Manche,Ich,Ihr,Dass,Bei,Walter,In,Die,Er,Beträchtliche,Bei,Außer,Die,Die,In,Der,Es,Sie,Die,Die,Sie,100,Die,100,Die,Sie,In,Wir,Sie,Außer,Dort,Wir,Danach,Fernab,Die,Jungtiere,Ich,In,,,,,,,,,,,,,,,,,,,,,,,10,0,10,0,0,0,0,0,,,,,,None,space,2.15259981155,,,,2017_Jan_25_1159,59.438871962,spr_backupper,001,Sa12,
,übergaben,mussten,Linie,Formen,das,haben,hat,die,meinem,der,wurde,Autos,ist,einer,Kinder,den,Schule,der,Tonnen,Stücke,wurden,Uhr,Lösung,waren,Kinder,Stücke,verbrauchen,ein,äußersten,türmen,nehme,dieser,stellt,mussten,machte,Tuch,konnten,verlassen,ein,Fernrohr,dem,Tonnen,machte,Uhr,dieser,unserer,hatte,hat,hatten,keinen,müden,Fernrohr,Uhr,waren,übergaben,Betten,können,Gäste,stellt,äußeren,Kreditnehmer,wurde,Blutdruck,es,der,Scheel,den,Teilnehmerinnen,wurde,Stücke,unserer,den,Eislaufbahnen,Gäste,meinem,Flug,wurden,haben,Schule,Schuhe,verbrauchen,g,Autos,g,Schuhe,verlassen,der,haben,hatte,dem,türmen,hatten,wurde,des,"Uhr,",sollten,nehme,diesem,,,,,,,,,,,,,,,,,,,,,,,10,0,10,0,0,1,1,1,,,,,,,space,0.669450998306,,,,2017_Jan_25_1159,59.438871962,spr_backupper,001,Sa12,
,dem,uns,101,wurden,Essen,jede,ein,Sonne,Studium,Tat,trotz,beider,genau,Studie,fuhren,Kakao,verbraucht,Feier,gebrauchte,wurden,Eimer,war,wird,nur,fuhren,saftigen,60,Tropfen,Rand,sich,eine,Methode,die,uns,mal,wurde,dann,wegen,Tropfen,sahen,Bürgermeister,gebrauchter,mal,schlug,Methode,Ankunft,keine,uns,in,Umständen,Teilnehmer,sahen,schlug,nur,das,wurden,Kleidung,suchen,die,Rand,sind,damals,kann,"regnete,",Feier,war,Kakao,wussten,trotz,saftiges,Ankunft,Bürgermeister,wurden,suchen,Studium,zum,Eimer,die,verbraucht,in,60,braunen,beider,brauner,in,wegen,Tat,jede,keine,Essen,sich,in,die,Rummels,die,immer,eine,Zirkus,,,,,,,,,,,,,,,,,,,,,,,10,0,10,0,0,2,2,2,,,,,,,space,0.554351091385,,,,2017_Jan_25_1159,59.438871962,spr_backupper,001,Sa12,
,Mann,durch,hält,unter,kann,Menge,Hemd,"unterging,",las,wissen,dem,beteiligter,die,wurde,mit,gehören,260.000,gedachte,Kleidung,aus,rote,aus,mit,kleinere,mit,Fleischs,Liter,königlichen,der,Berge,große,kann,Masse,durch,wieder,dann,mit,dem,königliches,wir,beschuldigten,Kleidung,wieder,"sporadisch,",kann,stand,Lust,die,Dänemark,können,wurden,wir,"sporadisch,",kleinere,Auto,mit,bei,die,Masse,der,mit,schnell,schon,hat,gedachte,der,gehören,überwiegend,des,Fleisch,stand,beschuldigten,mit,die,habe,Mond,roter,Erlebnisse,260.000,Größe,Liter,Zuckers,beteiligten,Zucker,Größe,des,wissen,Menge,Lust,kann,Berge,Dänemark,Leinwand,wurde,er,auf,große,werden,,,,,,,,,,,,,,,,,,,,,,,10,0,10,0,0,3,3,3,,,,,,,space,0.629904985428,,,,2017_Jan_25_1159,59.438871962,spr_backupper,001,Sa12,
,das,Büschel,nicht,"regelmäßigem,",ich,alten,aus,war,ich,wir,bekannten,Fahrer,richtige,jetzt,solchen,immer,Kilowattstunden,man,landen,"wertvollem,",Farbe,"Japan,","reichlichem,","Delikte,",solch,wurden,sprudelnden,Bluts,Stadt,schmutziger,Packung,man,mit,Büschel,viel,mit,"minimalem,",schönen,Blut,den,die,landen,viel,obschon,man,ein,auf,Stimmung,einen,Neuwahlen,mit,den,obwohl,"Delikte,",dem,"üblichem,",ausreichendem,Wohnung,mit,Stadt,"sämtlichem,",dank,bei,uns,man,vierte,immer,"nicht,",bekannten,wurden,ein,die,dauerhaftem,Wohnung,ich,dauerte,Farbe,bei,Kilowattstunden,36,sprudelndes,sind,Fahrer,sind,36,schönen,wir,alten,auf,ich,schmutzige,gelegentlich,aus,schon,"trug,",warmem,Packung,die,,,,,,,,,,,,,,,,,,,,,,,10,0,10,0,0,4,4,4,,,,,,,space,0.617156028748,,,,2017_Jan_25_1159,59.438871962,spr_backupper,001,Sa12,
,Auto,frischen,am,kaltem,leider,Krams,feinem,die,mehr,um,Skandal,wurden,"Zeit,","nachgewiesen,",unzureichenden,350,elektrische,der,im,klassischen,geschleudert.,die,purem,deren,unzureichenden,serviert.,Trinkwassers.,hat,liegen,Wäsche.,salziger,eine,einem,frisches,Lärm,"reichem,",sauberen,Wetter,hat,roten,Störenfriede,im,Lärm,sie,eine,Glas,noch,ziemlich,gelegentlichen,vor,zusätzlichem,roten,sie,derer,Mann,harten,monatlichem,des,einem,liegen,künftigem,täglichem,minimalem,die,den,Bundespräsident.,350,was,Skandals,serviert.,Glas,Störenfriede,feinem,des,mehr,ungefähr,geschleudert.,"frischem,",elektrischer,hätten,Trinkwasser.,auf,wurden,auf,würden,Wetters,von,Kram,noch,leider,Wäsche.,einen,seltenem,immer,war,weichem,salzige,Tiere,,,,,,,,,,,,,,,,,,,,,,,10,0,10,0,0,5,5,5,,,,,,,space,0.610218048096,,,,2017_Jan_25_1159,59.438871962,spr_backupper,001,Sa12,
,mehr,Grases,Hauptbahnhof.,Abduschen,nichts,aus,dichten,Flut,als,die,wiedergewählt.,verschrottet.,um,dass,Helmen,ml,Energie.,Soldaten,Müll.,Schmuck,nan,er,Alkohol,sie,Helmen,nan,nan,den,die,nan,Wurst,große,Esslöffel,Gras,um,goldenen,Kraftstoff,die,den,Planet,jeden.,Müll.,um,defekt,große,köstlicher,eine,"vermiest,",Besucher.,Dezember,schwarzem,Planeten,defekt,sie,mehr,Schaumstoff,Taschengeld,Herrn,Esslöffel,die,Einkommen,grünen,täglichen,Stimmung,Soldaten,nan,ml,Tupperware,wiedergewählt.,nan,köstlichen,jeden.,Kunsteis,Herrn,als,drei,nan,kaltem,Energie.,seiner,nan,jeden,verschrottet.,jeden,seiner,die,den,aus,eine,nichts,nan,Besucher.,dichten,ruhig,aus,Untergrund,Wurst,artgerecht,,,,,,,,,,,,,,,,,,,,,,,10,0,10,0,0,6,6,6,,,,,,,space,0.574595928192,,,,2017_Jan_25_1159,59.438871962,spr_backupper,001,Sa12,
,als,zwängen.,nan,gehärtet.,mitbringen.,dem,Stoff,zurückgekehrt.,einmal,Probleme,nan,nan,Nadelhölzer,das,zur,warme,nan,des,nan,umgearbeitet.,nan,trug.,verdünnt.,überführt,zur,nan,nan,Boden,Slums.,nan,mit,Menge,warmen,zwängen.,jede,Besatz,fahren.,Wohnung.,Boden,ganz,nan,nan,jede,war.,Menge,Wein,Sammlung,dass,nan,stattfinden.,Kaffee,ganz,war.,überführt,als,gefertigt.,selber,Gantenbein.,warmem,Slums.,haftbar.,Tee,Einsatz,ziemlich,des,nan,warmer,ist.,nan,nan,Weins,nan,eingesprüht.,Gantenbeins.,einmal,Tage.,nan,Saft,nan,Frau,nan,Fall,nan,Fall,Frau,Wohnung.,Problemen,dem,Sammlung,mitbringen.,nan,nan,Gewebe,diskutiert.,Japan.,liegen.,mit,gehalten.,,,,,,,,,,,,,,,,,,,,,,,10,0,10,0,0,7,7,7,,,,,,,space,0.520789146423,,,,2017_Jan_25_1159,59.438871962,spr_backupper,001,Sa12,
,,,,,,,,,,,,,,,,,,,,,,,,,,,,,,,,,,,,,,,,,,,,,,,,,,,,,,,,,,,,,,,,,,,,,,,,,,,,,,,,,,,,,,,,,,,,,,,,,,,,,,,,,,,,,,,,,,,,,,,,,10,0,10,0,,,,,,,,,,,,,None,j,2.5954310894,2017_Jan_25_1159,59.438871962,spr_backupper,001,Sa12,
,Wir,Wir,Die,Die,Außer,Wir,Er,Als,In,In,Er,Die,Jetzt,In,Die,In,Die,Bei,Viele,Die,Es,Die,Die,Es,Die,Beträchtliche,Sie,Nicht,Am,Dort,Ich,Mit,Er,Wir,Man,Das,Wir,Sie,Nicht,Im,Außer,Viele,Man,Die,Mit,Bei,Sie,Es,Wir,Unter,Die,Im,Die,Es,Wir,Alle,Jugendliche,Die,Er,Am,Manche,Ich,Ihr,Dass,Bei,Walter,In,Die,Er,Beträchtliche,Bei,Außer,Die,Die,In,Der,Es,Sie,Die,Die,Sie,100,Die,100,Die,Sie,In,Wir,Sie,Außer,Dort,Wir,Danach,Fernab,Die,Jungtiere,Ich,In,,,,,,,,,,,,,,,,,,,,,,,11,0,11,0,0,0,0,0,,,,,,None,space,0.533376932144,,,,2017_Jan_25_1159,59.438871962,spr_backupper,001,Sa12,
,übergaben,mussten,Linie,Formen,das,haben,hat,die,meinem,der,wurde,Autos,ist,einer,Kinder,den,Schule,der,Tonnen,Stücke,wurden,Uhr,Lösung,waren,Kinder,Stücke,verbrauchen,ein,äußersten,türmen,nehme,dieser,stellt,mussten,machte,Tuch,konnten,verlassen,ein,Fernrohr,dem,Tonnen,machte,Uhr,dieser,unserer,hatte,hat,hatten,keinen,müden,Fernrohr,Uhr,waren,übergaben,Betten,können,Gäste,stellt,äußeren,Kreditnehmer,wurde,Blutdruck,es,der,Scheel,den,Teilnehmerinnen,wurde,Stücke,unserer,den,Eislaufbahnen,Gäste,meinem,Flug,wurden,haben,Schule,Schuhe,verbrauchen,g,Autos,g,Schuhe,verlassen,der,haben,hatte,dem,türmen,hatten,wurde,des,"Uhr,",sollten,nehme,diesem,,,,,,,,,,,,,,,,,,,,,,,11,0,11,0,0,1,1,1,,,,,,,space,0.470008850098,,,,2017_Jan_25_1159,59.438871962,spr_backupper,001,Sa12,
,dem,uns,101,wurden,Essen,jede,ein,Sonne,Studium,Tat,trotz,beider,genau,Studie,fuhren,Kakao,verbraucht,Feier,gebrauchte,wurden,Eimer,war,wird,nur,fuhren,saftigen,60,Tropfen,Rand,sich,eine,Methode,die,uns,mal,wurde,dann,wegen,Tropfen,sahen,Bürgermeister,gebrauchter,mal,schlug,Methode,Ankunft,keine,uns,in,Umständen,Teilnehmer,sahen,schlug,nur,das,wurden,Kleidung,suchen,die,Rand,sind,damals,kann,"regnete,",Feier,war,Kakao,wussten,trotz,saftiges,Ankunft,Bürgermeister,wurden,suchen,Studium,zum,Eimer,die,verbraucht,in,60,braunen,beider,brauner,in,wegen,Tat,jede,keine,Essen,sich,in,die,Rummels,die,immer,eine,Zirkus,,,,,,,,,,,,,,,,,,,,,,,11,0,11,0,0,2,2,2,,,,,,,space,0.436799049377,,,,2017_Jan_25_1159,59.438871962,spr_backupper,001,Sa12,
,Mann,durch,hält,unter,kann,Menge,Hemd,"unterging,",las,wissen,dem,beteiligter,die,wurde,mit,gehören,260.000,gedachte,Kleidung,aus,rote,aus,mit,kleinere,mit,Fleischs,Liter,königlichen,der,Berge,große,kann,Masse,durch,wieder,dann,mit,dem,königliches,wir,beschuldigten,Kleidung,wieder,"sporadisch,",kann,stand,Lust,die,Dänemark,können,wurden,wir,"sporadisch,",kleinere,Auto,mit,bei,die,Masse,der,mit,schnell,schon,hat,gedachte,der,gehören,überwiegend,des,Fleisch,stand,beschuldigten,mit,die,habe,Mond,roter,Erlebnisse,260.000,Größe,Liter,Zuckers,beteiligten,Zucker,Größe,des,wissen,Menge,Lust,kann,Berge,Dänemark,Leinwand,wurde,er,auf,große,werden,,,,,,,,,,,,,,,,,,,,,,,11,0,11,0,0,3,3,3,,,,,,,space,0.477545022964,,,,2017_Jan_25_1159,59.438871962,spr_backupper,001,Sa12,
,das,Büschel,nicht,"regelmäßigem,",ich,alten,aus,war,ich,wir,bekannten,Fahrer,richtige,jetzt,solchen,immer,Kilowattstunden,man,landen,"wertvollem,",Farbe,"Japan,","reichlichem,","Delikte,",solch,wurden,sprudelnden,Bluts,Stadt,schmutziger,Packung,man,mit,Büschel,viel,mit,"minimalem,",schönen,Blut,den,die,landen,viel,obschon,man,ein,auf,Stimmung,einen,Neuwahlen,mit,den,obwohl,"Delikte,",dem,"üblichem,",ausreichendem,Wohnung,mit,Stadt,"sämtlichem,",dank,bei,uns,man,vierte,immer,"nicht,",bekannten,wurden,ein,die,dauerhaftem,Wohnung,ich,dauerte,Farbe,bei,Kilowattstunden,36,sprudelndes,sind,Fahrer,sind,36,schönen,wir,alten,auf,ich,schmutzige,gelegentlich,aus,schon,"trug,",warmem,Packung,die,,,,,,,,,,,,,,,,,,,,,,,11,0,11,0,0,4,4,4,,,,,,,space,0.526079893112,,,,2017_Jan_25_1159,59.438871962,spr_backupper,001,Sa12,
,Auto,frischen,am,kaltem,leider,Krams,feinem,die,mehr,um,Skandal,wurden,"Zeit,","nachgewiesen,",unzureichenden,350,elektrische,der,im,klassischen,geschleudert.,die,purem,deren,unzureichenden,serviert.,Trinkwassers.,hat,liegen,Wäsche.,salziger,eine,einem,frisches,Lärm,"reichem,",sauberen,Wetter,hat,roten,Störenfriede,im,Lärm,sie,eine,Glas,noch,ziemlich,gelegentlichen,vor,zusätzlichem,roten,sie,derer,Mann,harten,monatlichem,des,einem,liegen,künftigem,täglichem,minimalem,die,den,Bundespräsident.,350,was,Skandals,serviert.,Glas,Störenfriede,feinem,des,mehr,ungefähr,geschleudert.,"frischem,",elektrischer,hätten,Trinkwasser.,auf,wurden,auf,würden,Wetters,von,Kram,noch,leider,Wäsche.,einen,seltenem,immer,war,weichem,salzige,Tiere,,,,,,,,,,,,,,,,,,,,,,,11,0,11,0,0,5,5,5,,,,,,,space,0.967844963074,,,,2017_Jan_25_1159,59.438871962,spr_backupper,001,Sa12,
,mehr,Grases,Hauptbahnhof.,Abduschen,nichts,aus,dichten,Flut,als,die,wiedergewählt.,verschrottet.,um,dass,Helmen,ml,Energie.,Soldaten,Müll.,Schmuck,nan,er,Alkohol,sie,Helmen,nan,nan,den,die,nan,Wurst,große,Esslöffel,Gras,um,goldenen,Kraftstoff,die,den,Planet,jeden.,Müll.,um,defekt,große,köstlicher,eine,"vermiest,",Besucher.,Dezember,schwarzem,Planeten,defekt,sie,mehr,Schaumstoff,Taschengeld,Herrn,Esslöffel,die,Einkommen,grünen,täglichen,Stimmung,Soldaten,nan,ml,Tupperware,wiedergewählt.,nan,köstlichen,jeden.,Kunsteis,Herrn,als,drei,nan,kaltem,Energie.,seiner,nan,jeden,verschrottet.,jeden,seiner,die,den,aus,eine,nichts,nan,Besucher.,dichten,ruhig,aus,Untergrund,Wurst,artgerecht,,,,,,,,,,,,,,,,,,,,,,,11,0,11,0,0,6,6,6,,,,,,,space,0.672549009323,,,,2017_Jan_25_1159,59.438871962,spr_backupper,001,Sa12,
,als,zwängen.,nan,gehärtet.,mitbringen.,dem,Stoff,zurückgekehrt.,einmal,Probleme,nan,nan,Nadelhölzer,das,zur,warme,nan,des,nan,umgearbeitet.,nan,trug.,verdünnt.,überführt,zur,nan,nan,Boden,Slums.,nan,mit,Menge,warmen,zwängen.,jede,Besatz,fahren.,Wohnung.,Boden,ganz,nan,nan,jede,war.,Menge,Wein,Sammlung,dass,nan,stattfinden.,Kaffee,ganz,war.,überführt,als,gefertigt.,selber,Gantenbein.,warmem,Slums.,haftbar.,Tee,Einsatz,ziemlich,des,nan,warmer,ist.,nan,nan,Weins,nan,eingesprüht.,Gantenbeins.,einmal,Tage.,nan,Saft,nan,Frau,nan,Fall,nan,Fall,Frau,Wohnung.,Problemen,dem,Sammlung,mitbringen.,nan,nan,Gewebe,diskutiert.,Japan.,liegen.,mit,gehalten.,,,,,,,,,,,,,,,,,,,,,,,11,0,11,0,0,7,7,7,,,,,,,space,0.579122066498,,,,2017_Jan_25_1159,59.438871962,spr_backupper,001,Sa12,
,,,,,,,,,,,,,,,,,,,,,,,,,,,,,,,,,,,,,,,,,,,,,,,,,,,,,,,,,,,,,,,,,,,,,,,,,,,,,,,,,,,,,,,,,,,,,,,,,,,,,,,,,,,,,,,,,,,,,,,,,11,0,11,0,,,,,,,,,,,,,None,n,3.43790006638,2017_Jan_25_1159,59.438871962,spr_backupper,001,Sa12,
,Wir,Wir,Die,Die,Außer,Wir,Er,Als,In,In,Er,Die,Jetzt,In,Die,In,Die,Bei,Viele,Die,Es,Die,Die,Es,Die,Beträchtliche,Sie,Nicht,Am,Dort,Ich,Mit,Er,Wir,Man,Das,Wir,Sie,Nicht,Im,Außer,Viele,Man,Die,Mit,Bei,Sie,Es,Wir,Unter,Die,Im,Die,Es,Wir,Alle,Jugendliche,Die,Er,Am,Manche,Ich,Ihr,Dass,Bei,Walter,In,Die,Er,Beträchtliche,Bei,Außer,Die,Die,In,Der,Es,Sie,Die,Die,Sie,100,Die,100,Die,Sie,In,Wir,Sie,Außer,Dort,Wir,Danach,Fernab,Die,Jungtiere,Ich,In,,,,,,,,,,,,,,,,,,,,,,,12,0,12,0,0,0,0,0,,,,,,None,space,0.459645032883,,,,2017_Jan_25_1159,59.438871962,spr_backupper,001,Sa12,
,übergaben,mussten,Linie,Formen,das,haben,hat,die,meinem,der,wurde,Autos,ist,einer,Kinder,den,Schule,der,Tonnen,Stücke,wurden,Uhr,Lösung,waren,Kinder,Stücke,verbrauchen,ein,äußersten,türmen,nehme,dieser,stellt,mussten,machte,Tuch,konnten,verlassen,ein,Fernrohr,dem,Tonnen,machte,Uhr,dieser,unserer,hatte,hat,hatten,keinen,müden,Fernrohr,Uhr,waren,übergaben,Betten,können,Gäste,stellt,äußeren,Kreditnehmer,wurde,Blutdruck,es,der,Scheel,den,Teilnehmerinnen,wurde,Stücke,unserer,den,Eislaufbahnen,Gäste,meinem,Flug,wurden,haben,Schule,Schuhe,verbrauchen,g,Autos,g,Schuhe,verlassen,der,haben,hatte,dem,türmen,hatten,wurde,des,"Uhr,",sollten,nehme,diesem,,,,,,,,,,,,,,,,,,,,,,,12,0,12,0,0,1,1,1,,,,,,,space,0.440097093582,,,,2017_Jan_25_1159,59.438871962,spr_backupper,001,Sa12,
,dem,uns,101,wurden,Essen,jede,ein,Sonne,Studium,Tat,trotz,beider,genau,Studie,fuhren,Kakao,verbraucht,Feier,gebrauchte,wurden,Eimer,war,wird,nur,fuhren,saftigen,60,Tropfen,Rand,sich,eine,Methode,die,uns,mal,wurde,dann,wegen,Tropfen,sahen,Bürgermeister,gebrauchter,mal,schlug,Methode,Ankunft,keine,uns,in,Umständen,Teilnehmer,sahen,schlug,nur,das,wurden,Kleidung,suchen,die,Rand,sind,damals,kann,"regnete,",Feier,war,Kakao,wussten,trotz,saftiges,Ankunft,Bürgermeister,wurden,suchen,Studium,zum,Eimer,die,verbraucht,in,60,braunen,beider,brauner,in,wegen,Tat,jede,keine,Essen,sich,in,die,Rummels,die,immer,eine,Zirkus,,,,,,,,,,,,,,,,,,,,,,,12,0,12,0,0,2,2,2,,,,,,,space,0.436251878738,,,,2017_Jan_25_1159,59.438871962,spr_backupper,001,Sa12,
,Mann,durch,hält,unter,kann,Menge,Hemd,"unterging,",las,wissen,dem,beteiligter,die,wurde,mit,gehören,260.000,gedachte,Kleidung,aus,rote,aus,mit,kleinere,mit,Fleischs,Liter,königlichen,der,Berge,große,kann,Masse,durch,wieder,dann,mit,dem,königliches,wir,beschuldigten,Kleidung,wieder,"sporadisch,",kann,stand,Lust,die,Dänemark,können,wurden,wir,"sporadisch,",kleinere,Auto,mit,bei,die,Masse,der,mit,schnell,schon,hat,gedachte,der,gehören,überwiegend,des,Fleisch,stand,beschuldigten,mit,die,habe,Mond,roter,Erlebnisse,260.000,Größe,Liter,Zuckers,beteiligten,Zucker,Größe,des,wissen,Menge,Lust,kann,Berge,Dänemark,Leinwand,wurde,er,auf,große,werden,,,,,,,,,,,,,,,,,,,,,,,12,0,12,0,0,3,3,3,,,,,,,space,0.53769493103,,,,2017_Jan_25_1159,59.438871962,spr_backupper,001,Sa12,
,das,Büschel,nicht,"regelmäßigem,",ich,alten,aus,war,ich,wir,bekannten,Fahrer,richtige,jetzt,solchen,immer,Kilowattstunden,man,landen,"wertvollem,",Farbe,"Japan,","reichlichem,","Delikte,",solch,wurden,sprudelnden,Bluts,Stadt,schmutziger,Packung,man,mit,Büschel,viel,mit,"minimalem,",schönen,Blut,den,die,landen,viel,obschon,man,ein,auf,Stimmung,einen,Neuwahlen,mit,den,obwohl,"Delikte,",dem,"üblichem,",ausreichendem,Wohnung,mit,Stadt,"sämtlichem,",dank,bei,uns,man,vierte,immer,"nicht,",bekannten,wurden,ein,die,dauerhaftem,Wohnung,ich,dauerte,Farbe,bei,Kilowattstunden,36,sprudelndes,sind,Fahrer,sind,36,schönen,wir,alten,auf,ich,schmutzige,gelegentlich,aus,schon,"trug,",warmem,Packung,die,,,,,,,,,,,,,,,,,,,,,,,12,0,12,0,0,4,4,4,,,,,,,space,0.850106954575,,,,2017_Jan_25_1159,59.438871962,spr_backupper,001,Sa12,
,Auto,frischen,am,kaltem,leider,Krams,feinem,die,mehr,um,Skandal,wurden,"Zeit,","nachgewiesen,",unzureichenden,350,elektrische,der,im,klassischen,geschleudert.,die,purem,deren,unzureichenden,serviert.,Trinkwassers.,hat,liegen,Wäsche.,salziger,eine,einem,frisches,Lärm,"reichem,",sauberen,Wetter,hat,roten,Störenfriede,im,Lärm,sie,eine,Glas,noch,ziemlich,gelegentlichen,vor,zusätzlichem,roten,sie,derer,Mann,harten,monatlichem,des,einem,liegen,künftigem,täglichem,minimalem,die,den,Bundespräsident.,350,was,Skandals,serviert.,Glas,Störenfriede,feinem,des,mehr,ungefähr,geschleudert.,"frischem,",elektrischer,hätten,Trinkwasser.,auf,wurden,auf,würden,Wetters,von,Kram,noch,leider,Wäsche.,einen,seltenem,immer,war,weichem,salzige,Tiere,,,,,,,,,,,,,,,,,,,,,,,12,0,12,0,0,5,5,5,,,,,,,space,0.541590929031,,,,2017_Jan_25_1159,59.438871962,spr_backupper,001,Sa12,
,,,,,,,,,,,,,,,,,,,,,,,,,,,,,,,,,,,,,,,,,,,,,,,,,,,,,,,,,,,,,,,,,,,,,,,,,,,,,,,,,,,,,,,,,,,,,,,,,,,,,,,,,,,,,,,,,,,,,,,,,12,0,12,0,,,,,,,,,,,,,None,n,1.94647192955,2017_Jan_25_1159,59.438871962,spr_backupper,001,Sa12,
,Wir,Wir,Die,Die,Außer,Wir,Er,Als,In,In,Er,Die,Jetzt,In,Die,In,Die,Bei,Viele,Die,Es,Die,Die,Es,Die,Beträchtliche,Sie,Nicht,Am,Dort,Ich,Mit,Er,Wir,Man,Das,Wir,Sie,Nicht,Im,Außer,Viele,Man,Die,Mit,Bei,Sie,Es,Wir,Unter,Die,Im,Die,Es,Wir,Alle,Jugendliche,Die,Er,Am,Manche,Ich,Ihr,Dass,Bei,Walter,In,Die,Er,Beträchtliche,Bei,Außer,Die,Die,In,Der,Es,Sie,Die,Die,Sie,100,Die,100,Die,Sie,In,Wir,Sie,Außer,Dort,Wir,Danach,Fernab,Die,Jungtiere,Ich,In,,,,,,,,,,,,,,,,,,,,,,,13,0,13,0,0,0,0,0,,,,,,None,space,0.598485946655,,,,2017_Jan_25_1159,59.438871962,spr_backupper,001,Sa12,
,übergaben,mussten,Linie,Formen,das,haben,hat,die,meinem,der,wurde,Autos,ist,einer,Kinder,den,Schule,der,Tonnen,Stücke,wurden,Uhr,Lösung,waren,Kinder,Stücke,verbrauchen,ein,äußersten,türmen,nehme,dieser,stellt,mussten,machte,Tuch,konnten,verlassen,ein,Fernrohr,dem,Tonnen,machte,Uhr,dieser,unserer,hatte,hat,hatten,keinen,müden,Fernrohr,Uhr,waren,übergaben,Betten,können,Gäste,stellt,äußeren,Kreditnehmer,wurde,Blutdruck,es,der,Scheel,den,Teilnehmerinnen,wurde,Stücke,unserer,den,Eislaufbahnen,Gäste,meinem,Flug,wurden,haben,Schule,Schuhe,verbrauchen,g,Autos,g,Schuhe,verlassen,der,haben,hatte,dem,türmen,hatten,wurde,des,"Uhr,",sollten,nehme,diesem,,,,,,,,,,,,,,,,,,,,,,,13,0,13,0,0,1,1,1,,,,,,,space,0.427668094635,,,,2017_Jan_25_1159,59.438871962,spr_backupper,001,Sa12,
,dem,uns,101,wurden,Essen,jede,ein,Sonne,Studium,Tat,trotz,beider,genau,Studie,fuhren,Kakao,verbraucht,Feier,gebrauchte,wurden,Eimer,war,wird,nur,fuhren,saftigen,60,Tropfen,Rand,sich,eine,Methode,die,uns,mal,wurde,dann,wegen,Tropfen,sahen,Bürgermeister,gebrauchter,mal,schlug,Methode,Ankunft,keine,uns,in,Umständen,Teilnehmer,sahen,schlug,nur,das,wurden,Kleidung,suchen,die,Rand,sind,damals,kann,"regnete,",Feier,war,Kakao,wussten,trotz,saftiges,Ankunft,Bürgermeister,wurden,suchen,Studium,zum,Eimer,die,verbraucht,in,60,braunen,beider,brauner,in,wegen,Tat,jede,keine,Essen,sich,in,die,Rummels,die,immer,eine,Zirkus,,,,,,,,,,,,,,,,,,,,,,,13,0,13,0,0,2,2,2,,,,,,,space,0.531365871429,,,,2017_Jan_25_1159,59.438871962,spr_backupper,001,Sa12,
,Mann,durch,hält,unter,kann,Menge,Hemd,"unterging,",las,wissen,dem,beteiligter,die,wurde,mit,gehören,260.000,gedachte,Kleidung,aus,rote,aus,mit,kleinere,mit,Fleischs,Liter,königlichen,der,Berge,große,kann,Masse,durch,wieder,dann,mit,dem,königliches,wir,beschuldigten,Kleidung,wieder,"sporadisch,",kann,stand,Lust,die,Dänemark,können,wurden,wir,"sporadisch,",kleinere,Auto,mit,bei,die,Masse,der,mit,schnell,schon,hat,gedachte,der,gehören,überwiegend,des,Fleisch,stand,beschuldigten,mit,die,habe,Mond,roter,Erlebnisse,260.000,Größe,Liter,Zuckers,beteiligten,Zucker,Größe,des,wissen,Menge,Lust,kann,Berge,Dänemark,Leinwand,wurde,er,auf,große,werden,,,,,,,,,,,,,,,,,,,,,,,13,0,13,0,0,3,3,3,,,,,,,space,0.495851039886,,,,2017_Jan_25_1159,59.438871962,spr_backupper,001,Sa12,
,das,Büschel,nicht,"regelmäßigem,",ich,alten,aus,war,ich,wir,bekannten,Fahrer,richtige,jetzt,solchen,immer,Kilowattstunden,man,landen,"wertvollem,",Farbe,"Japan,","reichlichem,","Delikte,",solch,wurden,sprudelnden,Bluts,Stadt,schmutziger,Packung,man,mit,Büschel,viel,mit,"minimalem,",schönen,Blut,den,die,landen,viel,obschon,man,ein,auf,Stimmung,einen,Neuwahlen,mit,den,obwohl,"Delikte,",dem,"üblichem,",ausreichendem,Wohnung,mit,Stadt,"sämtlichem,",dank,bei,uns,man,vierte,immer,"nicht,",bekannten,wurden,ein,die,dauerhaftem,Wohnung,ich,dauerte,Farbe,bei,Kilowattstunden,36,sprudelndes,sind,Fahrer,sind,36,schönen,wir,alten,auf,ich,schmutzige,gelegentlich,aus,schon,"trug,",warmem,Packung,die,,,,,,,,,,,,,,,,,,,,,,,13,0,13,0,0,4,4,4,,,,,,,space,0.804903030396,,,,2017_Jan_25_1159,59.438871962,spr_backupper,001,Sa12,
,Auto,frischen,am,kaltem,leider,Krams,feinem,die,mehr,um,Skandal,wurden,"Zeit,","nachgewiesen,",unzureichenden,350,elektrische,der,im,klassischen,geschleudert.,die,purem,deren,unzureichenden,serviert.,Trinkwassers.,hat,liegen,Wäsche.,salziger,eine,einem,frisches,Lärm,"reichem,",sauberen,Wetter,hat,roten,Störenfriede,im,Lärm,sie,eine,Glas,noch,ziemlich,gelegentlichen,vor,zusätzlichem,roten,sie,derer,Mann,harten,monatlichem,des,einem,liegen,künftigem,täglichem,minimalem,die,den,Bundespräsident.,350,was,Skandals,serviert.,Glas,Störenfriede,feinem,des,mehr,ungefähr,geschleudert.,"frischem,",elektrischer,hätten,Trinkwasser.,auf,wurden,auf,würden,Wetters,von,Kram,noch,leider,Wäsche.,einen,seltenem,immer,war,weichem,salzige,Tiere,,,,,,,,,,,,,,,,,,,,,,,13,0,13,0,0,5,5,5,,,,,,,space,0.765966892242,,,,2017_Jan_25_1159,59.438871962,spr_backupper,001,Sa12,
,mehr,Grases,Hauptbahnhof.,Abduschen,nichts,aus,dichten,Flut,als,die,wiedergewählt.,verschrottet.,um,dass,Helmen,ml,Energie.,Soldaten,Müll.,Schmuck,nan,er,Alkohol,sie,Helmen,nan,nan,den,die,nan,Wurst,große,Esslöffel,Gras,um,goldenen,Kraftstoff,die,den,Planet,jeden.,Müll.,um,defekt,große,köstlicher,eine,"vermiest,",Besucher.,Dezember,schwarzem,Planeten,defekt,sie,mehr,Schaumstoff,Taschengeld,Herrn,Esslöffel,die,Einkommen,grünen,täglichen,Stimmung,Soldaten,nan,ml,Tupperware,wiedergewählt.,nan,köstlichen,jeden.,Kunsteis,Herrn,als,drei,nan,kaltem,Energie.,seiner,nan,jeden,verschrottet.,jeden,seiner,die,den,aus,eine,nichts,nan,Besucher.,dichten,ruhig,aus,Untergrund,Wurst,artgerecht,,,,,,,,,,,,,,,,,,,,,,,13,0,13,0,0,6,6,6,,,,,,,space,0.783724069595,,,,2017_Jan_25_1159,59.438871962,spr_backupper,001,Sa12,
,als,zwängen.,nan,gehärtet.,mitbringen.,dem,Stoff,zurückgekehrt.,einmal,Probleme,nan,nan,Nadelhölzer,das,zur,warme,nan,des,nan,umgearbeitet.,nan,trug.,verdünnt.,überführt,zur,nan,nan,Boden,Slums.,nan,mit,Menge,warmen,zwängen.,jede,Besatz,fahren.,Wohnung.,Boden,ganz,nan,nan,jede,war.,Menge,Wein,Sammlung,dass,nan,stattfinden.,Kaffee,ganz,war.,überführt,als,gefertigt.,selber,Gantenbein.,warmem,Slums.,haftbar.,Tee,Einsatz,ziemlich,des,nan,warmer,ist.,nan,nan,Weins,nan,eingesprüht.,Gantenbeins.,einmal,Tage.,nan,Saft,nan,Frau,nan,Fall,nan,Fall,Frau,Wohnung.,Problemen,dem,Sammlung,mitbringen.,nan,nan,Gewebe,diskutiert.,Japan.,liegen.,mit,gehalten.,,,,,,,,,,,,,,,,,,,,,,,13,0,13,0,0,7,7,7,,,,,,,space,0.651067018509,,,,2017_Jan_25_1159,59.438871962,spr_backupper,001,Sa12,
,,,,,,,,,,,,,,,,,,,,,,,,,,,,,,,,,,,,,,,,,,,,,,,,,,,,,,,,,,,,,,,,,,,,,,,,,,,,,,,,,,,,,,,,,,,,,,,,,,,,,,,,,,,,,,,,,,,,,,,,,13,0,13,0,,,,,,,,,,,,,None,n,5.29227900505,2017_Jan_25_1159,59.438871962,spr_backupper,001,Sa12,
,Wir,Wir,Die,Die,Außer,Wir,Er,Als,In,In,Er,Die,Jetzt,In,Die,In,Die,Bei,Viele,Die,Es,Die,Die,Es,Die,Beträchtliche,Sie,Nicht,Am,Dort,Ich,Mit,Er,Wir,Man,Das,Wir,Sie,Nicht,Im,Außer,Viele,Man,Die,Mit,Bei,Sie,Es,Wir,Unter,Die,Im,Die,Es,Wir,Alle,Jugendliche,Die,Er,Am,Manche,Ich,Ihr,Dass,Bei,Walter,In,Die,Er,Beträchtliche,Bei,Außer,Die,Die,In,Der,Es,Sie,Die,Die,Sie,100,Die,100,Die,Sie,In,Wir,Sie,Außer,Dort,Wir,Danach,Fernab,Die,Jungtiere,Ich,In,,,,,,,,,,,,,,,,,,,,,,,14,0,14,0,0,0,0,0,,,,,,None,space,0.587927103043,,,,2017_Jan_25_1159,59.438871962,spr_backupper,001,Sa12,
,übergaben,mussten,Linie,Formen,das,haben,hat,die,meinem,der,wurde,Autos,ist,einer,Kinder,den,Schule,der,Tonnen,Stücke,wurden,Uhr,Lösung,waren,Kinder,Stücke,verbrauchen,ein,äußersten,türmen,nehme,dieser,stellt,mussten,machte,Tuch,konnten,verlassen,ein,Fernrohr,dem,Tonnen,machte,Uhr,dieser,unserer,hatte,hat,hatten,keinen,müden,Fernrohr,Uhr,waren,übergaben,Betten,können,Gäste,stellt,äußeren,Kreditnehmer,wurde,Blutdruck,es,der,Scheel,den,Teilnehmerinnen,wurde,Stücke,unserer,den,Eislaufbahnen,Gäste,meinem,Flug,wurden,haben,Schule,Schuhe,verbrauchen,g,Autos,g,Schuhe,verlassen,der,haben,hatte,dem,türmen,hatten,wurde,des,"Uhr,",sollten,nehme,diesem,,,,,,,,,,,,,,,,,,,,,,,14,0,14,0,0,1,1,1,,,,,,,space,0.809083223343,,,,2017_Jan_25_1159,59.438871962,spr_backupper,001,Sa12,
,dem,uns,101,wurden,Essen,jede,ein,Sonne,Studium,Tat,trotz,beider,genau,Studie,fuhren,Kakao,verbraucht,Feier,gebrauchte,wurden,Eimer,war,wird,nur,fuhren,saftigen,60,Tropfen,Rand,sich,eine,Methode,die,uns,mal,wurde,dann,wegen,Tropfen,sahen,Bürgermeister,gebrauchter,mal,schlug,Methode,Ankunft,keine,uns,in,Umständen,Teilnehmer,sahen,schlug,nur,das,wurden,Kleidung,suchen,die,Rand,sind,damals,kann,"regnete,",Feier,war,Kakao,wussten,trotz,saftiges,Ankunft,Bürgermeister,wurden,suchen,Studium,zum,Eimer,die,verbraucht,in,60,braunen,beider,brauner,in,wegen,Tat,jede,keine,Essen,sich,in,die,Rummels,die,immer,eine,Zirkus,,,,,,,,,,,,,,,,,,,,,,,14,0,14,0,0,2,2,2,,,,,,,space,0.526617050171,,,,2017_Jan_25_1159,59.438871962,spr_backupper,001,Sa12,
,Mann,durch,hält,unter,kann,Menge,Hemd,"unterging,",las,wissen,dem,beteiligter,die,wurde,mit,gehören,260.000,gedachte,Kleidung,aus,rote,aus,mit,kleinere,mit,Fleischs,Liter,königlichen,der,Berge,große,kann,Masse,durch,wieder,dann,mit,dem,königliches,wir,beschuldigten,Kleidung,wieder,"sporadisch,",kann,stand,Lust,die,Dänemark,können,wurden,wir,"sporadisch,",kleinere,Auto,mit,bei,die,Masse,der,mit,schnell,schon,hat,gedachte,der,gehören,überwiegend,des,Fleisch,stand,beschuldigten,mit,die,habe,Mond,roter,Erlebnisse,260.000,Größe,Liter,Zuckers,beteiligten,Zucker,Größe,des,wissen,Menge,Lust,kann,Berge,Dänemark,Leinwand,wurde,er,auf,große,werden,,,,,,,,,,,,,,,,,,,,,,,14,0,14,0,0,3,3,3,,,,,,,space,0.487274885178,,,,2017_Jan_25_1159,59.438871962,spr_backupper,001,Sa12,
,das,Büschel,nicht,"regelmäßigem,",ich,alten,aus,war,ich,wir,bekannten,Fahrer,richtige,jetzt,solchen,immer,Kilowattstunden,man,landen,"wertvollem,",Farbe,"Japan,","reichlichem,","Delikte,",solch,wurden,sprudelnden,Bluts,Stadt,schmutziger,Packung,man,mit,Büschel,viel,mit,"minimalem,",schönen,Blut,den,die,landen,viel,obschon,man,ein,auf,Stimmung,einen,Neuwahlen,mit,den,obwohl,"Delikte,",dem,"üblichem,",ausreichendem,Wohnung,mit,Stadt,"sämtlichem,",dank,bei,uns,man,vierte,immer,"nicht,",bekannten,wurden,ein,die,dauerhaftem,Wohnung,ich,dauerte,Farbe,bei,Kilowattstunden,36,sprudelndes,sind,Fahrer,sind,36,schönen,wir,alten,auf,ich,schmutzige,gelegentlich,aus,schon,"trug,",warmem,Packung,die,,,,,,,,,,,,,,,,,,,,,,,14,0,14,0,0,4,4,4,,,,,,,space,0.571092128754,,,,2017_Jan_25_1159,59.438871962,spr_backupper,001,Sa12,
,Auto,frischen,am,kaltem,leider,Krams,feinem,die,mehr,um,Skandal,wurden,"Zeit,","nachgewiesen,",unzureichenden,350,elektrische,der,im,klassischen,geschleudert.,die,purem,deren,unzureichenden,serviert.,Trinkwassers.,hat,liegen,Wäsche.,salziger,eine,einem,frisches,Lärm,"reichem,",sauberen,Wetter,hat,roten,Störenfriede,im,Lärm,sie,eine,Glas,noch,ziemlich,gelegentlichen,vor,zusätzlichem,roten,sie,derer,Mann,harten,monatlichem,des,einem,liegen,künftigem,täglichem,minimalem,die,den,Bundespräsident.,350,was,Skandals,serviert.,Glas,Störenfriede,feinem,des,mehr,ungefähr,geschleudert.,"frischem,",elektrischer,hätten,Trinkwasser.,auf,wurden,auf,würden,Wetters,von,Kram,noch,leider,Wäsche.,einen,seltenem,immer,war,weichem,salzige,Tiere,,,,,,,,,,,,,,,,,,,,,,,14,0,14,0,0,5,5,5,,,,,,,space,0.633589029312,,,,2017_Jan_25_1159,59.438871962,spr_backupper,001,Sa12,
