text,sent48,sent9,sent8,sent15,sent3,sent2,sent1,sent14,sent7,sent6,sent5,sent4,sent57,sent56,sent55,sent54,sent53,sent52,sent51,sent50,sent13,sent12,sent11,sent10,sent17,sent16,sent59,sent58,sent93,sent92,sent91,sent90,sent97,sent96,sent95,sent94,sent98,sent22,sent23,sent20,sent21,sent26,sent27,sent24,sent25,sent28,sent29,sent68,sent69,sent66,sent67,sent64,sent65,sent62,sent63,sent60,sent61,sent31,sent30,sent33,sent32,sent35,sent34,sent37,sent36,sent39,sent38,sent79,sent78,sent75,sent74,sent77,sent76,sent71,sent70,sent73,sent72,sent19,sent49,sent18,sent44,sent45,sent84,sent85,sent86,sent87,sent80,sent81,sent82,sent83,sent40,sent41,sent42,sent43,sent88,sent89,sent46,sent47,intros.thisRepN,intros.thisTrialN,intros.thisN,intros.thisIndex,trials.thisRepN,trials.thisTrialN,trials.thisN,trials.thisIndex,testWords.thisRepN,testWords.thisTrialN,testWords.thisN,testWords.thisIndex,test1,test3,test2,test5,test4,test7,test6,test9,test8,test10,realTrials.thisRepN,realTrials.thisTrialN,realTrials.thisN,realTrials.thisIndex,words.thisRepN,words.thisTrialN,words.thisN,words.thisIndex,key_resp_3.keys,key_resp_3.rt,key_resp_8.keys,key_resp_10.keys,key_resp_10.rt,key_resp_6.keys,wordRead.keys,wordRead.rt,key_resp_5.keys,questAnswer.keys,questAnswer.rt,key_resp_6.rt,key_resp_5.rt,date,frameRate,expName,session,participant,
"Vielen Dank, dass Sie an diesem Experiment teilnehmen. Vor dem eigentlichen Experiment sehen Sie nun zuerst eine kurze Erläuterung, und Sie absolvieren ein kurze Übungsphase.

Das Experiment dauert insgesamt nicht mehr als 45 Minuten.",,,,,,,,,,,,,,,,,,,,,,,,,,,,,,,,,,,,,,,,,,,,,,,,,,,,,,,,,,,,,,,,,,,,,,,,,,,,,,,,,,,,,,,,,,,,,,,,,,,0,0,0,0,,,,,,,,,,,,,,,,,,,,,,,,,,,,,,,,,,,,,,,,2017_Jan_25_1359,60.6734057388,spr_backupper,001,Sa14,
"In diesem Experiment lesen Sie deutsche Sätze, indem Sie sich von Wort zu Wort mit der Leertaste durch den Satz klicken.",,,,,,,,,,,,,,,,,,,,,,,,,,,,,,,,,,,,,,,,,,,,,,,,,,,,,,,,,,,,,,,,,,,,,,,,,,,,,,,,,,,,,,,,,,,,,,,,,,,0,1,1,1,,,,,,,,,,,,,,,,,,,,,,,,,,,,,,,,,,,,,,,,2017_Jan_25_1359,60.6734057388,spr_backupper,001,Sa14,
"Sie sehen dabei immer nur das aktuelle Wort. Die Lesegeschwindigkeit bestimmen Sie vollständig selber. Vor jedem Satz sehen Sie in der Bildschirmmitte für zwei Sekunden ein + an der Stelle, an der dann die Wörter erscheinen.",,,,,,,,,,,,,,,,,,,,,,,,,,,,,,,,,,,,,,,,,,,,,,,,,,,,,,,,,,,,,,,,,,,,,,,,,,,,,,,,,,,,,,,,,,,,,,,,,,,0,2,2,2,,,,,,,,,,,,,,,,,,,,,,,,,,,,,,,,,,,,,,,,2017_Jan_25_1359,60.6734057388,spr_backupper,001,Sa14,
"Nach jedem Satz wird Ihnen eine Ja/Nein-Verständnisfrage zum zuvor gelesenen Satz gestellt, die Sie mit der J-Taste für "Ja" und der N-Taste für "Nein" beantworten. Antworten Sie möglichst spontan und ohne lange Nachzudenken.",,,,,,,,,,,,,,,,,,,,,,,,,,,,,,,,,,,,,,,,,,,,,,,,,,,,,,,,,,,,,,,,,,,,,,,,,,,,,,,,,,,,,,,,,,,,,,,,,,,0,3,3,3,,,,,,,,,,,,,,,,,,,,,,,,,,,,,,,,,,,,,,,,2017_Jan_25_1359,60.6734057388,spr_backupper,001,Sa14,
"Unterbrechen Sie das Experiment bitte auf keinen Fall, stellen Sie den ExperimentatorInnen nach dem Experimentbeginn keine Fragen, und lassen Sie sich nicht durch Umgebungsgeräusche ablenken.",,,,,,,,,,,,,,,,,,,,,,,,,,,,,,,,,,,,,,,,,,,,,,,,,,,,,,,,,,,,,,,,,,,,,,,,,,,,,,,,,,,,,,,,,,,,,,,,,,,0,4,4,4,,,,,,,,,,,,,,,,,,,,,,,,,,,,,,,,,,,,,,,,2017_Jan_25_1359,60.6734057388,spr_backupper,001,Sa14,
"Im nächsten Schritt beantworten Sie bitte eine Frage zu Ihren Deutschkenntnissen. Danach beginnt eine Übungseinheit, mit der Sie sich an die Art der Durchführung dieses Experiments gewöhnen können.",,,,,,,,,,,,,,,,,,,,,,,,,,,,,,,,,,,,,,,,,,,,,,,,,,,,,,,,,,,,,,,,,,,,,,,,,,,,,,,,,,,,,,,,,,,,,,,,,,,0,5,5,5,,,,,,,,,,,,,,,,,,,,,,,,,,,,,,,,,,,,,,,,2017_Jan_25_1359,60.6734057388,spr_backupper,001,Sa14,
,,,,,,,,,,,,,,,,,,,,,,,,,,,,,,,,,,,,,,,,,,,,,,,,,,,,,,,,,,,,,,,,,,,,,,,,,,,,,,,,,,,,,,,,,,,,,,,,,,,,,,,,,,,,,,,,,,,,,,,,,,,,,,,,,j,6.05415201187,,,,,,,,,,,,2017_Jan_25_1359,60.6734057388,spr_backupper,001,Sa14,
,,,,,,,,,,,,,,,,,,,,,,,,,,,,,,,,,,,,,,,,,,,,,,,,,,,,,,,,,,,,,,,,,,,,,,,,,,,,,,,,,,,,,,,,,,,,,,,,,,,,,,,0,0,0,0,,,,,,,,,,,,,,,,,,,,,,,,,None,,,,,,,,,,,2017_Jan_25_1359,60.6734057388,spr_backupper,001,Sa14,
,,,,,,,,,,,,,,,,,,,,,,,,,,,,,,,,,,,,,,,,,,,,,,,,,,,,,,,,,,,,,,,,,,,,,,,,,,,,,,,,,,,,,,,,,,,,,,,,,,,,,,,1,0,1,0,,,,,,,,,,,,,,,,,,,,,,,,,None,,,,,,,,,,,2017_Jan_25_1359,60.6734057388,spr_backupper,001,Sa14,
,,,,,,,,,,,,,,,,,,,,,,,,,,,,,,,,,,,,,,,,,,,,,,,,,,,,,,,,,,,,,,,,,,,,,,,,,,,,,,,,,,,,,,,,,,,,,,,,,,,,,,,2,0,2,0,,,,,,,,,,,,,,,,,,,,,,,,,None,,,,,,,,,,,2017_Jan_25_1359,60.6734057388,spr_backupper,001,Sa14,
,,,,,,,,,,,,,,,,,,,,,,,,,,,,,,,,,,,,,,,,,,,,,,,,,,,,,,,,,,,,,,,,,,,,,,,,,,,,,,,,,,,,,,,,,,,,,,,,,,,,,,,3,0,3,0,,,,,,,,,,,,,,,,,,,,,,,,,None,,,,,,,,,,,2017_Jan_25_1359,60.6734057388,spr_backupper,001,Sa14,
,,,,,,,,,,,,,,,,,,,,,,,,,,,,,,,,,,,,,,,,,,,,,,,,,,,,,,,,,,,,,,,,,,,,,,,,,,,,,,,,,,,,,,,,,,,,,,,,,,,,,,,4,0,4,0,,,,,,,,,,,,,,,,,,,,,,,,,None,,,,,,,,,,,2017_Jan_25_1359,60.6734057388,spr_backupper,001,Sa14,
,,,,,,,,,,,,,,,,,,,,,,,,,,,,,,,,,,,,,,,,,,,,,,,,,,,,,,,,,,,,,,,,,,,,,,,,,,,,,,,,,,,,,,,,,,,,,,,,,,,,,,,5,0,5,0,,,,,,,,,,,,,,,,,,,,,,,,,None,,,,,,,,,,,2017_Jan_25_1359,60.6734057388,spr_backupper,001,Sa14,
,,,,,,,,,,,,,,,,,,,,,,,,,,,,,,,,,,,,,,,,,,,,,,,,,,,,,,,,,,,,,,,,,,,,,,,,,,,,,,,,,,,,,,,,,,,,,,,,,,,,,,,6,0,6,0,,,,,,,,,,,,,,,,,,,,,,,,,None,,,,,,,,,,,2017_Jan_25_1359,60.6734057388,spr_backupper,001,Sa14,
,,,,,,,,,,,,,,,,,,,,,,,,,,,,,,,,,,,,,,,,,,,,,,,,,,,,,,,,,,,,,,,,,,,,,,,,,,,,,,,,,,,,,,,,,,,,,,,,,,,,,,,7,0,7,0,,,,,,,,,,,,,,,,,,,,,,,,,None,,,,,,,,,,,2017_Jan_25_1359,60.6734057388,spr_backupper,001,Sa14,
,,,,,,,,,,,,,,,,,,,,,,,,,,,,,,,,,,,,,,,,,,,,,,,,,,,,,,,,,,,,,,,,,,,,,,,,,,,,,,,,,,,,,,,,,,,,,,,,,,,,,,,8,0,8,0,,,,,,,,,,,,,,,,,,,,,,,,,None,,,,,,,,,,,2017_Jan_25_1359,60.6734057388,spr_backupper,001,Sa14,
,,,,,,,,,,,,,,,,,,,,,,,,,,,,,,,,,,,,,,,,,,,,,,,,,,,,,,,,,,,,,,,,,,,,,,,,,,,,,,,,,,,,,,,,,,,,,,,,,,,,,,,9,0,9,0,,,,,,,,,,,,,,,,,,,,,,,,,None,,,,,,,,,,,2017_Jan_25_1359,60.6734057388,spr_backupper,001,Sa14,
,,,,,,,,,,,,,,,,,,,,,,,,,,,,,,,,,,,,,,,,,,,,,,,,,,,,,,,,,,,,,,,,,,,,,,,,,,,,,,,,,,,,,,,,,,,,,,,,,,,,,,,,,,,,,,,,,,,,,,,,,,,,,,,,,,,,space,2.80062103271,,,,,,,,,2017_Jan_25_1359,60.6734057388,spr_backupper,001,Sa14,
,Ich,Man,Als,Nicht,Ihr,Wir,Fernab,Beträchtliche,Außer,100,Manche,Viele,Die,Beträchtliche,Wir,Ich,Wir,Die,Wir,Er,Die,Er,Die,Die,Die,Sie,Es,Der,Viele,Die,Wir,Sie,In,Dort,Wir,Die,Sie,In,Ich,Wir,Außer,Es,Sie,Er,Die,Die,Dort,Nicht,In,Die,Es,Jugendliche,Sie,Die,Er,Die,Außer,Dass,Es,In,Wir,Bei,Die,Die,Die,Sie,Walter,Jetzt,Man,Jungtiere,Die,Mit,Das,Am,Die,Außer,Es,Er,Sie,In,Wir,Am,Bei,100,In,Unter,Die,Alle,Im,Die,Die,Danach,In,Im,Bei,In,Mit,Bei,,,,,,,,,,,,,,,,,,,,,,,0,0,0,0,0,0,0,0,,,,,,None,space,2.27234792709,,,,,,2017_Jan_25_1359,60.6734057388,spr_backupper,001,Sa14,
,nehme,machte,die,ein,Blutdruck,mussten,des,Stücke,das,g,Kreditnehmer,Tonnen,Kinder,Stücke,übergaben,nehme,haben,müden,mussten,stellt,Lösung,stellt,Uhr,Uhr,Gäste,verbrauchen,wurden,Flug,Tonnen,Autos,hatten,hatte,den,türmen,konnten,Stücke,verlassen,meinem,wurde,hatten,dem,wurden,hatte,wurde,Schule,Schuhe,türmen,ein,einer,Uhr,hat,können,verbrauchen,Schuhe,wurde,Schule,dem,es,waren,diesem,haben,unserer,Kinder,Formen,Linie,verlassen,Scheel,ist,machte,sollten,Teilnehmerinnen,dieser,Tuch,äußersten,Eislaufbahnen,den,waren,hat,haben,der,übergaben,äußeren,der,g,der,keinen,"Uhr,",Betten,Fernrohr,Gäste,Autos,wurde,den,Fernrohr,unserer,meinem,dieser,der,,,,,,,,,,,,,,,,,,,,,,,0,0,0,0,0,1,1,1,,,,,,,space,0.694308996201,,,,,,2017_Jan_25_1359,60.6734057388,spr_backupper,001,Sa14,
,eine,mal,Sonne,Tropfen,kann,uns,Rummels,saftigen,Essen,braunen,sind,gebrauchter,fuhren,saftiges,das,eine,jede,Teilnehmer,uns,die,wird,die,schlug,war,suchen,60,Eimer,zum,gebrauchte,beider,in,keine,Kakao,sich,dann,wurden,wegen,Studium,damals,in,Bürgermeister,Eimer,keine,trotz,verbraucht,in,sich,Tropfen,Studie,schlug,uns,Kleidung,60,in,trotz,verbraucht,Essen,"regnete,",nur,Zirkus,jede,Ankunft,fuhren,wurden,101,wegen,war,genau,mal,immer,wussten,Methode,wurde,Rand,wurden,Bürgermeister,nur,ein,die,Tat,dem,Rand,Feier,brauner,Tat,Umständen,die,wurden,sahen,suchen,beider,die,Kakao,sahen,Ankunft,Studium,Methode,Feier,,,,,,,,,,,,,,,,,,,,,,,0,0,0,0,0,2,2,2,,,,,,,space,0.591831922531,,,,,,2017_Jan_25_1359,60.6734057388,spr_backupper,001,Sa14,
,große,wieder,"unterging,",königliches,schon,durch,wurde,Fleischs,kann,Zuckers,mit,Kleidung,mit,Fleisch,Auto,große,Menge,wurden,durch,Masse,mit,Masse,"sporadisch,",aus,die,Liter,roter,Mond,Kleidung,beteiligten,Dänemark,Lust,gehören,Berge,mit,aus,des,las,schnell,Dänemark,beschuldigten,rote,Lust,dem,260.000,Größe,Berge,königlichen,wurde,"sporadisch,",die,bei,Liter,Größe,des,260.000,kann,hat,kleinere,werden,Menge,stand,mit,unter,hält,dem,der,die,wieder,auf,überwiegend,kann,dann,der,mit,beschuldigten,kleinere,Hemd,Erlebnisse,wissen,Mann,der,gedachte,Zucker,wissen,können,er,mit,wir,die,beteiligter,Leinwand,gehören,wir,stand,habe,kann,gedachte,,,,,,,,,,,,,,,,,,,,,,,0,0,0,0,0,3,3,3,,,,,,,space,0.635560035706,,,,,,2017_Jan_25_1359,60.6734057388,spr_backupper,001,Sa14,
,Packung,viel,war,Blut,bei,Büschel,schon,wurden,ich,sind,"sämtlichem,",landen,solchen,wurden,dem,Packung,alten,mit,Büschel,mit,"reichlichem,",mit,obschon,"Japan,",Wohnung,sprudelndes,Farbe,dauerte,landen,Fahrer,einen,auf,immer,schmutziger,"minimalem,","wertvollem,",schönen,ich,dank,gelegentlich,die,Farbe,auf,bekannten,Kilowattstunden,36,schmutzige,Bluts,jetzt,obwohl,Stimmung,ausreichendem,sprudelnden,36,bekannten,Kilowattstunden,ich,uns,"Delikte,",die,alten,ein,solch,"regelmäßigem,",nicht,schönen,vierte,richtige,viel,warmem,"nicht,",man,mit,Stadt,dauerhaftem,die,"Delikte,",aus,bei,wir,das,Stadt,man,sind,wir,Neuwahlen,"trug,","üblichem,",den,Wohnung,Fahrer,aus,immer,den,ein,ich,man,man,,,,,,,,,,,,,,,,,,,,,,,0,0,0,0,0,4,4,4,,,,,,,space,0.970010995865,,,,,,2017_Jan_25_1359,60.6734057388,spr_backupper,001,Sa14,
,salzige,Lärm,die,hat,minimalem,frischen,immer,serviert.,leider,auf,künftigem,im,unzureichenden,serviert.,Mann,salziger,Kram,zusätzlichem,frisches,einem,purem,einem,sie,die,des,Trinkwasser.,geschleudert.,ungefähr,im,wurden,gelegentlichen,noch,350,Wäsche.,sauberen,klassischen,Wetters,mehr,täglichem,einen,Störenfriede,geschleudert.,noch,Skandal,elektrischer,hätten,Wäsche.,hat,"nachgewiesen,",sie,ziemlich,monatlichem,Trinkwassers.,würden,Skandals,elektrische,leider,die,deren,Tiere,Krams,Glas,unzureichenden,kaltem,am,Wetter,Bundespräsident.,"Zeit,",Lärm,weichem,was,eine,"reichem,",liegen,feinem,Störenfriede,derer,feinem,"frischem,",um,Auto,liegen,der,auf,von,vor,war,harten,roten,des,wurden,seltenem,350,roten,Glas,mehr,eine,den,,,,,,,,,,,,,,,,,,,,,,,0,0,0,0,0,5,5,5,,,,,,,space,0.617660999298,,,,,,2017_Jan_25_1359,60.6734057388,spr_backupper,001,Sa14,
,Wurst,um,Flut,den,täglichen,Grases,ruhig,nan,nichts,jeden,Einkommen,Müll.,Helmen,nan,mehr,Wurst,aus,schwarzem,Gras,Esslöffel,Alkohol,Esslöffel,defekt,er,Herrn,nan,nan,drei,Müll.,verschrottet.,Besucher.,eine,ml,nan,Kraftstoff,Schmuck,die,als,grünen,Besucher.,jeden.,nan,eine,wiedergewählt.,Energie.,seiner,nan,den,dass,defekt,"vermiest,",Taschengeld,nan,seiner,wiedergewählt.,Energie.,nichts,Stimmung,sie,artgerecht,aus,köstlicher,Helmen,Abduschen,Hauptbahnhof.,die,nan,um,um,Untergrund,Tupperware,große,goldenen,die,Kunsteis,jeden.,sie,dichten,kaltem,die,mehr,die,Soldaten,jeden,den,Dezember,aus,Schaumstoff,Planeten,Herrn,verschrottet.,dichten,ml,Planet,köstlichen,als,große,Soldaten,,,,,,,,,,,,,,,,,,,,,,,0,0,0,0,0,6,6,6,,,,,,,space,0.520208835602,,,,,,2017_Jan_25_1359,60.6734057388,spr_backupper,001,Sa14,
,mit,jede,zurückgekehrt.,Boden,Einsatz,zwängen.,diskutiert.,nan,mitbringen.,Fall,haftbar.,nan,zur,nan,als,mit,dem,Kaffee,zwängen.,warmen,verdünnt.,warmem,war.,trug.,Gantenbein.,nan,nan,Tage.,nan,nan,nan,Sammlung,warme,nan,fahren.,umgearbeitet.,Wohnung.,einmal,Tee,nan,nan,nan,Sammlung,nan,nan,Frau,nan,Boden,das,war.,dass,selber,nan,Frau,nan,nan,mitbringen.,ziemlich,überführt,gehalten.,dem,Wein,zur,gehärtet.,nan,Wohnung.,nan,Nadelhölzer,jede,liegen.,ist.,Menge,Besatz,Slums.,eingesprüht.,nan,überführt,Stoff,Saft,Probleme,als,Slums.,des,Fall,Problemen,stattfinden.,Japan.,gefertigt.,ganz,Gantenbeins.,nan,Gewebe,warmer,ganz,Weins,einmal,Menge,des,,,,,,,,,,,,,,,,,,,,,,,0,0,0,0,0,7,7,7,,,,,,,space,1.04311013222,,,,,,2017_Jan_25_1359,60.6734057388,spr_backupper,001,Sa14,
,,,,,,,,,,,,,,,,,,,,,,,,,,,,,,,,,,,,,,,,,,,,,,,,,,,,,,,,,,,,,,,,,,,,,,,,,,,,,,,,,,,,,,,,,,,,,,,,,,,,,,,,,,,,,,,,,,,,,,,,,0,0,0,0,,,,,,,,,,,,,None,j,3.49884009361,,,2017_Jan_25_1359,60.6734057388,spr_backupper,001,Sa14,
,Ich,Man,Als,Nicht,Ihr,Wir,Fernab,Beträchtliche,Außer,100,Manche,Viele,Die,Beträchtliche,Wir,Ich,Wir,Die,Wir,Er,Die,Er,Die,Die,Die,Sie,Es,Der,Viele,Die,Wir,Sie,In,Dort,Wir,Die,Sie,In,Ich,Wir,Außer,Es,Sie,Er,Die,Die,Dort,Nicht,In,Die,Es,Jugendliche,Sie,Die,Er,Die,Außer,Dass,Es,In,Wir,Bei,Die,Die,Die,Sie,Walter,Jetzt,Man,Jungtiere,Die,Mit,Das,Am,Die,Außer,Es,Er,Sie,In,Wir,Am,Bei,100,In,Unter,Die,Alle,Im,Die,Die,Danach,In,Im,Bei,In,Mit,Bei,,,,,,,,,,,,,,,,,,,,,,,1,0,1,0,0,0,0,0,,,,,,None,space,0.721780061722,,,,,,2017_Jan_25_1359,60.6734057388,spr_backupper,001,Sa14,
,nehme,machte,die,ein,Blutdruck,mussten,des,Stücke,das,g,Kreditnehmer,Tonnen,Kinder,Stücke,übergaben,nehme,haben,müden,mussten,stellt,Lösung,stellt,Uhr,Uhr,Gäste,verbrauchen,wurden,Flug,Tonnen,Autos,hatten,hatte,den,türmen,konnten,Stücke,verlassen,meinem,wurde,hatten,dem,wurden,hatte,wurde,Schule,Schuhe,türmen,ein,einer,Uhr,hat,können,verbrauchen,Schuhe,wurde,Schule,dem,es,waren,diesem,haben,unserer,Kinder,Formen,Linie,verlassen,Scheel,ist,machte,sollten,Teilnehmerinnen,dieser,Tuch,äußersten,Eislaufbahnen,den,waren,hat,haben,der,übergaben,äußeren,der,g,der,keinen,"Uhr,",Betten,Fernrohr,Gäste,Autos,wurde,den,Fernrohr,unserer,meinem,dieser,der,,,,,,,,,,,,,,,,,,,,,,,1,0,1,0,0,1,1,1,,,,,,,space,0.972301959991,,,,,,2017_Jan_25_1359,60.6734057388,spr_backupper,001,Sa14,
,eine,mal,Sonne,Tropfen,kann,uns,Rummels,saftigen,Essen,braunen,sind,gebrauchter,fuhren,saftiges,das,eine,jede,Teilnehmer,uns,die,wird,die,schlug,war,suchen,60,Eimer,zum,gebrauchte,beider,in,keine,Kakao,sich,dann,wurden,wegen,Studium,damals,in,Bürgermeister,Eimer,keine,trotz,verbraucht,in,sich,Tropfen,Studie,schlug,uns,Kleidung,60,in,trotz,verbraucht,Essen,"regnete,",nur,Zirkus,jede,Ankunft,fuhren,wurden,101,wegen,war,genau,mal,immer,wussten,Methode,wurde,Rand,wurden,Bürgermeister,nur,ein,die,Tat,dem,Rand,Feier,brauner,Tat,Umständen,die,wurden,sahen,suchen,beider,die,Kakao,sahen,Ankunft,Studium,Methode,Feier,,,,,,,,,,,,,,,,,,,,,,,1,0,1,0,0,2,2,2,,,,,,,space,0.704452991486,,,,,,2017_Jan_25_1359,60.6734057388,spr_backupper,001,Sa14,
,große,wieder,"unterging,",königliches,schon,durch,wurde,Fleischs,kann,Zuckers,mit,Kleidung,mit,Fleisch,Auto,große,Menge,wurden,durch,Masse,mit,Masse,"sporadisch,",aus,die,Liter,roter,Mond,Kleidung,beteiligten,Dänemark,Lust,gehören,Berge,mit,aus,des,las,schnell,Dänemark,beschuldigten,rote,Lust,dem,260.000,Größe,Berge,königlichen,wurde,"sporadisch,",die,bei,Liter,Größe,des,260.000,kann,hat,kleinere,werden,Menge,stand,mit,unter,hält,dem,der,die,wieder,auf,überwiegend,kann,dann,der,mit,beschuldigten,kleinere,Hemd,Erlebnisse,wissen,Mann,der,gedachte,Zucker,wissen,können,er,mit,wir,die,beteiligter,Leinwand,gehören,wir,stand,habe,kann,gedachte,,,,,,,,,,,,,,,,,,,,,,,1,0,1,0,0,3,3,3,,,,,,,space,0.822329998016,,,,,,2017_Jan_25_1359,60.6734057388,spr_backupper,001,Sa14,
,Packung,viel,war,Blut,bei,Büschel,schon,wurden,ich,sind,"sämtlichem,",landen,solchen,wurden,dem,Packung,alten,mit,Büschel,mit,"reichlichem,",mit,obschon,"Japan,",Wohnung,sprudelndes,Farbe,dauerte,landen,Fahrer,einen,auf,immer,schmutziger,"minimalem,","wertvollem,",schönen,ich,dank,gelegentlich,die,Farbe,auf,bekannten,Kilowattstunden,36,schmutzige,Bluts,jetzt,obwohl,Stimmung,ausreichendem,sprudelnden,36,bekannten,Kilowattstunden,ich,uns,"Delikte,",die,alten,ein,solch,"regelmäßigem,",nicht,schönen,vierte,richtige,viel,warmem,"nicht,",man,mit,Stadt,dauerhaftem,die,"Delikte,",aus,bei,wir,das,Stadt,man,sind,wir,Neuwahlen,"trug,","üblichem,",den,Wohnung,Fahrer,aus,immer,den,ein,ich,man,man,,,,,,,,,,,,,,,,,,,,,,,1,0,1,0,0,4,4,4,,,,,,,space,0.788748979568,,,,,,2017_Jan_25_1359,60.6734057388,spr_backupper,001,Sa14,
,salzige,Lärm,die,hat,minimalem,frischen,immer,serviert.,leider,auf,künftigem,im,unzureichenden,serviert.,Mann,salziger,Kram,zusätzlichem,frisches,einem,purem,einem,sie,die,des,Trinkwasser.,geschleudert.,ungefähr,im,wurden,gelegentlichen,noch,350,Wäsche.,sauberen,klassischen,Wetters,mehr,täglichem,einen,Störenfriede,geschleudert.,noch,Skandal,elektrischer,hätten,Wäsche.,hat,"nachgewiesen,",sie,ziemlich,monatlichem,Trinkwassers.,würden,Skandals,elektrische,leider,die,deren,Tiere,Krams,Glas,unzureichenden,kaltem,am,Wetter,Bundespräsident.,"Zeit,",Lärm,weichem,was,eine,"reichem,",liegen,feinem,Störenfriede,derer,feinem,"frischem,",um,Auto,liegen,der,auf,von,vor,war,harten,roten,des,wurden,seltenem,350,roten,Glas,mehr,eine,den,,,,,,,,,,,,,,,,,,,,,,,1,0,1,0,0,5,5,5,,,,,,,space,1.17995405197,,,,,,2017_Jan_25_1359,60.6734057388,spr_backupper,001,Sa14,
,Wurst,um,Flut,den,täglichen,Grases,ruhig,nan,nichts,jeden,Einkommen,Müll.,Helmen,nan,mehr,Wurst,aus,schwarzem,Gras,Esslöffel,Alkohol,Esslöffel,defekt,er,Herrn,nan,nan,drei,Müll.,verschrottet.,Besucher.,eine,ml,nan,Kraftstoff,Schmuck,die,als,grünen,Besucher.,jeden.,nan,eine,wiedergewählt.,Energie.,seiner,nan,den,dass,defekt,"vermiest,",Taschengeld,nan,seiner,wiedergewählt.,Energie.,nichts,Stimmung,sie,artgerecht,aus,köstlicher,Helmen,Abduschen,Hauptbahnhof.,die,nan,um,um,Untergrund,Tupperware,große,goldenen,die,Kunsteis,jeden.,sie,dichten,kaltem,die,mehr,die,Soldaten,jeden,den,Dezember,aus,Schaumstoff,Planeten,Herrn,verschrottet.,dichten,ml,Planet,köstlichen,als,große,Soldaten,,,,,,,,,,,,,,,,,,,,,,,1,0,1,0,0,6,6,6,,,,,,,space,1.21059894562,,,,,,2017_Jan_25_1359,60.6734057388,spr_backupper,001,Sa14,
,mit,jede,zurückgekehrt.,Boden,Einsatz,zwängen.,diskutiert.,nan,mitbringen.,Fall,haftbar.,nan,zur,nan,als,mit,dem,Kaffee,zwängen.,warmen,verdünnt.,warmem,war.,trug.,Gantenbein.,nan,nan,Tage.,nan,nan,nan,Sammlung,warme,nan,fahren.,umgearbeitet.,Wohnung.,einmal,Tee,nan,nan,nan,Sammlung,nan,nan,Frau,nan,Boden,das,war.,dass,selber,nan,Frau,nan,nan,mitbringen.,ziemlich,überführt,gehalten.,dem,Wein,zur,gehärtet.,nan,Wohnung.,nan,Nadelhölzer,jede,liegen.,ist.,Menge,Besatz,Slums.,eingesprüht.,nan,überführt,Stoff,Saft,Probleme,als,Slums.,des,Fall,Problemen,stattfinden.,Japan.,gefertigt.,ganz,Gantenbeins.,nan,Gewebe,warmer,ganz,Weins,einmal,Menge,des,,,,,,,,,,,,,,,,,,,,,,,1,0,1,0,0,7,7,7,,,,,,,space,1.3931491375,,,,,,2017_Jan_25_1359,60.6734057388,spr_backupper,001,Sa14,
,,,,,,,,,,,,,,,,,,,,,,,,,,,,,,,,,,,,,,,,,,,,,,,,,,,,,,,,,,,,,,,,,,,,,,,,,,,,,,,,,,,,,,,,,,,,,,,,,,,,,,,,,,,,,,,,,,,,,,,,,1,0,1,0,,,,,,,,,,,,,None,n,3.57884216309,,,2017_Jan_25_1359,60.6734057388,spr_backupper,001,Sa14,
,Ich,Man,Als,Nicht,Ihr,Wir,Fernab,Beträchtliche,Außer,100,Manche,Viele,Die,Beträchtliche,Wir,Ich,Wir,Die,Wir,Er,Die,Er,Die,Die,Die,Sie,Es,Der,Viele,Die,Wir,Sie,In,Dort,Wir,Die,Sie,In,Ich,Wir,Außer,Es,Sie,Er,Die,Die,Dort,Nicht,In,Die,Es,Jugendliche,Sie,Die,Er,Die,Außer,Dass,Es,In,Wir,Bei,Die,Die,Die,Sie,Walter,Jetzt,Man,Jungtiere,Die,Mit,Das,Am,Die,Außer,Es,Er,Sie,In,Wir,Am,Bei,100,In,Unter,Die,Alle,Im,Die,Die,Danach,In,Im,Bei,In,Mit,Bei,,,,,,,,,,,,,,,,,,,,,,,2,0,2,0,0,0,0,0,,,,,,space,space,1.60269904137,,,,0.889048099518,,2017_Jan_25_1359,60.6734057388,spr_backupper,001,Sa14,
,nehme,machte,die,ein,Blutdruck,mussten,des,Stücke,das,g,Kreditnehmer,Tonnen,Kinder,Stücke,übergaben,nehme,haben,müden,mussten,stellt,Lösung,stellt,Uhr,Uhr,Gäste,verbrauchen,wurden,Flug,Tonnen,Autos,hatten,hatte,den,türmen,konnten,Stücke,verlassen,meinem,wurde,hatten,dem,wurden,hatte,wurde,Schule,Schuhe,türmen,ein,einer,Uhr,hat,können,verbrauchen,Schuhe,wurde,Schule,dem,es,waren,diesem,haben,unserer,Kinder,Formen,Linie,verlassen,Scheel,ist,machte,sollten,Teilnehmerinnen,dieser,Tuch,äußersten,Eislaufbahnen,den,waren,hat,haben,der,übergaben,äußeren,der,g,der,keinen,"Uhr,",Betten,Fernrohr,Gäste,Autos,wurde,den,Fernrohr,unserer,meinem,dieser,der,,,,,,,,,,,,,,,,,,,,,,,2,0,2,0,0,1,1,1,,,,,,,space,0.824383974075,,,,,,2017_Jan_25_1359,60.6734057388,spr_backupper,001,Sa14,
,eine,mal,Sonne,Tropfen,kann,uns,Rummels,saftigen,Essen,braunen,sind,gebrauchter,fuhren,saftiges,das,eine,jede,Teilnehmer,uns,die,wird,die,schlug,war,suchen,60,Eimer,zum,gebrauchte,beider,in,keine,Kakao,sich,dann,wurden,wegen,Studium,damals,in,Bürgermeister,Eimer,keine,trotz,verbraucht,in,sich,Tropfen,Studie,schlug,uns,Kleidung,60,in,trotz,verbraucht,Essen,"regnete,",nur,Zirkus,jede,Ankunft,fuhren,wurden,101,wegen,war,genau,mal,immer,wussten,Methode,wurde,Rand,wurden,Bürgermeister,nur,ein,die,Tat,dem,Rand,Feier,brauner,Tat,Umständen,die,wurden,sahen,suchen,beider,die,Kakao,sahen,Ankunft,Studium,Methode,Feier,,,,,,,,,,,,,,,,,,,,,,,2,0,2,0,0,2,2,2,,,,,,,space,0.728200912476,,,,,,2017_Jan_25_1359,60.6734057388,spr_backupper,001,Sa14,
,große,wieder,"unterging,",königliches,schon,durch,wurde,Fleischs,kann,Zuckers,mit,Kleidung,mit,Fleisch,Auto,große,Menge,wurden,durch,Masse,mit,Masse,"sporadisch,",aus,die,Liter,roter,Mond,Kleidung,beteiligten,Dänemark,Lust,gehören,Berge,mit,aus,des,las,schnell,Dänemark,beschuldigten,rote,Lust,dem,260.000,Größe,Berge,königlichen,wurde,"sporadisch,",die,bei,Liter,Größe,des,260.000,kann,hat,kleinere,werden,Menge,stand,mit,unter,hält,dem,der,die,wieder,auf,überwiegend,kann,dann,der,mit,beschuldigten,kleinere,Hemd,Erlebnisse,wissen,Mann,der,gedachte,Zucker,wissen,können,er,mit,wir,die,beteiligter,Leinwand,gehören,wir,stand,habe,kann,gedachte,,,,,,,,,,,,,,,,,,,,,,,2,0,2,0,0,3,3,3,,,,,,,space,1.1964609623,,,,,,2017_Jan_25_1359,60.6734057388,spr_backupper,001,Sa14,
,Packung,viel,war,Blut,bei,Büschel,schon,wurden,ich,sind,"sämtlichem,",landen,solchen,wurden,dem,Packung,alten,mit,Büschel,mit,"reichlichem,",mit,obschon,"Japan,",Wohnung,sprudelndes,Farbe,dauerte,landen,Fahrer,einen,auf,immer,schmutziger,"minimalem,","wertvollem,",schönen,ich,dank,gelegentlich,die,Farbe,auf,bekannten,Kilowattstunden,36,schmutzige,Bluts,jetzt,obwohl,Stimmung,ausreichendem,sprudelnden,36,bekannten,Kilowattstunden,ich,uns,"Delikte,",die,alten,ein,solch,"regelmäßigem,",nicht,schönen,vierte,richtige,viel,warmem,"nicht,",man,mit,Stadt,dauerhaftem,die,"Delikte,",aus,bei,wir,das,Stadt,man,sind,wir,Neuwahlen,"trug,","üblichem,",den,Wohnung,Fahrer,aus,immer,den,ein,ich,man,man,,,,,,,,,,,,,,,,,,,,,,,2,0,2,0,0,4,4,4,,,,,,,space,0.678876876831,,,,,,2017_Jan_25_1359,60.6734057388,spr_backupper,001,Sa14,
,salzige,Lärm,die,hat,minimalem,frischen,immer,serviert.,leider,auf,künftigem,im,unzureichenden,serviert.,Mann,salziger,Kram,zusätzlichem,frisches,einem,purem,einem,sie,die,des,Trinkwasser.,geschleudert.,ungefähr,im,wurden,gelegentlichen,noch,350,Wäsche.,sauberen,klassischen,Wetters,mehr,täglichem,einen,Störenfriede,geschleudert.,noch,Skandal,elektrischer,hätten,Wäsche.,hat,"nachgewiesen,",sie,ziemlich,monatlichem,Trinkwassers.,würden,Skandals,elektrische,leider,die,deren,Tiere,Krams,Glas,unzureichenden,kaltem,am,Wetter,Bundespräsident.,"Zeit,",Lärm,weichem,was,eine,"reichem,",liegen,feinem,Störenfriede,derer,feinem,"frischem,",um,Auto,liegen,der,auf,von,vor,war,harten,roten,des,wurden,seltenem,350,roten,Glas,mehr,eine,den,,,,,,,,,,,,,,,,,,,,,,,2,0,2,0,0,5,5,5,,,,,,,space,0.72076177597,,,,,,2017_Jan_25_1359,60.6734057388,spr_backupper,001,Sa14,
,Wurst,um,Flut,den,täglichen,Grases,ruhig,nan,nichts,jeden,Einkommen,Müll.,Helmen,nan,mehr,Wurst,aus,schwarzem,Gras,Esslöffel,Alkohol,Esslöffel,defekt,er,Herrn,nan,nan,drei,Müll.,verschrottet.,Besucher.,eine,ml,nan,Kraftstoff,Schmuck,die,als,grünen,Besucher.,jeden.,nan,eine,wiedergewählt.,Energie.,seiner,nan,den,dass,defekt,"vermiest,",Taschengeld,nan,seiner,wiedergewählt.,Energie.,nichts,Stimmung,sie,artgerecht,aus,köstlicher,Helmen,Abduschen,Hauptbahnhof.,die,nan,um,um,Untergrund,Tupperware,große,goldenen,die,Kunsteis,jeden.,sie,dichten,kaltem,die,mehr,die,Soldaten,jeden,den,Dezember,aus,Schaumstoff,Planeten,Herrn,verschrottet.,dichten,ml,Planet,köstlichen,als,große,Soldaten,,,,,,,,,,,,,,,,,,,,,,,2,0,2,0,0,6,6,6,,,,,,,space,0.805677890778,,,,,,2017_Jan_25_1359,60.6734057388,spr_backupper,001,Sa14,
,mit,jede,zurückgekehrt.,Boden,Einsatz,zwängen.,diskutiert.,nan,mitbringen.,Fall,haftbar.,nan,zur,nan,als,mit,dem,Kaffee,zwängen.,warmen,verdünnt.,warmem,war.,trug.,Gantenbein.,nan,nan,Tage.,nan,nan,nan,Sammlung,warme,nan,fahren.,umgearbeitet.,Wohnung.,einmal,Tee,nan,nan,nan,Sammlung,nan,nan,Frau,nan,Boden,das,war.,dass,selber,nan,Frau,nan,nan,mitbringen.,ziemlich,überführt,gehalten.,dem,Wein,zur,gehärtet.,nan,Wohnung.,nan,Nadelhölzer,jede,liegen.,ist.,Menge,Besatz,Slums.,eingesprüht.,nan,überführt,Stoff,Saft,Probleme,als,Slums.,des,Fall,Problemen,stattfinden.,Japan.,gefertigt.,ganz,Gantenbeins.,nan,Gewebe,warmer,ganz,Weins,einmal,Menge,des,,,,,,,,,,,,,,,,,,,,,,,2,0,2,0,0,7,7,7,,,,,,,space,0.738013029099,,,,,,2017_Jan_25_1359,60.6734057388,spr_backupper,001,Sa14,
,an,Menge,nan,berührt.,sinken.,nan,nan,nan,nan,genug.,nan,nan,Schule.,nan,gerne.,an,Haus,wiederbelebt.,nan,Honigs,nan,Honig,nan,nan,nan,nan,nan,nan,nan,nan,nan,dumme,Milch.,nan,nan,nan,nan,Rilke.,wieder,nan,nan,nan,dummer,nan,nan,gepasst.,nan,berührt.,Medikament,nan,es,kaufen.,nan,gepasst,nan,nan,nan,vermiest.,wurden.,nan,Haus,schon,Schule.,nan,nan,nan,nan,umzusetzen.,Menge,nan,nan,dunkle,rekonstruiert.,nan,nan,nan,wurden.,gefertigt.,besprochen.,im,gerne.,nan,zweiten,genug.,im,nan,nan,nan,deutlich.,nan,nan,wiederhergestellt.,Milch.,deutlich.,schon,Rilke,dunkler,zweiten,,,,,,,,,,,,,,,,,,,,,,,2,0,2,0,0,8,8,8,,,,,,,space,1.7107219696,,,,,,2017_Jan_25_1359,60.6734057388,spr_backupper,001,Sa14,
,,,,,,,,,,,,,,,,,,,,,,,,,,,,,,,,,,,,,,,,,,,,,,,,,,,,,,,,,,,,,,,,,,,,,,,,,,,,,,,,,,,,,,,,,,,,,,,,,,,,,,,,,,,,,,,,,,,,,,,,,2,0,2,0,,,,,,,,,,,,,None,j,6.32051587105,,,2017_Jan_25_1359,60.6734057388,spr_backupper,001,Sa14,
,Ich,Man,Als,Nicht,Ihr,Wir,Fernab,Beträchtliche,Außer,100,Manche,Viele,Die,Beträchtliche,Wir,Ich,Wir,Die,Wir,Er,Die,Er,Die,Die,Die,Sie,Es,Der,Viele,Die,Wir,Sie,In,Dort,Wir,Die,Sie,In,Ich,Wir,Außer,Es,Sie,Er,Die,Die,Dort,Nicht,In,Die,Es,Jugendliche,Sie,Die,Er,Die,Außer,Dass,Es,In,Wir,Bei,Die,Die,Die,Sie,Walter,Jetzt,Man,Jungtiere,Die,Mit,Das,Am,Die,Außer,Es,Er,Sie,In,Wir,Am,Bei,100,In,Unter,Die,Alle,Im,Die,Die,Danach,In,Im,Bei,In,Mit,Bei,,,,,,,,,,,,,,,,,,,,,,,3,0,3,0,0,0,0,0,,,,,,None,space,0.4545109272,,,,,,2017_Jan_25_1359,60.6734057388,spr_backupper,001,Sa14,
,nehme,machte,die,ein,Blutdruck,mussten,des,Stücke,das,g,Kreditnehmer,Tonnen,Kinder,Stücke,übergaben,nehme,haben,müden,mussten,stellt,Lösung,stellt,Uhr,Uhr,Gäste,verbrauchen,wurden,Flug,Tonnen,Autos,hatten,hatte,den,türmen,konnten,Stücke,verlassen,meinem,wurde,hatten,dem,wurden,hatte,wurde,Schule,Schuhe,türmen,ein,einer,Uhr,hat,können,verbrauchen,Schuhe,wurde,Schule,dem,es,waren,diesem,haben,unserer,Kinder,Formen,Linie,verlassen,Scheel,ist,machte,sollten,Teilnehmerinnen,dieser,Tuch,äußersten,Eislaufbahnen,den,waren,hat,haben,der,übergaben,äußeren,der,g,der,keinen,"Uhr,",Betten,Fernrohr,Gäste,Autos,wurde,den,Fernrohr,unserer,meinem,dieser,der,,,,,,,,,,,,,,,,,,,,,,,3,0,3,0,0,1,1,1,,,,,,,space,0.504754066467,,,,,,2017_Jan_25_1359,60.6734057388,spr_backupper,001,Sa14,
,eine,mal,Sonne,Tropfen,kann,uns,Rummels,saftigen,Essen,braunen,sind,gebrauchter,fuhren,saftiges,das,eine,jede,Teilnehmer,uns,die,wird,die,schlug,war,suchen,60,Eimer,zum,gebrauchte,beider,in,keine,Kakao,sich,dann,wurden,wegen,Studium,damals,in,Bürgermeister,Eimer,keine,trotz,verbraucht,in,sich,Tropfen,Studie,schlug,uns,Kleidung,60,in,trotz,verbraucht,Essen,"regnete,",nur,Zirkus,jede,Ankunft,fuhren,wurden,101,wegen,war,genau,mal,immer,wussten,Methode,wurde,Rand,wurden,Bürgermeister,nur,ein,die,Tat,dem,Rand,Feier,brauner,Tat,Umständen,die,wurden,sahen,suchen,beider,die,Kakao,sahen,Ankunft,Studium,Methode,Feier,,,,,,,,,,,,,,,,,,,,,,,3,0,3,0,0,2,2,2,,,,,,,space,0.646376132965,,,,,,2017_Jan_25_1359,60.6734057388,spr_backupper,001,Sa14,
,große,wieder,"unterging,",königliches,schon,durch,wurde,Fleischs,kann,Zuckers,mit,Kleidung,mit,Fleisch,Auto,große,Menge,wurden,durch,Masse,mit,Masse,"sporadisch,",aus,die,Liter,roter,Mond,Kleidung,beteiligten,Dänemark,Lust,gehören,Berge,mit,aus,des,las,schnell,Dänemark,beschuldigten,rote,Lust,dem,260.000,Größe,Berge,königlichen,wurde,"sporadisch,",die,bei,Liter,Größe,des,260.000,kann,hat,kleinere,werden,Menge,stand,mit,unter,hält,dem,der,die,wieder,auf,überwiegend,kann,dann,der,mit,beschuldigten,kleinere,Hemd,Erlebnisse,wissen,Mann,der,gedachte,Zucker,wissen,können,er,mit,wir,die,beteiligter,Leinwand,gehören,wir,stand,habe,kann,gedachte,,,,,,,,,,,,,,,,,,,,,,,3,0,3,0,0,3,3,3,,,,,,,space,0.707114934921,,,,,,2017_Jan_25_1359,60.6734057388,spr_backupper,001,Sa14,
,Packung,viel,war,Blut,bei,Büschel,schon,wurden,ich,sind,"sämtlichem,",landen,solchen,wurden,dem,Packung,alten,mit,Büschel,mit,"reichlichem,",mit,obschon,"Japan,",Wohnung,sprudelndes,Farbe,dauerte,landen,Fahrer,einen,auf,immer,schmutziger,"minimalem,","wertvollem,",schönen,ich,dank,gelegentlich,die,Farbe,auf,bekannten,Kilowattstunden,36,schmutzige,Bluts,jetzt,obwohl,Stimmung,ausreichendem,sprudelnden,36,bekannten,Kilowattstunden,ich,uns,"Delikte,",die,alten,ein,solch,"regelmäßigem,",nicht,schönen,vierte,richtige,viel,warmem,"nicht,",man,mit,Stadt,dauerhaftem,die,"Delikte,",aus,bei,wir,das,Stadt,man,sind,wir,Neuwahlen,"trug,","üblichem,",den,Wohnung,Fahrer,aus,immer,den,ein,ich,man,man,,,,,,,,,,,,,,,,,,,,,,,3,0,3,0,0,4,4,4,,,,,,,space,0.401185035706,,,,,,2017_Jan_25_1359,60.6734057388,spr_backupper,001,Sa14,
,salzige,Lärm,die,hat,minimalem,frischen,immer,serviert.,leider,auf,künftigem,im,unzureichenden,serviert.,Mann,salziger,Kram,zusätzlichem,frisches,einem,purem,einem,sie,die,des,Trinkwasser.,geschleudert.,ungefähr,im,wurden,gelegentlichen,noch,350,Wäsche.,sauberen,klassischen,Wetters,mehr,täglichem,einen,Störenfriede,geschleudert.,noch,Skandal,elektrischer,hätten,Wäsche.,hat,"nachgewiesen,",sie,ziemlich,monatlichem,Trinkwassers.,würden,Skandals,elektrische,leider,die,deren,Tiere,Krams,Glas,unzureichenden,kaltem,am,Wetter,Bundespräsident.,"Zeit,",Lärm,weichem,was,eine,"reichem,",liegen,feinem,Störenfriede,derer,feinem,"frischem,",um,Auto,liegen,der,auf,von,vor,war,harten,roten,des,wurden,seltenem,350,roten,Glas,mehr,eine,den,,,,,,,,,,,,,,,,,,,,,,,3,0,3,0,0,5,5,5,,,,,,,space,0.431235074997,,,,,,2017_Jan_25_1359,60.6734057388,spr_backupper,001,Sa14,
,Wurst,um,Flut,den,täglichen,Grases,ruhig,nan,nichts,jeden,Einkommen,Müll.,Helmen,nan,mehr,Wurst,aus,schwarzem,Gras,Esslöffel,Alkohol,Esslöffel,defekt,er,Herrn,nan,nan,drei,Müll.,verschrottet.,Besucher.,eine,ml,nan,Kraftstoff,Schmuck,die,als,grünen,Besucher.,jeden.,nan,eine,wiedergewählt.,Energie.,seiner,nan,den,dass,defekt,"vermiest,",Taschengeld,nan,seiner,wiedergewählt.,Energie.,nichts,Stimmung,sie,artgerecht,aus,köstlicher,Helmen,Abduschen,Hauptbahnhof.,die,nan,um,um,Untergrund,Tupperware,große,goldenen,die,Kunsteis,jeden.,sie,dichten,kaltem,die,mehr,die,Soldaten,jeden,den,Dezember,aus,Schaumstoff,Planeten,Herrn,verschrottet.,dichten,ml,Planet,köstlichen,als,große,Soldaten,,,,,,,,,,,,,,,,,,,,,,,3,0,3,0,0,6,6,6,,,,,,,space,0.822628974915,,,,,,2017_Jan_25_1359,60.6734057388,spr_backupper,001,Sa14,
,,,,,,,,,,,,,,,,,,,,,,,,,,,,,,,,,,,,,,,,,,,,,,,,,,,,,,,,,,,,,,,,,,,,,,,,,,,,,,,,,,,,,,,,,,,,,,,,,,,,,,,,,,,,,,,,,,,,,,,,,3,0,3,0,,,,,,,,,,,,,None,j,12.4774680138,,,2017_Jan_25_1359,60.6734057388,spr_backupper,001,Sa14,
,Ich,Man,Als,Nicht,Ihr,Wir,Fernab,Beträchtliche,Außer,100,Manche,Viele,Die,Beträchtliche,Wir,Ich,Wir,Die,Wir,Er,Die,Er,Die,Die,Die,Sie,Es,Der,Viele,Die,Wir,Sie,In,Dort,Wir,Die,Sie,In,Ich,Wir,Außer,Es,Sie,Er,Die,Die,Dort,Nicht,In,Die,Es,Jugendliche,Sie,Die,Er,Die,Außer,Dass,Es,In,Wir,Bei,Die,Die,Die,Sie,Walter,Jetzt,Man,Jungtiere,Die,Mit,Das,Am,Die,Außer,Es,Er,Sie,In,Wir,Am,Bei,100,In,Unter,Die,Alle,Im,Die,Die,Danach,In,Im,Bei,In,Mit,Bei,,,,,,,,,,,,,,,,,,,,,,,4,0,4,0,0,0,0,0,,,,,,space,space,0.484599113464,,,,0.587173938751,,2017_Jan_25_1359,60.6734057388,spr_backupper,001,Sa14,
,nehme,machte,die,ein,Blutdruck,mussten,des,Stücke,das,g,Kreditnehmer,Tonnen,Kinder,Stücke,übergaben,nehme,haben,müden,mussten,stellt,Lösung,stellt,Uhr,Uhr,Gäste,verbrauchen,wurden,Flug,Tonnen,Autos,hatten,hatte,den,türmen,konnten,Stücke,verlassen,meinem,wurde,hatten,dem,wurden,hatte,wurde,Schule,Schuhe,türmen,ein,einer,Uhr,hat,können,verbrauchen,Schuhe,wurde,Schule,dem,es,waren,diesem,haben,unserer,Kinder,Formen,Linie,verlassen,Scheel,ist,machte,sollten,Teilnehmerinnen,dieser,Tuch,äußersten,Eislaufbahnen,den,waren,hat,haben,der,übergaben,äußeren,der,g,der,keinen,"Uhr,",Betten,Fernrohr,Gäste,Autos,wurde,den,Fernrohr,unserer,meinem,dieser,der,,,,,,,,,,,,,,,,,,,,,,,4,0,4,0,0,1,1,1,,,,,,,space,0.856138944626,,,,,,2017_Jan_25_1359,60.6734057388,spr_backupper,001,Sa14,
,eine,mal,Sonne,Tropfen,kann,uns,Rummels,saftigen,Essen,braunen,sind,gebrauchter,fuhren,saftiges,das,eine,jede,Teilnehmer,uns,die,wird,die,schlug,war,suchen,60,Eimer,zum,gebrauchte,beider,in,keine,Kakao,sich,dann,wurden,wegen,Studium,damals,in,Bürgermeister,Eimer,keine,trotz,verbraucht,in,sich,Tropfen,Studie,schlug,uns,Kleidung,60,in,trotz,verbraucht,Essen,"regnete,",nur,Zirkus,jede,Ankunft,fuhren,wurden,101,wegen,war,genau,mal,immer,wussten,Methode,wurde,Rand,wurden,Bürgermeister,nur,ein,die,Tat,dem,Rand,Feier,brauner,Tat,Umständen,die,wurden,sahen,suchen,beider,die,Kakao,sahen,Ankunft,Studium,Methode,Feier,,,,,,,,,,,,,,,,,,,,,,,4,0,4,0,0,2,2,2,,,,,,,space,0.469974994659,,,,,,2017_Jan_25_1359,60.6734057388,spr_backupper,001,Sa14,
,große,wieder,"unterging,",königliches,schon,durch,wurde,Fleischs,kann,Zuckers,mit,Kleidung,mit,Fleisch,Auto,große,Menge,wurden,durch,Masse,mit,Masse,"sporadisch,",aus,die,Liter,roter,Mond,Kleidung,beteiligten,Dänemark,Lust,gehören,Berge,mit,aus,des,las,schnell,Dänemark,beschuldigten,rote,Lust,dem,260.000,Größe,Berge,königlichen,wurde,"sporadisch,",die,bei,Liter,Größe,des,260.000,kann,hat,kleinere,werden,Menge,stand,mit,unter,hält,dem,der,die,wieder,auf,überwiegend,kann,dann,der,mit,beschuldigten,kleinere,Hemd,Erlebnisse,wissen,Mann,der,gedachte,Zucker,wissen,können,er,mit,wir,die,beteiligter,Leinwand,gehören,wir,stand,habe,kann,gedachte,,,,,,,,,,,,,,,,,,,,,,,4,0,4,0,0,3,3,3,,,,,,,space,0.477108955383,,,,,,2017_Jan_25_1359,60.6734057388,spr_backupper,001,Sa14,
,Packung,viel,war,Blut,bei,Büschel,schon,wurden,ich,sind,"sämtlichem,",landen,solchen,wurden,dem,Packung,alten,mit,Büschel,mit,"reichlichem,",mit,obschon,"Japan,",Wohnung,sprudelndes,Farbe,dauerte,landen,Fahrer,einen,auf,immer,schmutziger,"minimalem,","wertvollem,",schönen,ich,dank,gelegentlich,die,Farbe,auf,bekannten,Kilowattstunden,36,schmutzige,Bluts,jetzt,obwohl,Stimmung,ausreichendem,sprudelnden,36,bekannten,Kilowattstunden,ich,uns,"Delikte,",die,alten,ein,solch,"regelmäßigem,",nicht,schönen,vierte,richtige,viel,warmem,"nicht,",man,mit,Stadt,dauerhaftem,die,"Delikte,",aus,bei,wir,das,Stadt,man,sind,wir,Neuwahlen,"trug,","üblichem,",den,Wohnung,Fahrer,aus,immer,den,ein,ich,man,man,,,,,,,,,,,,,,,,,,,,,,,4,0,4,0,0,4,4,4,,,,,,,space,0.702924013138,,,,,,2017_Jan_25_1359,60.6734057388,spr_backupper,001,Sa14,
,salzige,Lärm,die,hat,minimalem,frischen,immer,serviert.,leider,auf,künftigem,im,unzureichenden,serviert.,Mann,salziger,Kram,zusätzlichem,frisches,einem,purem,einem,sie,die,des,Trinkwasser.,geschleudert.,ungefähr,im,wurden,gelegentlichen,noch,350,Wäsche.,sauberen,klassischen,Wetters,mehr,täglichem,einen,Störenfriede,geschleudert.,noch,Skandal,elektrischer,hätten,Wäsche.,hat,"nachgewiesen,",sie,ziemlich,monatlichem,Trinkwassers.,würden,Skandals,elektrische,leider,die,deren,Tiere,Krams,Glas,unzureichenden,kaltem,am,Wetter,Bundespräsident.,"Zeit,",Lärm,weichem,was,eine,"reichem,",liegen,feinem,Störenfriede,derer,feinem,"frischem,",um,Auto,liegen,der,auf,von,vor,war,harten,roten,des,wurden,seltenem,350,roten,Glas,mehr,eine,den,,,,,,,,,,,,,,,,,,,,,,,4,0,4,0,0,5,5,5,,,,,,,space,0.522933959961,,,,,,2017_Jan_25_1359,60.6734057388,spr_backupper,001,Sa14,
,Wurst,um,Flut,den,täglichen,Grases,ruhig,nan,nichts,jeden,Einkommen,Müll.,Helmen,nan,mehr,Wurst,aus,schwarzem,Gras,Esslöffel,Alkohol,Esslöffel,defekt,er,Herrn,nan,nan,drei,Müll.,verschrottet.,Besucher.,eine,ml,nan,Kraftstoff,Schmuck,die,als,grünen,Besucher.,jeden.,nan,eine,wiedergewählt.,Energie.,seiner,nan,den,dass,defekt,"vermiest,",Taschengeld,nan,seiner,wiedergewählt.,Energie.,nichts,Stimmung,sie,artgerecht,aus,köstlicher,Helmen,Abduschen,Hauptbahnhof.,die,nan,um,um,Untergrund,Tupperware,große,goldenen,die,Kunsteis,jeden.,sie,dichten,kaltem,die,mehr,die,Soldaten,jeden,den,Dezember,aus,Schaumstoff,Planeten,Herrn,verschrottet.,dichten,ml,Planet,köstlichen,als,große,Soldaten,,,,,,,,,,,,,,,,,,,,,,,4,0,4,0,0,6,6,6,,,,,,,space,0.70024394989,,,,,,2017_Jan_25_1359,60.6734057388,spr_backupper,001,Sa14,
,mit,jede,zurückgekehrt.,Boden,Einsatz,zwängen.,diskutiert.,nan,mitbringen.,Fall,haftbar.,nan,zur,nan,als,mit,dem,Kaffee,zwängen.,warmen,verdünnt.,warmem,war.,trug.,Gantenbein.,nan,nan,Tage.,nan,nan,nan,Sammlung,warme,nan,fahren.,umgearbeitet.,Wohnung.,einmal,Tee,nan,nan,nan,Sammlung,nan,nan,Frau,nan,Boden,das,war.,dass,selber,nan,Frau,nan,nan,mitbringen.,ziemlich,überführt,gehalten.,dem,Wein,zur,gehärtet.,nan,Wohnung.,nan,Nadelhölzer,jede,liegen.,ist.,Menge,Besatz,Slums.,eingesprüht.,nan,überführt,Stoff,Saft,Probleme,als,Slums.,des,Fall,Problemen,stattfinden.,Japan.,gefertigt.,ganz,Gantenbeins.,nan,Gewebe,warmer,ganz,Weins,einmal,Menge,des,,,,,,,,,,,,,,,,,,,,,,,4,0,4,0,0,7,7,7,,,,,,,space,2.62841105461,,,,,,2017_Jan_25_1359,60.6734057388,spr_backupper,001,Sa14,
,,,,,,,,,,,,,,,,,,,,,,,,,,,,,,,,,,,,,,,,,,,,,,,,,,,,,,,,,,,,,,,,,,,,,,,,,,,,,,,,,,,,,,,,,,,,,,,,,,,,,,,,,,,,,,,,,,,,,,,,,4,0,4,0,,,,,,,,,,,,,None,j,6.04574799538,,,2017_Jan_25_1359,60.6734057388,spr_backupper,001,Sa14,
,Ich,Man,Als,Nicht,Ihr,Wir,Fernab,Beträchtliche,Außer,100,Manche,Viele,Die,Beträchtliche,Wir,Ich,Wir,Die,Wir,Er,Die,Er,Die,Die,Die,Sie,Es,Der,Viele,Die,Wir,Sie,In,Dort,Wir,Die,Sie,In,Ich,Wir,Außer,Es,Sie,Er,Die,Die,Dort,Nicht,In,Die,Es,Jugendliche,Sie,Die,Er,Die,Außer,Dass,Es,In,Wir,Bei,Die,Die,Die,Sie,Walter,Jetzt,Man,Jungtiere,Die,Mit,Das,Am,Die,Außer,Es,Er,Sie,In,Wir,Am,Bei,100,In,Unter,Die,Alle,Im,Die,Die,Danach,In,Im,Bei,In,Mit,Bei,,,,,,,,,,,,,,,,,,,,,,,5,0,5,0,0,0,0,0,,,,,,None,space,0.602767944336,,,,,,2017_Jan_25_1359,60.6734057388,spr_backupper,001,Sa14,
,nehme,machte,die,ein,Blutdruck,mussten,des,Stücke,das,g,Kreditnehmer,Tonnen,Kinder,Stücke,übergaben,nehme,haben,müden,mussten,stellt,Lösung,stellt,Uhr,Uhr,Gäste,verbrauchen,wurden,Flug,Tonnen,Autos,hatten,hatte,den,türmen,konnten,Stücke,verlassen,meinem,wurde,hatten,dem,wurden,hatte,wurde,Schule,Schuhe,türmen,ein,einer,Uhr,hat,können,verbrauchen,Schuhe,wurde,Schule,dem,es,waren,diesem,haben,unserer,Kinder,Formen,Linie,verlassen,Scheel,ist,machte,sollten,Teilnehmerinnen,dieser,Tuch,äußersten,Eislaufbahnen,den,waren,hat,haben,der,übergaben,äußeren,der,g,der,keinen,"Uhr,",Betten,Fernrohr,Gäste,Autos,wurde,den,Fernrohr,unserer,meinem,dieser,der,,,,,,,,,,,,,,,,,,,,,,,5,0,5,0,0,1,1,1,,,,,,,space,1.11471819878,,,,,,2017_Jan_25_1359,60.6734057388,spr_backupper,001,Sa14,
,eine,mal,Sonne,Tropfen,kann,uns,Rummels,saftigen,Essen,braunen,sind,gebrauchter,fuhren,saftiges,das,eine,jede,Teilnehmer,uns,die,wird,die,schlug,war,suchen,60,Eimer,zum,gebrauchte,beider,in,keine,Kakao,sich,dann,wurden,wegen,Studium,damals,in,Bürgermeister,Eimer,keine,trotz,verbraucht,in,sich,Tropfen,Studie,schlug,uns,Kleidung,60,in,trotz,verbraucht,Essen,"regnete,",nur,Zirkus,jede,Ankunft,fuhren,wurden,101,wegen,war,genau,mal,immer,wussten,Methode,wurde,Rand,wurden,Bürgermeister,nur,ein,die,Tat,dem,Rand,Feier,brauner,Tat,Umständen,die,wurden,sahen,suchen,beider,die,Kakao,sahen,Ankunft,Studium,Methode,Feier,,,,,,,,,,,,,,,,,,,,,,,5,0,5,0,0,2,2,2,,,,,,,space,1.07948303223,,,,,,2017_Jan_25_1359,60.6734057388,spr_backupper,001,Sa14,
,große,wieder,"unterging,",königliches,schon,durch,wurde,Fleischs,kann,Zuckers,mit,Kleidung,mit,Fleisch,Auto,große,Menge,wurden,durch,Masse,mit,Masse,"sporadisch,",aus,die,Liter,roter,Mond,Kleidung,beteiligten,Dänemark,Lust,gehören,Berge,mit,aus,des,las,schnell,Dänemark,beschuldigten,rote,Lust,dem,260.000,Größe,Berge,königlichen,wurde,"sporadisch,",die,bei,Liter,Größe,des,260.000,kann,hat,kleinere,werden,Menge,stand,mit,unter,hält,dem,der,die,wieder,auf,überwiegend,kann,dann,der,mit,beschuldigten,kleinere,Hemd,Erlebnisse,wissen,Mann,der,gedachte,Zucker,wissen,können,er,mit,wir,die,beteiligter,Leinwand,gehören,wir,stand,habe,kann,gedachte,,,,,,,,,,,,,,,,,,,,,,,5,0,5,0,0,3,3,3,,,,,,,space,0.536193847656,,,,,,2017_Jan_25_1359,60.6734057388,spr_backupper,001,Sa14,
,Packung,viel,war,Blut,bei,Büschel,schon,wurden,ich,sind,"sämtlichem,",landen,solchen,wurden,dem,Packung,alten,mit,Büschel,mit,"reichlichem,",mit,obschon,"Japan,",Wohnung,sprudelndes,Farbe,dauerte,landen,Fahrer,einen,auf,immer,schmutziger,"minimalem,","wertvollem,",schönen,ich,dank,gelegentlich,die,Farbe,auf,bekannten,Kilowattstunden,36,schmutzige,Bluts,jetzt,obwohl,Stimmung,ausreichendem,sprudelnden,36,bekannten,Kilowattstunden,ich,uns,"Delikte,",die,alten,ein,solch,"regelmäßigem,",nicht,schönen,vierte,richtige,viel,warmem,"nicht,",man,mit,Stadt,dauerhaftem,die,"Delikte,",aus,bei,wir,das,Stadt,man,sind,wir,Neuwahlen,"trug,","üblichem,",den,Wohnung,Fahrer,aus,immer,den,ein,ich,man,man,,,,,,,,,,,,,,,,,,,,,,,5,0,5,0,0,4,4,4,,,,,,,space,0.76190495491,,,,,,2017_Jan_25_1359,60.6734057388,spr_backupper,001,Sa14,
,salzige,Lärm,die,hat,minimalem,frischen,immer,serviert.,leider,auf,künftigem,im,unzureichenden,serviert.,Mann,salziger,Kram,zusätzlichem,frisches,einem,purem,einem,sie,die,des,Trinkwasser.,geschleudert.,ungefähr,im,wurden,gelegentlichen,noch,350,Wäsche.,sauberen,klassischen,Wetters,mehr,täglichem,einen,Störenfriede,geschleudert.,noch,Skandal,elektrischer,hätten,Wäsche.,hat,"nachgewiesen,",sie,ziemlich,monatlichem,Trinkwassers.,würden,Skandals,elektrische,leider,die,deren,Tiere,Krams,Glas,unzureichenden,kaltem,am,Wetter,Bundespräsident.,"Zeit,",Lärm,weichem,was,eine,"reichem,",liegen,feinem,Störenfriede,derer,feinem,"frischem,",um,Auto,liegen,der,auf,von,vor,war,harten,roten,des,wurden,seltenem,350,roten,Glas,mehr,eine,den,,,,,,,,,,,,,,,,,,,,,,,5,0,5,0,0,5,5,5,,,,,,,space,0.69518995285,,,,,,2017_Jan_25_1359,60.6734057388,spr_backupper,001,Sa14,
,Wurst,um,Flut,den,täglichen,Grases,ruhig,nan,nichts,jeden,Einkommen,Müll.,Helmen,nan,mehr,Wurst,aus,schwarzem,Gras,Esslöffel,Alkohol,Esslöffel,defekt,er,Herrn,nan,nan,drei,Müll.,verschrottet.,Besucher.,eine,ml,nan,Kraftstoff,Schmuck,die,als,grünen,Besucher.,jeden.,nan,eine,wiedergewählt.,Energie.,seiner,nan,den,dass,defekt,"vermiest,",Taschengeld,nan,seiner,wiedergewählt.,Energie.,nichts,Stimmung,sie,artgerecht,aus,köstlicher,Helmen,Abduschen,Hauptbahnhof.,die,nan,um,um,Untergrund,Tupperware,große,goldenen,die,Kunsteis,jeden.,sie,dichten,kaltem,die,mehr,die,Soldaten,jeden,den,Dezember,aus,Schaumstoff,Planeten,Herrn,verschrottet.,dichten,ml,Planet,köstlichen,als,große,Soldaten,,,,,,,,,,,,,,,,,,,,,,,5,0,5,0,0,6,6,6,,,,,,,space,0.608154058456,,,,,,2017_Jan_25_1359,60.6734057388,spr_backupper,001,Sa14,
,mit,jede,zurückgekehrt.,Boden,Einsatz,zwängen.,diskutiert.,nan,mitbringen.,Fall,haftbar.,nan,zur,nan,als,mit,dem,Kaffee,zwängen.,warmen,verdünnt.,warmem,war.,trug.,Gantenbein.,nan,nan,Tage.,nan,nan,nan,Sammlung,warme,nan,fahren.,umgearbeitet.,Wohnung.,einmal,Tee,nan,nan,nan,Sammlung,nan,nan,Frau,nan,Boden,das,war.,dass,selber,nan,Frau,nan,nan,mitbringen.,ziemlich,überführt,gehalten.,dem,Wein,zur,gehärtet.,nan,Wohnung.,nan,Nadelhölzer,jede,liegen.,ist.,Menge,Besatz,Slums.,eingesprüht.,nan,überführt,Stoff,Saft,Probleme,als,Slums.,des,Fall,Problemen,stattfinden.,Japan.,gefertigt.,ganz,Gantenbeins.,nan,Gewebe,warmer,ganz,Weins,einmal,Menge,des,,,,,,,,,,,,,,,,,,,,,,,5,0,5,0,0,7,7,7,,,,,,,space,0.88903594017,,,,,,2017_Jan_25_1359,60.6734057388,spr_backupper,001,Sa14,
,an,Menge,nan,berührt.,sinken.,nan,nan,nan,nan,genug.,nan,nan,Schule.,nan,gerne.,an,Haus,wiederbelebt.,nan,Honigs,nan,Honig,nan,nan,nan,nan,nan,nan,nan,nan,nan,dumme,Milch.,nan,nan,nan,nan,Rilke.,wieder,nan,nan,nan,dummer,nan,nan,gepasst.,nan,berührt.,Medikament,nan,es,kaufen.,nan,gepasst,nan,nan,nan,vermiest.,wurden.,nan,Haus,schon,Schule.,nan,nan,nan,nan,umzusetzen.,Menge,nan,nan,dunkle,rekonstruiert.,nan,nan,nan,wurden.,gefertigt.,besprochen.,im,gerne.,nan,zweiten,genug.,im,nan,nan,nan,deutlich.,nan,nan,wiederhergestellt.,Milch.,deutlich.,schon,Rilke,dunkler,zweiten,,,,,,,,,,,,,,,,,,,,,,,5,0,5,0,0,8,8,8,,,,,,,space,0.889049053192,,,,,,2017_Jan_25_1359,60.6734057388,spr_backupper,001,Sa14,
,,,,,,,,,,,,,,,,,,,,,,,,,,,,,,,,,,,,,,,,,,,,,,,,,,,,,,,,,,,,,,,,,,,,,,,,,,,,,,,,,,,,,,,,,,,,,,,,,,,,,,,,,,,,,,,,,,,,,,,,,5,0,5,0,,,,,,,,,,,,,None,j,6.86358904839,,,2017_Jan_25_1359,60.6734057388,spr_backupper,001,Sa14,
,Ich,Man,Als,Nicht,Ihr,Wir,Fernab,Beträchtliche,Außer,100,Manche,Viele,Die,Beträchtliche,Wir,Ich,Wir,Die,Wir,Er,Die,Er,Die,Die,Die,Sie,Es,Der,Viele,Die,Wir,Sie,In,Dort,Wir,Die,Sie,In,Ich,Wir,Außer,Es,Sie,Er,Die,Die,Dort,Nicht,In,Die,Es,Jugendliche,Sie,Die,Er,Die,Außer,Dass,Es,In,Wir,Bei,Die,Die,Die,Sie,Walter,Jetzt,Man,Jungtiere,Die,Mit,Das,Am,Die,Außer,Es,Er,Sie,In,Wir,Am,Bei,100,In,Unter,Die,Alle,Im,Die,Die,Danach,In,Im,Bei,In,Mit,Bei,,,,,,,,,,,,,,,,,,,,,,,6,0,6,0,0,0,0,0,,,,,,None,space,1.14754915237,,,,,,2017_Jan_25_1359,60.6734057388,spr_backupper,001,Sa14,
,nehme,machte,die,ein,Blutdruck,mussten,des,Stücke,das,g,Kreditnehmer,Tonnen,Kinder,Stücke,übergaben,nehme,haben,müden,mussten,stellt,Lösung,stellt,Uhr,Uhr,Gäste,verbrauchen,wurden,Flug,Tonnen,Autos,hatten,hatte,den,türmen,konnten,Stücke,verlassen,meinem,wurde,hatten,dem,wurden,hatte,wurde,Schule,Schuhe,türmen,ein,einer,Uhr,hat,können,verbrauchen,Schuhe,wurde,Schule,dem,es,waren,diesem,haben,unserer,Kinder,Formen,Linie,verlassen,Scheel,ist,machte,sollten,Teilnehmerinnen,dieser,Tuch,äußersten,Eislaufbahnen,den,waren,hat,haben,der,übergaben,äußeren,der,g,der,keinen,"Uhr,",Betten,Fernrohr,Gäste,Autos,wurde,den,Fernrohr,unserer,meinem,dieser,der,,,,,,,,,,,,,,,,,,,,,,,6,0,6,0,0,1,1,1,,,,,,,space,0.449919939041,,,,,,2017_Jan_25_1359,60.6734057388,spr_backupper,001,Sa14,
,eine,mal,Sonne,Tropfen,kann,uns,Rummels,saftigen,Essen,braunen,sind,gebrauchter,fuhren,saftiges,das,eine,jede,Teilnehmer,uns,die,wird,die,schlug,war,suchen,60,Eimer,zum,gebrauchte,beider,in,keine,Kakao,sich,dann,wurden,wegen,Studium,damals,in,Bürgermeister,Eimer,keine,trotz,verbraucht,in,sich,Tropfen,Studie,schlug,uns,Kleidung,60,in,trotz,verbraucht,Essen,"regnete,",nur,Zirkus,jede,Ankunft,fuhren,wurden,101,wegen,war,genau,mal,immer,wussten,Methode,wurde,Rand,wurden,Bürgermeister,nur,ein,die,Tat,dem,Rand,Feier,brauner,Tat,Umständen,die,wurden,sahen,suchen,beider,die,Kakao,sahen,Ankunft,Studium,Methode,Feier,,,,,,,,,,,,,,,,,,,,,,,6,0,6,0,0,2,2,2,,,,,,,space,0.403340101242,,,,,,2017_Jan_25_1359,60.6734057388,spr_backupper,001,Sa14,
,große,wieder,"unterging,",königliches,schon,durch,wurde,Fleischs,kann,Zuckers,mit,Kleidung,mit,Fleisch,Auto,große,Menge,wurden,durch,Masse,mit,Masse,"sporadisch,",aus,die,Liter,roter,Mond,Kleidung,beteiligten,Dänemark,Lust,gehören,Berge,mit,aus,des,las,schnell,Dänemark,beschuldigten,rote,Lust,dem,260.000,Größe,Berge,königlichen,wurde,"sporadisch,",die,bei,Liter,Größe,des,260.000,kann,hat,kleinere,werden,Menge,stand,mit,unter,hält,dem,der,die,wieder,auf,überwiegend,kann,dann,der,mit,beschuldigten,kleinere,Hemd,Erlebnisse,wissen,Mann,der,gedachte,Zucker,wissen,können,er,mit,wir,die,beteiligter,Leinwand,gehören,wir,stand,habe,kann,gedachte,,,,,,,,,,,,,,,,,,,,,,,6,0,6,0,0,3,3,3,,,,,,,space,0.385674953461,,,,,,2017_Jan_25_1359,60.6734057388,spr_backupper,001,Sa14,
,Packung,viel,war,Blut,bei,Büschel,schon,wurden,ich,sind,"sämtlichem,",landen,solchen,wurden,dem,Packung,alten,mit,Büschel,mit,"reichlichem,",mit,obschon,"Japan,",Wohnung,sprudelndes,Farbe,dauerte,landen,Fahrer,einen,auf,immer,schmutziger,"minimalem,","wertvollem,",schönen,ich,dank,gelegentlich,die,Farbe,auf,bekannten,Kilowattstunden,36,schmutzige,Bluts,jetzt,obwohl,Stimmung,ausreichendem,sprudelnden,36,bekannten,Kilowattstunden,ich,uns,"Delikte,",die,alten,ein,solch,"regelmäßigem,",nicht,schönen,vierte,richtige,viel,warmem,"nicht,",man,mit,Stadt,dauerhaftem,die,"Delikte,",aus,bei,wir,das,Stadt,man,sind,wir,Neuwahlen,"trug,","üblichem,",den,Wohnung,Fahrer,aus,immer,den,ein,ich,man,man,,,,,,,,,,,,,,,,,,,,,,,6,0,6,0,0,4,4,4,,,,,,,space,0.450093984604,,,,,,2017_Jan_25_1359,60.6734057388,spr_backupper,001,Sa14,
,salzige,Lärm,die,hat,minimalem,frischen,immer,serviert.,leider,auf,künftigem,im,unzureichenden,serviert.,Mann,salziger,Kram,zusätzlichem,frisches,einem,purem,einem,sie,die,des,Trinkwasser.,geschleudert.,ungefähr,im,wurden,gelegentlichen,noch,350,Wäsche.,sauberen,klassischen,Wetters,mehr,täglichem,einen,Störenfriede,geschleudert.,noch,Skandal,elektrischer,hätten,Wäsche.,hat,"nachgewiesen,",sie,ziemlich,monatlichem,Trinkwassers.,würden,Skandals,elektrische,leider,die,deren,Tiere,Krams,Glas,unzureichenden,kaltem,am,Wetter,Bundespräsident.,"Zeit,",Lärm,weichem,was,eine,"reichem,",liegen,feinem,Störenfriede,derer,feinem,"frischem,",um,Auto,liegen,der,auf,von,vor,war,harten,roten,des,wurden,seltenem,350,roten,Glas,mehr,eine,den,,,,,,,,,,,,,,,,,,,,,,,6,0,6,0,0,5,5,5,,,,,,,space,0.40321803093,,,,,,2017_Jan_25_1359,60.6734057388,spr_backupper,001,Sa14,
,Wurst,um,Flut,den,täglichen,Grases,ruhig,nan,nichts,jeden,Einkommen,Müll.,Helmen,nan,mehr,Wurst,aus,schwarzem,Gras,Esslöffel,Alkohol,Esslöffel,defekt,er,Herrn,nan,nan,drei,Müll.,verschrottet.,Besucher.,eine,ml,nan,Kraftstoff,Schmuck,die,als,grünen,Besucher.,jeden.,nan,eine,wiedergewählt.,Energie.,seiner,nan,den,dass,defekt,"vermiest,",Taschengeld,nan,seiner,wiedergewählt.,Energie.,nichts,Stimmung,sie,artgerecht,aus,köstlicher,Helmen,Abduschen,Hauptbahnhof.,die,nan,um,um,Untergrund,Tupperware,große,goldenen,die,Kunsteis,jeden.,sie,dichten,kaltem,die,mehr,die,Soldaten,jeden,den,Dezember,aus,Schaumstoff,Planeten,Herrn,verschrottet.,dichten,ml,Planet,köstlichen,als,große,Soldaten,,,,,,,,,,,,,,,,,,,,,,,6,0,6,0,0,6,6,6,,,,,,,space,0.385496139526,,,,,,2017_Jan_25_1359,60.6734057388,spr_backupper,001,Sa14,
,mit,jede,zurückgekehrt.,Boden,Einsatz,zwängen.,diskutiert.,nan,mitbringen.,Fall,haftbar.,nan,zur,nan,als,mit,dem,Kaffee,zwängen.,warmen,verdünnt.,warmem,war.,trug.,Gantenbein.,nan,nan,Tage.,nan,nan,nan,Sammlung,warme,nan,fahren.,umgearbeitet.,Wohnung.,einmal,Tee,nan,nan,nan,Sammlung,nan,nan,Frau,nan,Boden,das,war.,dass,selber,nan,Frau,nan,nan,mitbringen.,ziemlich,überführt,gehalten.,dem,Wein,zur,gehärtet.,nan,Wohnung.,nan,Nadelhölzer,jede,liegen.,ist.,Menge,Besatz,Slums.,eingesprüht.,nan,überführt,Stoff,Saft,Probleme,als,Slums.,des,Fall,Problemen,stattfinden.,Japan.,gefertigt.,ganz,Gantenbeins.,nan,Gewebe,warmer,ganz,Weins,einmal,Menge,des,,,,,,,,,,,,,,,,,,,,,,,6,0,6,0,0,7,7,7,,,,,,,space,0.923069000244,,,,,,2017_Jan_25_1359,60.6734057388,spr_backupper,001,Sa14,
,,,,,,,,,,,,,,,,,,,,,,,,,,,,,,,,,,,,,,,,,,,,,,,,,,,,,,,,,,,,,,,,,,,,,,,,,,,,,,,,,,,,,,,,,,,,,,,,,,,,,,,,,,,,,,,,,,,,,,,,,6,0,6,0,,,,,,,,,,,,,None,j,3.62060689926,,,2017_Jan_25_1359,60.6734057388,spr_backupper,001,Sa14,
,Ich,Man,Als,Nicht,Ihr,Wir,Fernab,Beträchtliche,Außer,100,Manche,Viele,Die,Beträchtliche,Wir,Ich,Wir,Die,Wir,Er,Die,Er,Die,Die,Die,Sie,Es,Der,Viele,Die,Wir,Sie,In,Dort,Wir,Die,Sie,In,Ich,Wir,Außer,Es,Sie,Er,Die,Die,Dort,Nicht,In,Die,Es,Jugendliche,Sie,Die,Er,Die,Außer,Dass,Es,In,Wir,Bei,Die,Die,Die,Sie,Walter,Jetzt,Man,Jungtiere,Die,Mit,Das,Am,Die,Außer,Es,Er,Sie,In,Wir,Am,Bei,100,In,Unter,Die,Alle,Im,Die,Die,Danach,In,Im,Bei,In,Mit,Bei,,,,,,,,,,,,,,,,,,,,,,,7,0,7,0,0,0,0,0,,,,,,space,space,0.386728048325,,,,0.519872903824,,2017_Jan_25_1359,60.6734057388,spr_backupper,001,Sa14,
,nehme,machte,die,ein,Blutdruck,mussten,des,Stücke,das,g,Kreditnehmer,Tonnen,Kinder,Stücke,übergaben,nehme,haben,müden,mussten,stellt,Lösung,stellt,Uhr,Uhr,Gäste,verbrauchen,wurden,Flug,Tonnen,Autos,hatten,hatte,den,türmen,konnten,Stücke,verlassen,meinem,wurde,hatten,dem,wurden,hatte,wurde,Schule,Schuhe,türmen,ein,einer,Uhr,hat,können,verbrauchen,Schuhe,wurde,Schule,dem,es,waren,diesem,haben,unserer,Kinder,Formen,Linie,verlassen,Scheel,ist,machte,sollten,Teilnehmerinnen,dieser,Tuch,äußersten,Eislaufbahnen,den,waren,hat,haben,der,übergaben,äußeren,der,g,der,keinen,"Uhr,",Betten,Fernrohr,Gäste,Autos,wurde,den,Fernrohr,unserer,meinem,dieser,der,,,,,,,,,,,,,,,,,,,,,,,7,0,7,0,0,1,1,1,,,,,,,space,0.327988147736,,,,,,2017_Jan_25_1359,60.6734057388,spr_backupper,001,Sa14,
,eine,mal,Sonne,Tropfen,kann,uns,Rummels,saftigen,Essen,braunen,sind,gebrauchter,fuhren,saftiges,das,eine,jede,Teilnehmer,uns,die,wird,die,schlug,war,suchen,60,Eimer,zum,gebrauchte,beider,in,keine,Kakao,sich,dann,wurden,wegen,Studium,damals,in,Bürgermeister,Eimer,keine,trotz,verbraucht,in,sich,Tropfen,Studie,schlug,uns,Kleidung,60,in,trotz,verbraucht,Essen,"regnete,",nur,Zirkus,jede,Ankunft,fuhren,wurden,101,wegen,war,genau,mal,immer,wussten,Methode,wurde,Rand,wurden,Bürgermeister,nur,ein,die,Tat,dem,Rand,Feier,brauner,Tat,Umständen,die,wurden,sahen,suchen,beider,die,Kakao,sahen,Ankunft,Studium,Methode,Feier,,,,,,,,,,,,,,,,,,,,,,,7,0,7,0,0,2,2,2,,,,,,,space,0.36897277832,,,,,,2017_Jan_25_1359,60.6734057388,spr_backupper,001,Sa14,
,große,wieder,"unterging,",königliches,schon,durch,wurde,Fleischs,kann,Zuckers,mit,Kleidung,mit,Fleisch,Auto,große,Menge,wurden,durch,Masse,mit,Masse,"sporadisch,",aus,die,Liter,roter,Mond,Kleidung,beteiligten,Dänemark,Lust,gehören,Berge,mit,aus,des,las,schnell,Dänemark,beschuldigten,rote,Lust,dem,260.000,Größe,Berge,königlichen,wurde,"sporadisch,",die,bei,Liter,Größe,des,260.000,kann,hat,kleinere,werden,Menge,stand,mit,unter,hält,dem,der,die,wieder,auf,überwiegend,kann,dann,der,mit,beschuldigten,kleinere,Hemd,Erlebnisse,wissen,Mann,der,gedachte,Zucker,wissen,können,er,mit,wir,die,beteiligter,Leinwand,gehören,wir,stand,habe,kann,gedachte,,,,,,,,,,,,,,,,,,,,,,,7,0,7,0,0,3,3,3,,,,,,,space,0.772114038467,,,,,,2017_Jan_25_1359,60.6734057388,spr_backupper,001,Sa14,
,Packung,viel,war,Blut,bei,Büschel,schon,wurden,ich,sind,"sämtlichem,",landen,solchen,wurden,dem,Packung,alten,mit,Büschel,mit,"reichlichem,",mit,obschon,"Japan,",Wohnung,sprudelndes,Farbe,dauerte,landen,Fahrer,einen,auf,immer,schmutziger,"minimalem,","wertvollem,",schönen,ich,dank,gelegentlich,die,Farbe,auf,bekannten,Kilowattstunden,36,schmutzige,Bluts,jetzt,obwohl,Stimmung,ausreichendem,sprudelnden,36,bekannten,Kilowattstunden,ich,uns,"Delikte,",die,alten,ein,solch,"regelmäßigem,",nicht,schönen,vierte,richtige,viel,warmem,"nicht,",man,mit,Stadt,dauerhaftem,die,"Delikte,",aus,bei,wir,das,Stadt,man,sind,wir,Neuwahlen,"trug,","üblichem,",den,Wohnung,Fahrer,aus,immer,den,ein,ich,man,man,,,,,,,,,,,,,,,,,,,,,,,7,0,7,0,0,4,4,4,,,,,,,space,0.672080993652,,,,,,2017_Jan_25_1359,60.6734057388,spr_backupper,001,Sa14,
,salzige,Lärm,die,hat,minimalem,frischen,immer,serviert.,leider,auf,künftigem,im,unzureichenden,serviert.,Mann,salziger,Kram,zusätzlichem,frisches,einem,purem,einem,sie,die,des,Trinkwasser.,geschleudert.,ungefähr,im,wurden,gelegentlichen,noch,350,Wäsche.,sauberen,klassischen,Wetters,mehr,täglichem,einen,Störenfriede,geschleudert.,noch,Skandal,elektrischer,hätten,Wäsche.,hat,"nachgewiesen,",sie,ziemlich,monatlichem,Trinkwassers.,würden,Skandals,elektrische,leider,die,deren,Tiere,Krams,Glas,unzureichenden,kaltem,am,Wetter,Bundespräsident.,"Zeit,",Lärm,weichem,was,eine,"reichem,",liegen,feinem,Störenfriede,derer,feinem,"frischem,",um,Auto,liegen,der,auf,von,vor,war,harten,roten,des,wurden,seltenem,350,roten,Glas,mehr,eine,den,,,,,,,,,,,,,,,,,,,,,,,7,0,7,0,0,5,5,5,,,,,,,space,0.661389827728,,,,,,2017_Jan_25_1359,60.6734057388,spr_backupper,001,Sa14,
,Wurst,um,Flut,den,täglichen,Grases,ruhig,nan,nichts,jeden,Einkommen,Müll.,Helmen,nan,mehr,Wurst,aus,schwarzem,Gras,Esslöffel,Alkohol,Esslöffel,defekt,er,Herrn,nan,nan,drei,Müll.,verschrottet.,Besucher.,eine,ml,nan,Kraftstoff,Schmuck,die,als,grünen,Besucher.,jeden.,nan,eine,wiedergewählt.,Energie.,seiner,nan,den,dass,defekt,"vermiest,",Taschengeld,nan,seiner,wiedergewählt.,Energie.,nichts,Stimmung,sie,artgerecht,aus,köstlicher,Helmen,Abduschen,Hauptbahnhof.,die,nan,um,um,Untergrund,Tupperware,große,goldenen,die,Kunsteis,jeden.,sie,dichten,kaltem,die,mehr,die,Soldaten,jeden,den,Dezember,aus,Schaumstoff,Planeten,Herrn,verschrottet.,dichten,ml,Planet,köstlichen,als,große,Soldaten,,,,,,,,,,,,,,,,,,,,,,,7,0,7,0,0,6,6,6,,,,,,,space,0.578486919403,,,,,,2017_Jan_25_1359,60.6734057388,spr_backupper,001,Sa14,
,mit,jede,zurückgekehrt.,Boden,Einsatz,zwängen.,diskutiert.,nan,mitbringen.,Fall,haftbar.,nan,zur,nan,als,mit,dem,Kaffee,zwängen.,warmen,verdünnt.,warmem,war.,trug.,Gantenbein.,nan,nan,Tage.,nan,nan,nan,Sammlung,warme,nan,fahren.,umgearbeitet.,Wohnung.,einmal,Tee,nan,nan,nan,Sammlung,nan,nan,Frau,nan,Boden,das,war.,dass,selber,nan,Frau,nan,nan,mitbringen.,ziemlich,überführt,gehalten.,dem,Wein,zur,gehärtet.,nan,Wohnung.,nan,Nadelhölzer,jede,liegen.,ist.,Menge,Besatz,Slums.,eingesprüht.,nan,überführt,Stoff,Saft,Probleme,als,Slums.,des,Fall,Problemen,stattfinden.,Japan.,gefertigt.,ganz,Gantenbeins.,nan,Gewebe,warmer,ganz,Weins,einmal,Menge,des,,,,,,,,,,,,,,,,,,,,,,,7,0,7,0,0,7,7,7,,,,,,,space,1.39668607712,,,,,,2017_Jan_25_1359,60.6734057388,spr_backupper,001,Sa14,
,,,,,,,,,,,,,,,,,,,,,,,,,,,,,,,,,,,,,,,,,,,,,,,,,,,,,,,,,,,,,,,,,,,,,,,,,,,,,,,,,,,,,,,,,,,,,,,,,,,,,,,,,,,,,,,,,,,,,,,,,7,0,7,0,,,,,,,,,,,,,None,n,12.0360929966,,,2017_Jan_25_1359,60.6734057388,spr_backupper,001,Sa14,
,Ich,Man,Als,Nicht,Ihr,Wir,Fernab,Beträchtliche,Außer,100,Manche,Viele,Die,Beträchtliche,Wir,Ich,Wir,Die,Wir,Er,Die,Er,Die,Die,Die,Sie,Es,Der,Viele,Die,Wir,Sie,In,Dort,Wir,Die,Sie,In,Ich,Wir,Außer,Es,Sie,Er,Die,Die,Dort,Nicht,In,Die,Es,Jugendliche,Sie,Die,Er,Die,Außer,Dass,Es,In,Wir,Bei,Die,Die,Die,Sie,Walter,Jetzt,Man,Jungtiere,Die,Mit,Das,Am,Die,Außer,Es,Er,Sie,In,Wir,Am,Bei,100,In,Unter,Die,Alle,Im,Die,Die,Danach,In,Im,Bei,In,Mit,Bei,,,,,,,,,,,,,,,,,,,,,,,8,0,8,0,0,0,0,0,,,,,,None,space,1.27518081665,,,,,,2017_Jan_25_1359,60.6734057388,spr_backupper,001,Sa14,
,nehme,machte,die,ein,Blutdruck,mussten,des,Stücke,das,g,Kreditnehmer,Tonnen,Kinder,Stücke,übergaben,nehme,haben,müden,mussten,stellt,Lösung,stellt,Uhr,Uhr,Gäste,verbrauchen,wurden,Flug,Tonnen,Autos,hatten,hatte,den,türmen,konnten,Stücke,verlassen,meinem,wurde,hatten,dem,wurden,hatte,wurde,Schule,Schuhe,türmen,ein,einer,Uhr,hat,können,verbrauchen,Schuhe,wurde,Schule,dem,es,waren,diesem,haben,unserer,Kinder,Formen,Linie,verlassen,Scheel,ist,machte,sollten,Teilnehmerinnen,dieser,Tuch,äußersten,Eislaufbahnen,den,waren,hat,haben,der,übergaben,äußeren,der,g,der,keinen,"Uhr,",Betten,Fernrohr,Gäste,Autos,wurde,den,Fernrohr,unserer,meinem,dieser,der,,,,,,,,,,,,,,,,,,,,,,,8,0,8,0,0,1,1,1,,,,,,,space,0.426712036133,,,,,,2017_Jan_25_1359,60.6734057388,spr_backupper,001,Sa14,
,eine,mal,Sonne,Tropfen,kann,uns,Rummels,saftigen,Essen,braunen,sind,gebrauchter,fuhren,saftiges,das,eine,jede,Teilnehmer,uns,die,wird,die,schlug,war,suchen,60,Eimer,zum,gebrauchte,beider,in,keine,Kakao,sich,dann,wurden,wegen,Studium,damals,in,Bürgermeister,Eimer,keine,trotz,verbraucht,in,sich,Tropfen,Studie,schlug,uns,Kleidung,60,in,trotz,verbraucht,Essen,"regnete,",nur,Zirkus,jede,Ankunft,fuhren,wurden,101,wegen,war,genau,mal,immer,wussten,Methode,wurde,Rand,wurden,Bürgermeister,nur,ein,die,Tat,dem,Rand,Feier,brauner,Tat,Umständen,die,wurden,sahen,suchen,beider,die,Kakao,sahen,Ankunft,Studium,Methode,Feier,,,,,,,,,,,,,,,,,,,,,,,8,0,8,0,0,2,2,2,,,,,,,space,0.446500062943,,,,,,2017_Jan_25_1359,60.6734057388,spr_backupper,001,Sa14,
,große,wieder,"unterging,",königliches,schon,durch,wurde,Fleischs,kann,Zuckers,mit,Kleidung,mit,Fleisch,Auto,große,Menge,wurden,durch,Masse,mit,Masse,"sporadisch,",aus,die,Liter,roter,Mond,Kleidung,beteiligten,Dänemark,Lust,gehören,Berge,mit,aus,des,las,schnell,Dänemark,beschuldigten,rote,Lust,dem,260.000,Größe,Berge,königlichen,wurde,"sporadisch,",die,bei,Liter,Größe,des,260.000,kann,hat,kleinere,werden,Menge,stand,mit,unter,hält,dem,der,die,wieder,auf,überwiegend,kann,dann,der,mit,beschuldigten,kleinere,Hemd,Erlebnisse,wissen,Mann,der,gedachte,Zucker,wissen,können,er,mit,wir,die,beteiligter,Leinwand,gehören,wir,stand,habe,kann,gedachte,,,,,,,,,,,,,,,,,,,,,,,8,0,8,0,0,3,3,3,,,,,,,space,0.568047046661,,,,,,2017_Jan_25_1359,60.6734057388,spr_backupper,001,Sa14,
,Packung,viel,war,Blut,bei,Büschel,schon,wurden,ich,sind,"sämtlichem,",landen,solchen,wurden,dem,Packung,alten,mit,Büschel,mit,"reichlichem,",mit,obschon,"Japan,",Wohnung,sprudelndes,Farbe,dauerte,landen,Fahrer,einen,auf,immer,schmutziger,"minimalem,","wertvollem,",schönen,ich,dank,gelegentlich,die,Farbe,auf,bekannten,Kilowattstunden,36,schmutzige,Bluts,jetzt,obwohl,Stimmung,ausreichendem,sprudelnden,36,bekannten,Kilowattstunden,ich,uns,"Delikte,",die,alten,ein,solch,"regelmäßigem,",nicht,schönen,vierte,richtige,viel,warmem,"nicht,",man,mit,Stadt,dauerhaftem,die,"Delikte,",aus,bei,wir,das,Stadt,man,sind,wir,Neuwahlen,"trug,","üblichem,",den,Wohnung,Fahrer,aus,immer,den,ein,ich,man,man,,,,,,,,,,,,,,,,,,,,,,,8,0,8,0,0,4,4,4,,,,,,,space,0.461093902588,,,,,,2017_Jan_25_1359,60.6734057388,spr_backupper,001,Sa14,
,salzige,Lärm,die,hat,minimalem,frischen,immer,serviert.,leider,auf,künftigem,im,unzureichenden,serviert.,Mann,salziger,Kram,zusätzlichem,frisches,einem,purem,einem,sie,die,des,Trinkwasser.,geschleudert.,ungefähr,im,wurden,gelegentlichen,noch,350,Wäsche.,sauberen,klassischen,Wetters,mehr,täglichem,einen,Störenfriede,geschleudert.,noch,Skandal,elektrischer,hätten,Wäsche.,hat,"nachgewiesen,",sie,ziemlich,monatlichem,Trinkwassers.,würden,Skandals,elektrische,leider,die,deren,Tiere,Krams,Glas,unzureichenden,kaltem,am,Wetter,Bundespräsident.,"Zeit,",Lärm,weichem,was,eine,"reichem,",liegen,feinem,Störenfriede,derer,feinem,"frischem,",um,Auto,liegen,der,auf,von,vor,war,harten,roten,des,wurden,seltenem,350,roten,Glas,mehr,eine,den,,,,,,,,,,,,,,,,,,,,,,,8,0,8,0,0,5,5,5,,,,,,,space,0.570480108261,,,,,,2017_Jan_25_1359,60.6734057388,spr_backupper,001,Sa14,
,Wurst,um,Flut,den,täglichen,Grases,ruhig,nan,nichts,jeden,Einkommen,Müll.,Helmen,nan,mehr,Wurst,aus,schwarzem,Gras,Esslöffel,Alkohol,Esslöffel,defekt,er,Herrn,nan,nan,drei,Müll.,verschrottet.,Besucher.,eine,ml,nan,Kraftstoff,Schmuck,die,als,grünen,Besucher.,jeden.,nan,eine,wiedergewählt.,Energie.,seiner,nan,den,dass,defekt,"vermiest,",Taschengeld,nan,seiner,wiedergewählt.,Energie.,nichts,Stimmung,sie,artgerecht,aus,köstlicher,Helmen,Abduschen,Hauptbahnhof.,die,nan,um,um,Untergrund,Tupperware,große,goldenen,die,Kunsteis,jeden.,sie,dichten,kaltem,die,mehr,die,Soldaten,jeden,den,Dezember,aus,Schaumstoff,Planeten,Herrn,verschrottet.,dichten,ml,Planet,köstlichen,als,große,Soldaten,,,,,,,,,,,,,,,,,,,,,,,8,0,8,0,0,6,6,6,,,,,,,space,0.704912900925,,,,,,2017_Jan_25_1359,60.6734057388,spr_backupper,001,Sa14,
,mit,jede,zurückgekehrt.,Boden,Einsatz,zwängen.,diskutiert.,nan,mitbringen.,Fall,haftbar.,nan,zur,nan,als,mit,dem,Kaffee,zwängen.,warmen,verdünnt.,warmem,war.,trug.,Gantenbein.,nan,nan,Tage.,nan,nan,nan,Sammlung,warme,nan,fahren.,umgearbeitet.,Wohnung.,einmal,Tee,nan,nan,nan,Sammlung,nan,nan,Frau,nan,Boden,das,war.,dass,selber,nan,Frau,nan,nan,mitbringen.,ziemlich,überführt,gehalten.,dem,Wein,zur,gehärtet.,nan,Wohnung.,nan,Nadelhölzer,jede,liegen.,ist.,Menge,Besatz,Slums.,eingesprüht.,nan,überführt,Stoff,Saft,Probleme,als,Slums.,des,Fall,Problemen,stattfinden.,Japan.,gefertigt.,ganz,Gantenbeins.,nan,Gewebe,warmer,ganz,Weins,einmal,Menge,des,,,,,,,,,,,,,,,,,,,,,,,8,0,8,0,0,7,7,7,,,,,,,space,0.990478992462,,,,,,2017_Jan_25_1359,60.6734057388,spr_backupper,001,Sa14,
,an,Menge,nan,berührt.,sinken.,nan,nan,nan,nan,genug.,nan,nan,Schule.,nan,gerne.,an,Haus,wiederbelebt.,nan,Honigs,nan,Honig,nan,nan,nan,nan,nan,nan,nan,nan,nan,dumme,Milch.,nan,nan,nan,nan,Rilke.,wieder,nan,nan,nan,dummer,nan,nan,gepasst.,nan,berührt.,Medikament,nan,es,kaufen.,nan,gepasst,nan,nan,nan,vermiest.,wurden.,nan,Haus,schon,Schule.,nan,nan,nan,nan,umzusetzen.,Menge,nan,nan,dunkle,rekonstruiert.,nan,nan,nan,wurden.,gefertigt.,besprochen.,im,gerne.,nan,zweiten,genug.,im,nan,nan,nan,deutlich.,nan,nan,wiederhergestellt.,Milch.,deutlich.,schon,Rilke,dunkler,zweiten,,,,,,,,,,,,,,,,,,,,,,,8,0,8,0,0,8,8,8,,,,,,,space,0.616364002228,,,,,,2017_Jan_25_1359,60.6734057388,spr_backupper,001,Sa14,
,den,heiße,nan,nan,nan,nan,nan,nan,nan,nan,nan,nan,nan,nan,nan,den,geschafft.,nan,nan,her.,nan,her.,nan,nan,nan,nan,nan,nan,nan,nan,nan,Sprüche.,nan,nan,nan,nan,nan,nan,fit.,nan,nan,nan,Sprüche.,nan,nan,nan,nan,nan,nicht,nan,regnete.,nan,nan,haben.,nan,nan,nan,nan,nan,nan,geschafft.,auf,nan,nan,nan,nan,nan,nan,heißer,nan,nan,Materie,nan,nan,nan,nan,nan,nan,nan,Landkreis.,nan,nan,Weltkriegs.,nan,Landkreis.,nan,nan,nan,nan,nan,nan,nan,nan,nan,auf,gelesen.,Materie,Weltkriegs.,,,,,,,,,,,,,,,,,,,,,,,8,0,8,0,0,9,9,9,,,,,,,space,0.53163599968,,,,,,2017_Jan_25_1359,60.6734057388,spr_backupper,001,Sa14,
,See.,Luft.,nan,nan,nan,nan,nan,nan,nan,nan,nan,nan,nan,nan,nan,See.,nan,nan,nan,nan,nan,nan,nan,nan,nan,nan,nan,nan,nan,nan,nan,nan,nan,nan,nan,nan,nan,nan,nan,nan,nan,nan,nan,nan,nan,nan,nan,nan,wirkt.,nan,nan,nan,nan,nan,nan,nan,nan,nan,nan,nan,nan,dem,nan,nan,nan,nan,nan,nan,Luft.,nan,nan,erzeugen.,nan,nan,nan,nan,nan,nan,nan,nan,nan,nan,nan,nan,nan,nan,nan,nan,nan,nan,nan,nan,nan,nan,dem,nan,erzeugen.,nan,,,,,,,,,,,,,,,,,,,,,,,8,0,8,0,0,10,10,10,,,,,,,space,0.771751880646,,,,,,2017_Jan_25_1359,60.6734057388,spr_backupper,001,Sa14,
,,,,,,,,,,,,,,,,,,,,,,,,,,,,,,,,,,,,,,,,,,,,,,,,,,,,,,,,,,,,,,,,,,,,,,,,,,,,,,,,,,,,,,,,,,,,,,,,,,,,,,,,,,,,,,,,,,,,,,,,,8,0,8,0,,,,,,,,,,,,,None,n,3.21996188164,,,2017_Jan_25_1359,60.6734057388,spr_backupper,001,Sa14,
,Ich,Man,Als,Nicht,Ihr,Wir,Fernab,Beträchtliche,Außer,100,Manche,Viele,Die,Beträchtliche,Wir,Ich,Wir,Die,Wir,Er,Die,Er,Die,Die,Die,Sie,Es,Der,Viele,Die,Wir,Sie,In,Dort,Wir,Die,Sie,In,Ich,Wir,Außer,Es,Sie,Er,Die,Die,Dort,Nicht,In,Die,Es,Jugendliche,Sie,Die,Er,Die,Außer,Dass,Es,In,Wir,Bei,Die,Die,Die,Sie,Walter,Jetzt,Man,Jungtiere,Die,Mit,Das,Am,Die,Außer,Es,Er,Sie,In,Wir,Am,Bei,100,In,Unter,Die,Alle,Im,Die,Die,Danach,In,Im,Bei,In,Mit,Bei,,,,,,,,,,,,,,,,,,,,,,,9,0,9,0,0,0,0,0,,,,,,None,space,0.773469209671,,,,,,2017_Jan_25_1359,60.6734057388,spr_backupper,001,Sa14,
,nehme,machte,die,ein,Blutdruck,mussten,des,Stücke,das,g,Kreditnehmer,Tonnen,Kinder,Stücke,übergaben,nehme,haben,müden,mussten,stellt,Lösung,stellt,Uhr,Uhr,Gäste,verbrauchen,wurden,Flug,Tonnen,Autos,hatten,hatte,den,türmen,konnten,Stücke,verlassen,meinem,wurde,hatten,dem,wurden,hatte,wurde,Schule,Schuhe,türmen,ein,einer,Uhr,hat,können,verbrauchen,Schuhe,wurde,Schule,dem,es,waren,diesem,haben,unserer,Kinder,Formen,Linie,verlassen,Scheel,ist,machte,sollten,Teilnehmerinnen,dieser,Tuch,äußersten,Eislaufbahnen,den,waren,hat,haben,der,übergaben,äußeren,der,g,der,keinen,"Uhr,",Betten,Fernrohr,Gäste,Autos,wurde,den,Fernrohr,unserer,meinem,dieser,der,,,,,,,,,,,,,,,,,,,,,,,9,0,9,0,0,1,1,1,,,,,,,space,0.409596204758,,,,,,2017_Jan_25_1359,60.6734057388,spr_backupper,001,Sa14,
,eine,mal,Sonne,Tropfen,kann,uns,Rummels,saftigen,Essen,braunen,sind,gebrauchter,fuhren,saftiges,das,eine,jede,Teilnehmer,uns,die,wird,die,schlug,war,suchen,60,Eimer,zum,gebrauchte,beider,in,keine,Kakao,sich,dann,wurden,wegen,Studium,damals,in,Bürgermeister,Eimer,keine,trotz,verbraucht,in,sich,Tropfen,Studie,schlug,uns,Kleidung,60,in,trotz,verbraucht,Essen,"regnete,",nur,Zirkus,jede,Ankunft,fuhren,wurden,101,wegen,war,genau,mal,immer,wussten,Methode,wurde,Rand,wurden,Bürgermeister,nur,ein,die,Tat,dem,Rand,Feier,brauner,Tat,Umständen,die,wurden,sahen,suchen,beider,die,Kakao,sahen,Ankunft,Studium,Methode,Feier,,,,,,,,,,,,,,,,,,,,,,,9,0,9,0,0,2,2,2,,,,,,,space,0.360576152802,,,,,,2017_Jan_25_1359,60.6734057388,spr_backupper,001,Sa14,
,große,wieder,"unterging,",königliches,schon,durch,wurde,Fleischs,kann,Zuckers,mit,Kleidung,mit,Fleisch,Auto,große,Menge,wurden,durch,Masse,mit,Masse,"sporadisch,",aus,die,Liter,roter,Mond,Kleidung,beteiligten,Dänemark,Lust,gehören,Berge,mit,aus,des,las,schnell,Dänemark,beschuldigten,rote,Lust,dem,260.000,Größe,Berge,königlichen,wurde,"sporadisch,",die,bei,Liter,Größe,des,260.000,kann,hat,kleinere,werden,Menge,stand,mit,unter,hält,dem,der,die,wieder,auf,überwiegend,kann,dann,der,mit,beschuldigten,kleinere,Hemd,Erlebnisse,wissen,Mann,der,gedachte,Zucker,wissen,können,er,mit,wir,die,beteiligter,Leinwand,gehören,wir,stand,habe,kann,gedachte,,,,,,,,,,,,,,,,,,,,,,,9,0,9,0,0,3,3,3,,,,,,,space,0.386708021164,,,,,,2017_Jan_25_1359,60.6734057388,spr_backupper,001,Sa14,
,Packung,viel,war,Blut,bei,Büschel,schon,wurden,ich,sind,"sämtlichem,",landen,solchen,wurden,dem,Packung,alten,mit,Büschel,mit,"reichlichem,",mit,obschon,"Japan,",Wohnung,sprudelndes,Farbe,dauerte,landen,Fahrer,einen,auf,immer,schmutziger,"minimalem,","wertvollem,",schönen,ich,dank,gelegentlich,die,Farbe,auf,bekannten,Kilowattstunden,36,schmutzige,Bluts,jetzt,obwohl,Stimmung,ausreichendem,sprudelnden,36,bekannten,Kilowattstunden,ich,uns,"Delikte,",die,alten,ein,solch,"regelmäßigem,",nicht,schönen,vierte,richtige,viel,warmem,"nicht,",man,mit,Stadt,dauerhaftem,die,"Delikte,",aus,bei,wir,das,Stadt,man,sind,wir,Neuwahlen,"trug,","üblichem,",den,Wohnung,Fahrer,aus,immer,den,ein,ich,man,man,,,,,,,,,,,,,,,,,,,,,,,9,0,9,0,0,4,4,4,,,,,,,space,0.625870943069,,,,,,2017_Jan_25_1359,60.6734057388,spr_backupper,001,Sa14,
,salzige,Lärm,die,hat,minimalem,frischen,immer,serviert.,leider,auf,künftigem,im,unzureichenden,serviert.,Mann,salziger,Kram,zusätzlichem,frisches,einem,purem,einem,sie,die,des,Trinkwasser.,geschleudert.,ungefähr,im,wurden,gelegentlichen,noch,350,Wäsche.,sauberen,klassischen,Wetters,mehr,täglichem,einen,Störenfriede,geschleudert.,noch,Skandal,elektrischer,hätten,Wäsche.,hat,"nachgewiesen,",sie,ziemlich,monatlichem,Trinkwassers.,würden,Skandals,elektrische,leider,die,deren,Tiere,Krams,Glas,unzureichenden,kaltem,am,Wetter,Bundespräsident.,"Zeit,",Lärm,weichem,was,eine,"reichem,",liegen,feinem,Störenfriede,derer,feinem,"frischem,",um,Auto,liegen,der,auf,von,vor,war,harten,roten,des,wurden,seltenem,350,roten,Glas,mehr,eine,den,,,,,,,,,,,,,,,,,,,,,,,9,0,9,0,0,5,5,5,,,,,,,space,0.494505882263,,,,,,2017_Jan_25_1359,60.6734057388,spr_backupper,001,Sa14,
,Wurst,um,Flut,den,täglichen,Grases,ruhig,nan,nichts,jeden,Einkommen,Müll.,Helmen,nan,mehr,Wurst,aus,schwarzem,Gras,Esslöffel,Alkohol,Esslöffel,defekt,er,Herrn,nan,nan,drei,Müll.,verschrottet.,Besucher.,eine,ml,nan,Kraftstoff,Schmuck,die,als,grünen,Besucher.,jeden.,nan,eine,wiedergewählt.,Energie.,seiner,nan,den,dass,defekt,"vermiest,",Taschengeld,nan,seiner,wiedergewählt.,Energie.,nichts,Stimmung,sie,artgerecht,aus,köstlicher,Helmen,Abduschen,Hauptbahnhof.,die,nan,um,um,Untergrund,Tupperware,große,goldenen,die,Kunsteis,jeden.,sie,dichten,kaltem,die,mehr,die,Soldaten,jeden,den,Dezember,aus,Schaumstoff,Planeten,Herrn,verschrottet.,dichten,ml,Planet,köstlichen,als,große,Soldaten,,,,,,,,,,,,,,,,,,,,,,,9,0,9,0,0,6,6,6,,,,,,,space,0.435809135437,,,,,,2017_Jan_25_1359,60.6734057388,spr_backupper,001,Sa14,
,mit,jede,zurückgekehrt.,Boden,Einsatz,zwängen.,diskutiert.,nan,mitbringen.,Fall,haftbar.,nan,zur,nan,als,mit,dem,Kaffee,zwängen.,warmen,verdünnt.,warmem,war.,trug.,Gantenbein.,nan,nan,Tage.,nan,nan,nan,Sammlung,warme,nan,fahren.,umgearbeitet.,Wohnung.,einmal,Tee,nan,nan,nan,Sammlung,nan,nan,Frau,nan,Boden,das,war.,dass,selber,nan,Frau,nan,nan,mitbringen.,ziemlich,überführt,gehalten.,dem,Wein,zur,gehärtet.,nan,Wohnung.,nan,Nadelhölzer,jede,liegen.,ist.,Menge,Besatz,Slums.,eingesprüht.,nan,überführt,Stoff,Saft,Probleme,als,Slums.,des,Fall,Problemen,stattfinden.,Japan.,gefertigt.,ganz,Gantenbeins.,nan,Gewebe,warmer,ganz,Weins,einmal,Menge,des,,,,,,,,,,,,,,,,,,,,,,,9,0,9,0,0,7,7,7,,,,,,,space,1.60992407799,,,,,,2017_Jan_25_1359,60.6734057388,spr_backupper,001,Sa14,
,,,,,,,,,,,,,,,,,,,,,,,,,,,,,,,,,,,,,,,,,,,,,,,,,,,,,,,,,,,,,,,,,,,,,,,,,,,,,,,,,,,,,,,,,,,,,,,,,,,,,,,,,,,,,,,,,,,,,,,,,9,0,9,0,,,,,,,,,,,,,None,n,3.12597703934,,,2017_Jan_25_1359,60.6734057388,spr_backupper,001,Sa14,
,Ich,Man,Als,Nicht,Ihr,Wir,Fernab,Beträchtliche,Außer,100,Manche,Viele,Die,Beträchtliche,Wir,Ich,Wir,Die,Wir,Er,Die,Er,Die,Die,Die,Sie,Es,Der,Viele,Die,Wir,Sie,In,Dort,Wir,Die,Sie,In,Ich,Wir,Außer,Es,Sie,Er,Die,Die,Dort,Nicht,In,Die,Es,Jugendliche,Sie,Die,Er,Die,Außer,Dass,Es,In,Wir,Bei,Die,Die,Die,Sie,Walter,Jetzt,Man,Jungtiere,Die,Mit,Das,Am,Die,Außer,Es,Er,Sie,In,Wir,Am,Bei,100,In,Unter,Die,Alle,Im,Die,Die,Danach,In,Im,Bei,In,Mit,Bei,,,,,,,,,,,,,,,,,,,,,,,10,0,10,0,0,0,0,0,,,,,,None,space,0.873291969299,,,,,,2017_Jan_25_1359,60.6734057388,spr_backupper,001,Sa14,
,nehme,machte,die,ein,Blutdruck,mussten,des,Stücke,das,g,Kreditnehmer,Tonnen,Kinder,Stücke,übergaben,nehme,haben,müden,mussten,stellt,Lösung,stellt,Uhr,Uhr,Gäste,verbrauchen,wurden,Flug,Tonnen,Autos,hatten,hatte,den,türmen,konnten,Stücke,verlassen,meinem,wurde,hatten,dem,wurden,hatte,wurde,Schule,Schuhe,türmen,ein,einer,Uhr,hat,können,verbrauchen,Schuhe,wurde,Schule,dem,es,waren,diesem,haben,unserer,Kinder,Formen,Linie,verlassen,Scheel,ist,machte,sollten,Teilnehmerinnen,dieser,Tuch,äußersten,Eislaufbahnen,den,waren,hat,haben,der,übergaben,äußeren,der,g,der,keinen,"Uhr,",Betten,Fernrohr,Gäste,Autos,wurde,den,Fernrohr,unserer,meinem,dieser,der,,,,,,,,,,,,,,,,,,,,,,,10,0,10,0,0,1,1,1,,,,,,,space,0.727313041687,,,,,,2017_Jan_25_1359,60.6734057388,spr_backupper,001,Sa14,
,eine,mal,Sonne,Tropfen,kann,uns,Rummels,saftigen,Essen,braunen,sind,gebrauchter,fuhren,saftiges,das,eine,jede,Teilnehmer,uns,die,wird,die,schlug,war,suchen,60,Eimer,zum,gebrauchte,beider,in,keine,Kakao,sich,dann,wurden,wegen,Studium,damals,in,Bürgermeister,Eimer,keine,trotz,verbraucht,in,sich,Tropfen,Studie,schlug,uns,Kleidung,60,in,trotz,verbraucht,Essen,"regnete,",nur,Zirkus,jede,Ankunft,fuhren,wurden,101,wegen,war,genau,mal,immer,wussten,Methode,wurde,Rand,wurden,Bürgermeister,nur,ein,die,Tat,dem,Rand,Feier,brauner,Tat,Umständen,die,wurden,sahen,suchen,beider,die,Kakao,sahen,Ankunft,Studium,Methode,Feier,,,,,,,,,,,,,,,,,,,,,,,10,0,10,0,0,2,2,2,,,,,,,space,0.554378032684,,,,,,2017_Jan_25_1359,60.6734057388,spr_backupper,001,Sa14,
,große,wieder,"unterging,",königliches,schon,durch,wurde,Fleischs,kann,Zuckers,mit,Kleidung,mit,Fleisch,Auto,große,Menge,wurden,durch,Masse,mit,Masse,"sporadisch,",aus,die,Liter,roter,Mond,Kleidung,beteiligten,Dänemark,Lust,gehören,Berge,mit,aus,des,las,schnell,Dänemark,beschuldigten,rote,Lust,dem,260.000,Größe,Berge,königlichen,wurde,"sporadisch,",die,bei,Liter,Größe,des,260.000,kann,hat,kleinere,werden,Menge,stand,mit,unter,hält,dem,der,die,wieder,auf,überwiegend,kann,dann,der,mit,beschuldigten,kleinere,Hemd,Erlebnisse,wissen,Mann,der,gedachte,Zucker,wissen,können,er,mit,wir,die,beteiligter,Leinwand,gehören,wir,stand,habe,kann,gedachte,,,,,,,,,,,,,,,,,,,,,,,10,0,10,0,0,3,3,3,,,,,,,space,1.19530200958,,,,,,2017_Jan_25_1359,60.6734057388,spr_backupper,001,Sa14,
,Packung,viel,war,Blut,bei,Büschel,schon,wurden,ich,sind,"sämtlichem,",landen,solchen,wurden,dem,Packung,alten,mit,Büschel,mit,"reichlichem,",mit,obschon,"Japan,",Wohnung,sprudelndes,Farbe,dauerte,landen,Fahrer,einen,auf,immer,schmutziger,"minimalem,","wertvollem,",schönen,ich,dank,gelegentlich,die,Farbe,auf,bekannten,Kilowattstunden,36,schmutzige,Bluts,jetzt,obwohl,Stimmung,ausreichendem,sprudelnden,36,bekannten,Kilowattstunden,ich,uns,"Delikte,",die,alten,ein,solch,"regelmäßigem,",nicht,schönen,vierte,richtige,viel,warmem,"nicht,",man,mit,Stadt,dauerhaftem,die,"Delikte,",aus,bei,wir,das,Stadt,man,sind,wir,Neuwahlen,"trug,","üblichem,",den,Wohnung,Fahrer,aus,immer,den,ein,ich,man,man,,,,,,,,,,,,,,,,,,,,,,,10,0,10,0,0,4,4,4,,,,,,,space,1.80540084839,,,,,,2017_Jan_25_1359,60.6734057388,spr_backupper,001,Sa14,
,salzige,Lärm,die,hat,minimalem,frischen,immer,serviert.,leider,auf,künftigem,im,unzureichenden,serviert.,Mann,salziger,Kram,zusätzlichem,frisches,einem,purem,einem,sie,die,des,Trinkwasser.,geschleudert.,ungefähr,im,wurden,gelegentlichen,noch,350,Wäsche.,sauberen,klassischen,Wetters,mehr,täglichem,einen,Störenfriede,geschleudert.,noch,Skandal,elektrischer,hätten,Wäsche.,hat,"nachgewiesen,",sie,ziemlich,monatlichem,Trinkwassers.,würden,Skandals,elektrische,leider,die,deren,Tiere,Krams,Glas,unzureichenden,kaltem,am,Wetter,Bundespräsident.,"Zeit,",Lärm,weichem,was,eine,"reichem,",liegen,feinem,Störenfriede,derer,feinem,"frischem,",um,Auto,liegen,der,auf,von,vor,war,harten,roten,des,wurden,seltenem,350,roten,Glas,mehr,eine,den,,,,,,,,,,,,,,,,,,,,,,,10,0,10,0,0,5,5,5,,,,,,,space,0.79555106163,,,,,,2017_Jan_25_1359,60.6734057388,spr_backupper,001,Sa14,
,Wurst,um,Flut,den,täglichen,Grases,ruhig,nan,nichts,jeden,Einkommen,Müll.,Helmen,nan,mehr,Wurst,aus,schwarzem,Gras,Esslöffel,Alkohol,Esslöffel,defekt,er,Herrn,nan,nan,drei,Müll.,verschrottet.,Besucher.,eine,ml,nan,Kraftstoff,Schmuck,die,als,grünen,Besucher.,jeden.,nan,eine,wiedergewählt.,Energie.,seiner,nan,den,dass,defekt,"vermiest,",Taschengeld,nan,seiner,wiedergewählt.,Energie.,nichts,Stimmung,sie,artgerecht,aus,köstlicher,Helmen,Abduschen,Hauptbahnhof.,die,nan,um,um,Untergrund,Tupperware,große,goldenen,die,Kunsteis,jeden.,sie,dichten,kaltem,die,mehr,die,Soldaten,jeden,den,Dezember,aus,Schaumstoff,Planeten,Herrn,verschrottet.,dichten,ml,Planet,köstlichen,als,große,Soldaten,,,,,,,,,,,,,,,,,,,,,,,10,0,10,0,0,6,6,6,,,,,,,space,0.722028017044,,,,,,2017_Jan_25_1359,60.6734057388,spr_backupper,001,Sa14,
,mit,jede,zurückgekehrt.,Boden,Einsatz,zwängen.,diskutiert.,nan,mitbringen.,Fall,haftbar.,nan,zur,nan,als,mit,dem,Kaffee,zwängen.,warmen,verdünnt.,warmem,war.,trug.,Gantenbein.,nan,nan,Tage.,nan,nan,nan,Sammlung,warme,nan,fahren.,umgearbeitet.,Wohnung.,einmal,Tee,nan,nan,nan,Sammlung,nan,nan,Frau,nan,Boden,das,war.,dass,selber,nan,Frau,nan,nan,mitbringen.,ziemlich,überführt,gehalten.,dem,Wein,zur,gehärtet.,nan,Wohnung.,nan,Nadelhölzer,jede,liegen.,ist.,Menge,Besatz,Slums.,eingesprüht.,nan,überführt,Stoff,Saft,Probleme,als,Slums.,des,Fall,Problemen,stattfinden.,Japan.,gefertigt.,ganz,Gantenbeins.,nan,Gewebe,warmer,ganz,Weins,einmal,Menge,des,,,,,,,,,,,,,,,,,,,,,,,10,0,10,0,0,7,7,7,,,,,,,space,2.72984910011,,,,,,2017_Jan_25_1359,60.6734057388,spr_backupper,001,Sa14,
,,,,,,,,,,,,,,,,,,,,,,,,,,,,,,,,,,,,,,,,,,,,,,,,,,,,,,,,,,,,,,,,,,,,,,,,,,,,,,,,,,,,,,,,,,,,,,,,,,,,,,,,,,,,,,,,,,,,,,,,,10,0,10,0,,,,,,,,,,,,,None,n,9.15607500076,,,2017_Jan_25_1359,60.6734057388,spr_backupper,001,Sa14,
,Ich,Man,Als,Nicht,Ihr,Wir,Fernab,Beträchtliche,Außer,100,Manche,Viele,Die,Beträchtliche,Wir,Ich,Wir,Die,Wir,Er,Die,Er,Die,Die,Die,Sie,Es,Der,Viele,Die,Wir,Sie,In,Dort,Wir,Die,Sie,In,Ich,Wir,Außer,Es,Sie,Er,Die,Die,Dort,Nicht,In,Die,Es,Jugendliche,Sie,Die,Er,Die,Außer,Dass,Es,In,Wir,Bei,Die,Die,Die,Sie,Walter,Jetzt,Man,Jungtiere,Die,Mit,Das,Am,Die,Außer,Es,Er,Sie,In,Wir,Am,Bei,100,In,Unter,Die,Alle,Im,Die,Die,Danach,In,Im,Bei,In,Mit,Bei,,,,,,,,,,,,,,,,,,,,,,,11,0,11,0,0,0,0,0,,,,,,None,space,0.370568037033,,,,,,2017_Jan_25_1359,60.6734057388,spr_backupper,001,Sa14,
,nehme,machte,die,ein,Blutdruck,mussten,des,Stücke,das,g,Kreditnehmer,Tonnen,Kinder,Stücke,übergaben,nehme,haben,müden,mussten,stellt,Lösung,stellt,Uhr,Uhr,Gäste,verbrauchen,wurden,Flug,Tonnen,Autos,hatten,hatte,den,türmen,konnten,Stücke,verlassen,meinem,wurde,hatten,dem,wurden,hatte,wurde,Schule,Schuhe,türmen,ein,einer,Uhr,hat,können,verbrauchen,Schuhe,wurde,Schule,dem,es,waren,diesem,haben,unserer,Kinder,Formen,Linie,verlassen,Scheel,ist,machte,sollten,Teilnehmerinnen,dieser,Tuch,äußersten,Eislaufbahnen,den,waren,hat,haben,der,übergaben,äußeren,der,g,der,keinen,"Uhr,",Betten,Fernrohr,Gäste,Autos,wurde,den,Fernrohr,unserer,meinem,dieser,der,,,,,,,,,,,,,,,,,,,,,,,11,0,11,0,0,1,1,1,,,,,,,space,0.324790000916,,,,,,2017_Jan_25_1359,60.6734057388,spr_backupper,001,Sa14,
,eine,mal,Sonne,Tropfen,kann,uns,Rummels,saftigen,Essen,braunen,sind,gebrauchter,fuhren,saftiges,das,eine,jede,Teilnehmer,uns,die,wird,die,schlug,war,suchen,60,Eimer,zum,gebrauchte,beider,in,keine,Kakao,sich,dann,wurden,wegen,Studium,damals,in,Bürgermeister,Eimer,keine,trotz,verbraucht,in,sich,Tropfen,Studie,schlug,uns,Kleidung,60,in,trotz,verbraucht,Essen,"regnete,",nur,Zirkus,jede,Ankunft,fuhren,wurden,101,wegen,war,genau,mal,immer,wussten,Methode,wurde,Rand,wurden,Bürgermeister,nur,ein,die,Tat,dem,Rand,Feier,brauner,Tat,Umständen,die,wurden,sahen,suchen,beider,die,Kakao,sahen,Ankunft,Studium,Methode,Feier,,,,,,,,,,,,,,,,,,,,,,,11,0,11,0,0,2,2,2,,,,,,,space,0.348447799683,,,,,,2017_Jan_25_1359,60.6734057388,spr_backupper,001,Sa14,
,große,wieder,"unterging,",königliches,schon,durch,wurde,Fleischs,kann,Zuckers,mit,Kleidung,mit,Fleisch,Auto,große,Menge,wurden,durch,Masse,mit,Masse,"sporadisch,",aus,die,Liter,roter,Mond,Kleidung,beteiligten,Dänemark,Lust,gehören,Berge,mit,aus,des,las,schnell,Dänemark,beschuldigten,rote,Lust,dem,260.000,Größe,Berge,königlichen,wurde,"sporadisch,",die,bei,Liter,Größe,des,260.000,kann,hat,kleinere,werden,Menge,stand,mit,unter,hält,dem,der,die,wieder,auf,überwiegend,kann,dann,der,mit,beschuldigten,kleinere,Hemd,Erlebnisse,wissen,Mann,der,gedachte,Zucker,wissen,können,er,mit,wir,die,beteiligter,Leinwand,gehören,wir,stand,habe,kann,gedachte,,,,,,,,,,,,,,,,,,,,,,,11,0,11,0,0,3,3,3,,,,,,,space,0.470000982285,,,,,,2017_Jan_25_1359,60.6734057388,spr_backupper,001,Sa14,
,Packung,viel,war,Blut,bei,Büschel,schon,wurden,ich,sind,"sämtlichem,",landen,solchen,wurden,dem,Packung,alten,mit,Büschel,mit,"reichlichem,",mit,obschon,"Japan,",Wohnung,sprudelndes,Farbe,dauerte,landen,Fahrer,einen,auf,immer,schmutziger,"minimalem,","wertvollem,",schönen,ich,dank,gelegentlich,die,Farbe,auf,bekannten,Kilowattstunden,36,schmutzige,Bluts,jetzt,obwohl,Stimmung,ausreichendem,sprudelnden,36,bekannten,Kilowattstunden,ich,uns,"Delikte,",die,alten,ein,solch,"regelmäßigem,",nicht,schönen,vierte,richtige,viel,warmem,"nicht,",man,mit,Stadt,dauerhaftem,die,"Delikte,",aus,bei,wir,das,Stadt,man,sind,wir,Neuwahlen,"trug,","üblichem,",den,Wohnung,Fahrer,aus,immer,den,ein,ich,man,man,,,,,,,,,,,,,,,,,,,,,,,11,0,11,0,0,4,4,4,,,,,,,space,0.511168003082,,,,,,2017_Jan_25_1359,60.6734057388,spr_backupper,001,Sa14,
,salzige,Lärm,die,hat,minimalem,frischen,immer,serviert.,leider,auf,künftigem,im,unzureichenden,serviert.,Mann,salziger,Kram,zusätzlichem,frisches,einem,purem,einem,sie,die,des,Trinkwasser.,geschleudert.,ungefähr,im,wurden,gelegentlichen,noch,350,Wäsche.,sauberen,klassischen,Wetters,mehr,täglichem,einen,Störenfriede,geschleudert.,noch,Skandal,elektrischer,hätten,Wäsche.,hat,"nachgewiesen,",sie,ziemlich,monatlichem,Trinkwassers.,würden,Skandals,elektrische,leider,die,deren,Tiere,Krams,Glas,unzureichenden,kaltem,am,Wetter,Bundespräsident.,"Zeit,",Lärm,weichem,was,eine,"reichem,",liegen,feinem,Störenfriede,derer,feinem,"frischem,",um,Auto,liegen,der,auf,von,vor,war,harten,roten,des,wurden,seltenem,350,roten,Glas,mehr,eine,den,,,,,,,,,,,,,,,,,,,,,,,11,0,11,0,0,5,5,5,,,,,,,space,0.444000005722,,,,,,2017_Jan_25_1359,60.6734057388,spr_backupper,001,Sa14,
,Wurst,um,Flut,den,täglichen,Grases,ruhig,nan,nichts,jeden,Einkommen,Müll.,Helmen,nan,mehr,Wurst,aus,schwarzem,Gras,Esslöffel,Alkohol,Esslöffel,defekt,er,Herrn,nan,nan,drei,Müll.,verschrottet.,Besucher.,eine,ml,nan,Kraftstoff,Schmuck,die,als,grünen,Besucher.,jeden.,nan,eine,wiedergewählt.,Energie.,seiner,nan,den,dass,defekt,"vermiest,",Taschengeld,nan,seiner,wiedergewählt.,Energie.,nichts,Stimmung,sie,artgerecht,aus,köstlicher,Helmen,Abduschen,Hauptbahnhof.,die,nan,um,um,Untergrund,Tupperware,große,goldenen,die,Kunsteis,jeden.,sie,dichten,kaltem,die,mehr,die,Soldaten,jeden,den,Dezember,aus,Schaumstoff,Planeten,Herrn,verschrottet.,dichten,ml,Planet,köstlichen,als,große,Soldaten,,,,,,,,,,,,,,,,,,,,,,,11,0,11,0,0,6,6,6,,,,,,,space,0.772597074509,,,,,,2017_Jan_25_1359,60.6734057388,spr_backupper,001,Sa14,
,mit,jede,zurückgekehrt.,Boden,Einsatz,zwängen.,diskutiert.,nan,mitbringen.,Fall,haftbar.,nan,zur,nan,als,mit,dem,Kaffee,zwängen.,warmen,verdünnt.,warmem,war.,trug.,Gantenbein.,nan,nan,Tage.,nan,nan,nan,Sammlung,warme,nan,fahren.,umgearbeitet.,Wohnung.,einmal,Tee,nan,nan,nan,Sammlung,nan,nan,Frau,nan,Boden,das,war.,dass,selber,nan,Frau,nan,nan,mitbringen.,ziemlich,überführt,gehalten.,dem,Wein,zur,gehärtet.,nan,Wohnung.,nan,Nadelhölzer,jede,liegen.,ist.,Menge,Besatz,Slums.,eingesprüht.,nan,überführt,Stoff,Saft,Probleme,als,Slums.,des,Fall,Problemen,stattfinden.,Japan.,gefertigt.,ganz,Gantenbeins.,nan,Gewebe,warmer,ganz,Weins,einmal,Menge,des,,,,,,,,,,,,,,,,,,,,,,,11,0,11,0,0,7,7,7,,,,,,,space,0.972228050232,,,,,,2017_Jan_25_1359,60.6734057388,spr_backupper,001,Sa14,
,an,Menge,nan,berührt.,sinken.,nan,nan,nan,nan,genug.,nan,nan,Schule.,nan,gerne.,an,Haus,wiederbelebt.,nan,Honigs,nan,Honig,nan,nan,nan,nan,nan,nan,nan,nan,nan,dumme,Milch.,nan,nan,nan,nan,Rilke.,wieder,nan,nan,nan,dummer,nan,nan,gepasst.,nan,berührt.,Medikament,nan,es,kaufen.,nan,gepasst,nan,nan,nan,vermiest.,wurden.,nan,Haus,schon,Schule.,nan,nan,nan,nan,umzusetzen.,Menge,nan,nan,dunkle,rekonstruiert.,nan,nan,nan,wurden.,gefertigt.,besprochen.,im,gerne.,nan,zweiten,genug.,im,nan,nan,nan,deutlich.,nan,nan,wiederhergestellt.,Milch.,deutlich.,schon,Rilke,dunkler,zweiten,,,,,,,,,,,,,,,,,,,,,,,11,0,11,0,0,8,8,8,,,,,,,space,1.69405007362,,,,,,2017_Jan_25_1359,60.6734057388,spr_backupper,001,Sa14,
,den,heiße,nan,nan,nan,nan,nan,nan,nan,nan,nan,nan,nan,nan,nan,den,geschafft.,nan,nan,her.,nan,her.,nan,nan,nan,nan,nan,nan,nan,nan,nan,Sprüche.,nan,nan,nan,nan,nan,nan,fit.,nan,nan,nan,Sprüche.,nan,nan,nan,nan,nan,nicht,nan,regnete.,nan,nan,haben.,nan,nan,nan,nan,nan,nan,geschafft.,auf,nan,nan,nan,nan,nan,nan,heißer,nan,nan,Materie,nan,nan,nan,nan,nan,nan,nan,Landkreis.,nan,nan,Weltkriegs.,nan,Landkreis.,nan,nan,nan,nan,nan,nan,nan,nan,nan,auf,gelesen.,Materie,Weltkriegs.,,,,,,,,,,,,,,,,,,,,,,,11,0,11,0,0,9,9,9,,,,,,,space,1.15754294395,,,,,,2017_Jan_25_1359,60.6734057388,spr_backupper,001,Sa14,
,,,,,,,,,,,,,,,,,,,,,,,,,,,,,,,,,,,,,,,,,,,,,,,,,,,,,,,,,,,,,,,,,,,,,,,,,,,,,,,,,,,,,,,,,,,,,,,,,,,,,,,,,,,,,,,,,,,,,,,,,11,0,11,0,,,,,,,,,,,,,None,j,3.9373729229,,,2017_Jan_25_1359,60.6734057388,spr_backupper,001,Sa14,
,Ich,Man,Als,Nicht,Ihr,Wir,Fernab,Beträchtliche,Außer,100,Manche,Viele,Die,Beträchtliche,Wir,Ich,Wir,Die,Wir,Er,Die,Er,Die,Die,Die,Sie,Es,Der,Viele,Die,Wir,Sie,In,Dort,Wir,Die,Sie,In,Ich,Wir,Außer,Es,Sie,Er,Die,Die,Dort,Nicht,In,Die,Es,Jugendliche,Sie,Die,Er,Die,Außer,Dass,Es,In,Wir,Bei,Die,Die,Die,Sie,Walter,Jetzt,Man,Jungtiere,Die,Mit,Das,Am,Die,Außer,Es,Er,Sie,In,Wir,Am,Bei,100,In,Unter,Die,Alle,Im,Die,Die,Danach,In,Im,Bei,In,Mit,Bei,,,,,,,,,,,,,,,,,,,,,,,12,0,12,0,0,0,0,0,,,,,,None,space,0.758597135544,,,,,,2017_Jan_25_1359,60.6734057388,spr_backupper,001,Sa14,
,nehme,machte,die,ein,Blutdruck,mussten,des,Stücke,das,g,Kreditnehmer,Tonnen,Kinder,Stücke,übergaben,nehme,haben,müden,mussten,stellt,Lösung,stellt,Uhr,Uhr,Gäste,verbrauchen,wurden,Flug,Tonnen,Autos,hatten,hatte,den,türmen,konnten,Stücke,verlassen,meinem,wurde,hatten,dem,wurden,hatte,wurde,Schule,Schuhe,türmen,ein,einer,Uhr,hat,können,verbrauchen,Schuhe,wurde,Schule,dem,es,waren,diesem,haben,unserer,Kinder,Formen,Linie,verlassen,Scheel,ist,machte,sollten,Teilnehmerinnen,dieser,Tuch,äußersten,Eislaufbahnen,den,waren,hat,haben,der,übergaben,äußeren,der,g,der,keinen,"Uhr,",Betten,Fernrohr,Gäste,Autos,wurde,den,Fernrohr,unserer,meinem,dieser,der,,,,,,,,,,,,,,,,,,,,,,,12,0,12,0,0,1,1,1,,,,,,,space,0.350410938263,,,,,,2017_Jan_25_1359,60.6734057388,spr_backupper,001,Sa14,
,eine,mal,Sonne,Tropfen,kann,uns,Rummels,saftigen,Essen,braunen,sind,gebrauchter,fuhren,saftiges,das,eine,jede,Teilnehmer,uns,die,wird,die,schlug,war,suchen,60,Eimer,zum,gebrauchte,beider,in,keine,Kakao,sich,dann,wurden,wegen,Studium,damals,in,Bürgermeister,Eimer,keine,trotz,verbraucht,in,sich,Tropfen,Studie,schlug,uns,Kleidung,60,in,trotz,verbraucht,Essen,"regnete,",nur,Zirkus,jede,Ankunft,fuhren,wurden,101,wegen,war,genau,mal,immer,wussten,Methode,wurde,Rand,wurden,Bürgermeister,nur,ein,die,Tat,dem,Rand,Feier,brauner,Tat,Umständen,die,wurden,sahen,suchen,beider,die,Kakao,sahen,Ankunft,Studium,Methode,Feier,,,,,,,,,,,,,,,,,,,,,,,12,0,12,0,0,2,2,2,,,,,,,space,0.453407049179,,,,,,2017_Jan_25_1359,60.6734057388,spr_backupper,001,Sa14,
,große,wieder,"unterging,",königliches,schon,durch,wurde,Fleischs,kann,Zuckers,mit,Kleidung,mit,Fleisch,Auto,große,Menge,wurden,durch,Masse,mit,Masse,"sporadisch,",aus,die,Liter,roter,Mond,Kleidung,beteiligten,Dänemark,Lust,gehören,Berge,mit,aus,des,las,schnell,Dänemark,beschuldigten,rote,Lust,dem,260.000,Größe,Berge,königlichen,wurde,"sporadisch,",die,bei,Liter,Größe,des,260.000,kann,hat,kleinere,werden,Menge,stand,mit,unter,hält,dem,der,die,wieder,auf,überwiegend,kann,dann,der,mit,beschuldigten,kleinere,Hemd,Erlebnisse,wissen,Mann,der,gedachte,Zucker,wissen,können,er,mit,wir,die,beteiligter,Leinwand,gehören,wir,stand,habe,kann,gedachte,,,,,,,,,,,,,,,,,,,,,,,12,0,12,0,0,3,3,3,,,,,,,space,0.402860164642,,,,,,2017_Jan_25_1359,60.6734057388,spr_backupper,001,Sa14,
,Packung,viel,war,Blut,bei,Büschel,schon,wurden,ich,sind,"sämtlichem,",landen,solchen,wurden,dem,Packung,alten,mit,Büschel,mit,"reichlichem,",mit,obschon,"Japan,",Wohnung,sprudelndes,Farbe,dauerte,landen,Fahrer,einen,auf,immer,schmutziger,"minimalem,","wertvollem,",schönen,ich,dank,gelegentlich,die,Farbe,auf,bekannten,Kilowattstunden,36,schmutzige,Bluts,jetzt,obwohl,Stimmung,ausreichendem,sprudelnden,36,bekannten,Kilowattstunden,ich,uns,"Delikte,",die,alten,ein,solch,"regelmäßigem,",nicht,schönen,vierte,richtige,viel,warmem,"nicht,",man,mit,Stadt,dauerhaftem,die,"Delikte,",aus,bei,wir,das,Stadt,man,sind,wir,Neuwahlen,"trug,","üblichem,",den,Wohnung,Fahrer,aus,immer,den,ein,ich,man,man,,,,,,,,,,,,,,,,,,,,,,,12,0,12,0,0,4,4,4,,,,,,,space,0.536965847015,,,,,,2017_Jan_25_1359,60.6734057388,spr_backupper,001,Sa14,
,salzige,Lärm,die,hat,minimalem,frischen,immer,serviert.,leider,auf,künftigem,im,unzureichenden,serviert.,Mann,salziger,Kram,zusätzlichem,frisches,einem,purem,einem,sie,die,des,Trinkwasser.,geschleudert.,ungefähr,im,wurden,gelegentlichen,noch,350,Wäsche.,sauberen,klassischen,Wetters,mehr,täglichem,einen,Störenfriede,geschleudert.,noch,Skandal,elektrischer,hätten,Wäsche.,hat,"nachgewiesen,",sie,ziemlich,monatlichem,Trinkwassers.,würden,Skandals,elektrische,leider,die,deren,Tiere,Krams,Glas,unzureichenden,kaltem,am,Wetter,Bundespräsident.,"Zeit,",Lärm,weichem,was,eine,"reichem,",liegen,feinem,Störenfriede,derer,feinem,"frischem,",um,Auto,liegen,der,auf,von,vor,war,harten,roten,des,wurden,seltenem,350,roten,Glas,mehr,eine,den,,,,,,,,,,,,,,,,,,,,,,,12,0,12,0,0,5,5,5,,,,,,,space,1.44926595688,,,,,,2017_Jan_25_1359,60.6734057388,spr_backupper,001,Sa14,
,Wurst,um,Flut,den,täglichen,Grases,ruhig,nan,nichts,jeden,Einkommen,Müll.,Helmen,nan,mehr,Wurst,aus,schwarzem,Gras,Esslöffel,Alkohol,Esslöffel,defekt,er,Herrn,nan,nan,drei,Müll.,verschrottet.,Besucher.,eine,ml,nan,Kraftstoff,Schmuck,die,als,grünen,Besucher.,jeden.,nan,eine,wiedergewählt.,Energie.,seiner,nan,den,dass,defekt,"vermiest,",Taschengeld,nan,seiner,wiedergewählt.,Energie.,nichts,Stimmung,sie,artgerecht,aus,köstlicher,Helmen,Abduschen,Hauptbahnhof.,die,nan,um,um,Untergrund,Tupperware,große,goldenen,die,Kunsteis,jeden.,sie,dichten,kaltem,die,mehr,die,Soldaten,jeden,den,Dezember,aus,Schaumstoff,Planeten,Herrn,verschrottet.,dichten,ml,Planet,köstlichen,als,große,Soldaten,,,,,,,,,,,,,,,,,,,,,,,12,0,12,0,0,6,6,6,,,,,,,space,0.683581113815,,,,,,2017_Jan_25_1359,60.6734057388,spr_backupper,001,Sa14,
,mit,jede,zurückgekehrt.,Boden,Einsatz,zwängen.,diskutiert.,nan,mitbringen.,Fall,haftbar.,nan,zur,nan,als,mit,dem,Kaffee,zwängen.,warmen,verdünnt.,warmem,war.,trug.,Gantenbein.,nan,nan,Tage.,nan,nan,nan,Sammlung,warme,nan,fahren.,umgearbeitet.,Wohnung.,einmal,Tee,nan,nan,nan,Sammlung,nan,nan,Frau,nan,Boden,das,war.,dass,selber,nan,Frau,nan,nan,mitbringen.,ziemlich,überführt,gehalten.,dem,Wein,zur,gehärtet.,nan,Wohnung.,nan,Nadelhölzer,jede,liegen.,ist.,Menge,Besatz,Slums.,eingesprüht.,nan,überführt,Stoff,Saft,Probleme,als,Slums.,des,Fall,Problemen,stattfinden.,Japan.,gefertigt.,ganz,Gantenbeins.,nan,Gewebe,warmer,ganz,Weins,einmal,Menge,des,,,,,,,,,,,,,,,,,,,,,,,12,0,12,0,0,7,7,7,,,,,,,space,1.08607411385,,,,,,2017_Jan_25_1359,60.6734057388,spr_backupper,001,Sa14,
,,,,,,,,,,,,,,,,,,,,,,,,,,,,,,,,,,,,,,,,,,,,,,,,,,,,,,,,,,,,,,,,,,,,,,,,,,,,,,,,,,,,,,,,,,,,,,,,,,,,,,,,,,,,,,,,,,,,,,,,,12,0,12,0,,,,,,,,,,,,,None,j,1.65197300911,,,2017_Jan_25_1359,60.6734057388,spr_backupper,001,Sa14,
,Ich,Man,Als,Nicht,Ihr,Wir,Fernab,Beträchtliche,Außer,100,Manche,Viele,Die,Beträchtliche,Wir,Ich,Wir,Die,Wir,Er,Die,Er,Die,Die,Die,Sie,Es,Der,Viele,Die,Wir,Sie,In,Dort,Wir,Die,Sie,In,Ich,Wir,Außer,Es,Sie,Er,Die,Die,Dort,Nicht,In,Die,Es,Jugendliche,Sie,Die,Er,Die,Außer,Dass,Es,In,Wir,Bei,Die,Die,Die,Sie,Walter,Jetzt,Man,Jungtiere,Die,Mit,Das,Am,Die,Außer,Es,Er,Sie,In,Wir,Am,Bei,100,In,Unter,Die,Alle,Im,Die,Die,Danach,In,Im,Bei,In,Mit,Bei,,,,,,,,,,,,,,,,,,,,,,,13,0,13,0,0,0,0,0,,,,,,None,space,1.40496897697,,,,,,2017_Jan_25_1359,60.6734057388,spr_backupper,001,Sa14,
,nehme,machte,die,ein,Blutdruck,mussten,des,Stücke,das,g,Kreditnehmer,Tonnen,Kinder,Stücke,übergaben,nehme,haben,müden,mussten,stellt,Lösung,stellt,Uhr,Uhr,Gäste,verbrauchen,wurden,Flug,Tonnen,Autos,hatten,hatte,den,türmen,konnten,Stücke,verlassen,meinem,wurde,hatten,dem,wurden,hatte,wurde,Schule,Schuhe,türmen,ein,einer,Uhr,hat,können,verbrauchen,Schuhe,wurde,Schule,dem,es,waren,diesem,haben,unserer,Kinder,Formen,Linie,verlassen,Scheel,ist,machte,sollten,Teilnehmerinnen,dieser,Tuch,äußersten,Eislaufbahnen,den,waren,hat,haben,der,übergaben,äußeren,der,g,der,keinen,"Uhr,",Betten,Fernrohr,Gäste,Autos,wurde,den,Fernrohr,unserer,meinem,dieser,der,,,,,,,,,,,,,,,,,,,,,,,13,0,13,0,0,1,1,1,,,,,,,space,0.649564027786,,,,,,2017_Jan_25_1359,60.6734057388,spr_backupper,001,Sa14,
,eine,mal,Sonne,Tropfen,kann,uns,Rummels,saftigen,Essen,braunen,sind,gebrauchter,fuhren,saftiges,das,eine,jede,Teilnehmer,uns,die,wird,die,schlug,war,suchen,60,Eimer,zum,gebrauchte,beider,in,keine,Kakao,sich,dann,wurden,wegen,Studium,damals,in,Bürgermeister,Eimer,keine,trotz,verbraucht,in,sich,Tropfen,Studie,schlug,uns,Kleidung,60,in,trotz,verbraucht,Essen,"regnete,",nur,Zirkus,jede,Ankunft,fuhren,wurden,101,wegen,war,genau,mal,immer,wussten,Methode,wurde,Rand,wurden,Bürgermeister,nur,ein,die,Tat,dem,Rand,Feier,brauner,Tat,Umständen,die,wurden,sahen,suchen,beider,die,Kakao,sahen,Ankunft,Studium,Methode,Feier,,,,,,,,,,,,,,,,,,,,,,,13,0,13,0,0,2,2,2,,,,,,,space,0.42548418045,,,,,,2017_Jan_25_1359,60.6734057388,spr_backupper,001,Sa14,
,große,wieder,"unterging,",königliches,schon,durch,wurde,Fleischs,kann,Zuckers,mit,Kleidung,mit,Fleisch,Auto,große,Menge,wurden,durch,Masse,mit,Masse,"sporadisch,",aus,die,Liter,roter,Mond,Kleidung,beteiligten,Dänemark,Lust,gehören,Berge,mit,aus,des,las,schnell,Dänemark,beschuldigten,rote,Lust,dem,260.000,Größe,Berge,königlichen,wurde,"sporadisch,",die,bei,Liter,Größe,des,260.000,kann,hat,kleinere,werden,Menge,stand,mit,unter,hält,dem,der,die,wieder,auf,überwiegend,kann,dann,der,mit,beschuldigten,kleinere,Hemd,Erlebnisse,wissen,Mann,der,gedachte,Zucker,wissen,können,er,mit,wir,die,beteiligter,Leinwand,gehören,wir,stand,habe,kann,gedachte,,,,,,,,,,,,,,,,,,,,,,,13,0,13,0,0,3,3,3,,,,,,,space,0.531164884567,,,,,,2017_Jan_25_1359,60.6734057388,spr_backupper,001,Sa14,
,Packung,viel,war,Blut,bei,Büschel,schon,wurden,ich,sind,"sämtlichem,",landen,solchen,wurden,dem,Packung,alten,mit,Büschel,mit,"reichlichem,",mit,obschon,"Japan,",Wohnung,sprudelndes,Farbe,dauerte,landen,Fahrer,einen,auf,immer,schmutziger,"minimalem,","wertvollem,",schönen,ich,dank,gelegentlich,die,Farbe,auf,bekannten,Kilowattstunden,36,schmutzige,Bluts,jetzt,obwohl,Stimmung,ausreichendem,sprudelnden,36,bekannten,Kilowattstunden,ich,uns,"Delikte,",die,alten,ein,solch,"regelmäßigem,",nicht,schönen,vierte,richtige,viel,warmem,"nicht,",man,mit,Stadt,dauerhaftem,die,"Delikte,",aus,bei,wir,das,Stadt,man,sind,wir,Neuwahlen,"trug,","üblichem,",den,Wohnung,Fahrer,aus,immer,den,ein,ich,man,man,,,,,,,,,,,,,,,,,,,,,,,13,0,13,0,0,4,4,4,,,,,,,space,0.518991947174,,,,,,2017_Jan_25_1359,60.6734057388,spr_backupper,001,Sa14,
,salzige,Lärm,die,hat,minimalem,frischen,immer,serviert.,leider,auf,künftigem,im,unzureichenden,serviert.,Mann,salziger,Kram,zusätzlichem,frisches,einem,purem,einem,sie,die,des,Trinkwasser.,geschleudert.,ungefähr,im,wurden,gelegentlichen,noch,350,Wäsche.,sauberen,klassischen,Wetters,mehr,täglichem,einen,Störenfriede,geschleudert.,noch,Skandal,elektrischer,hätten,Wäsche.,hat,"nachgewiesen,",sie,ziemlich,monatlichem,Trinkwassers.,würden,Skandals,elektrische,leider,die,deren,Tiere,Krams,Glas,unzureichenden,kaltem,am,Wetter,Bundespräsident.,"Zeit,",Lärm,weichem,was,eine,"reichem,",liegen,feinem,Störenfriede,derer,feinem,"frischem,",um,Auto,liegen,der,auf,von,vor,war,harten,roten,des,wurden,seltenem,350,roten,Glas,mehr,eine,den,,,,,,,,,,,,,,,,,,,,,,,13,0,13,0,0,5,5,5,,,,,,,space,1.23020720482,,,,,,2017_Jan_25_1359,60.6734057388,spr_backupper,001,Sa14,
,,,,,,,,,,,,,,,,,,,,,,,,,,,,,,,,,,,,,,,,,,,,,,,,,,,,,,,,,,,,,,,,,,,,,,,,,,,,,,,,,,,,,,,,,,,,,,,,,,,,,,,,,,,,,,,,,,,,,,,,,13,0,13,0,,,,,,,,,,,,,None,n,2.581802845,,,2017_Jan_25_1359,60.6734057388,spr_backupper,001,Sa14,
,Ich,Man,Als,Nicht,Ihr,Wir,Fernab,Beträchtliche,Außer,100,Manche,Viele,Die,Beträchtliche,Wir,Ich,Wir,Die,Wir,Er,Die,Er,Die,Die,Die,Sie,Es,Der,Viele,Die,Wir,Sie,In,Dort,Wir,Die,Sie,In,Ich,Wir,Außer,Es,Sie,Er,Die,Die,Dort,Nicht,In,Die,Es,Jugendliche,Sie,Die,Er,Die,Außer,Dass,Es,In,Wir,Bei,Die,Die,Die,Sie,Walter,Jetzt,Man,Jungtiere,Die,Mit,Das,Am,Die,Außer,Es,Er,Sie,In,Wir,Am,Bei,100,In,Unter,Die,Alle,Im,Die,Die,Danach,In,Im,Bei,In,Mit,Bei,,,,,,,,,,,,,,,,,,,,,,,14,0,14,0,0,0,0,0,,,,,,None,space,0.85068488121,,,,,,2017_Jan_25_1359,60.6734057388,spr_backupper,001,Sa14,
,nehme,machte,die,ein,Blutdruck,mussten,des,Stücke,das,g,Kreditnehmer,Tonnen,Kinder,Stücke,übergaben,nehme,haben,müden,mussten,stellt,Lösung,stellt,Uhr,Uhr,Gäste,verbrauchen,wurden,Flug,Tonnen,Autos,hatten,hatte,den,türmen,konnten,Stücke,verlassen,meinem,wurde,hatten,dem,wurden,hatte,wurde,Schule,Schuhe,türmen,ein,einer,Uhr,hat,können,verbrauchen,Schuhe,wurde,Schule,dem,es,waren,diesem,haben,unserer,Kinder,Formen,Linie,verlassen,Scheel,ist,machte,sollten,Teilnehmerinnen,dieser,Tuch,äußersten,Eislaufbahnen,den,waren,hat,haben,der,übergaben,äußeren,der,g,der,keinen,"Uhr,",Betten,Fernrohr,Gäste,Autos,wurde,den,Fernrohr,unserer,meinem,dieser,der,,,,,,,,,,,,,,,,,,,,,,,14,0,14,0,0,1,1,1,,,,,,,space,0.594728946686,,,,,,2017_Jan_25_1359,60.6734057388,spr_backupper,001,Sa14,
,eine,mal,Sonne,Tropfen,kann,uns,Rummels,saftigen,Essen,braunen,sind,gebrauchter,fuhren,saftiges,das,eine,jede,Teilnehmer,uns,die,wird,die,schlug,war,suchen,60,Eimer,zum,gebrauchte,beider,in,keine,Kakao,sich,dann,wurden,wegen,Studium,damals,in,Bürgermeister,Eimer,keine,trotz,verbraucht,in,sich,Tropfen,Studie,schlug,uns,Kleidung,60,in,trotz,verbraucht,Essen,"regnete,",nur,Zirkus,jede,Ankunft,fuhren,wurden,101,wegen,war,genau,mal,immer,wussten,Methode,wurde,Rand,wurden,Bürgermeister,nur,ein,die,Tat,dem,Rand,Feier,brauner,Tat,Umständen,die,wurden,sahen,suchen,beider,die,Kakao,sahen,Ankunft,Studium,Methode,Feier,,,,,,,,,,,,,,,,,,,,,,,14,0,14,0,0,2,2,2,,,,,,,space,0.664850950241,,,,,,2017_Jan_25_1359,60.6734057388,spr_backupper,001,Sa14,
