text,sent48,sent9,sent8,sent15,sent3,sent2,sent1,sent14,sent7,sent6,sent5,sent4,sent57,sent56,sent55,sent54,sent53,sent52,sent51,sent50,sent13,sent12,sent11,sent10,sent17,sent16,sent59,sent58,sent93,sent92,sent91,sent90,sent97,sent96,sent95,sent94,sent98,sent22,sent23,sent20,sent21,sent26,sent27,sent24,sent25,sent28,sent29,sent68,sent69,sent66,sent67,sent64,sent65,sent62,sent63,sent60,sent61,sent31,sent30,sent33,sent32,sent35,sent34,sent37,sent36,sent39,sent38,sent79,sent78,sent75,sent74,sent77,sent76,sent71,sent70,sent73,sent72,sent19,sent49,sent18,sent44,sent45,sent84,sent85,sent86,sent87,sent80,sent81,sent82,sent83,sent40,sent41,sent42,sent43,sent88,sent89,sent46,sent47,intros.thisRepN,intros.thisTrialN,intros.thisN,intros.thisIndex,trials.thisRepN,trials.thisTrialN,trials.thisN,trials.thisIndex,testWords.thisRepN,testWords.thisTrialN,testWords.thisN,testWords.thisIndex,test1,test3,test2,test5,test4,test7,test6,test9,test8,test10,realTrials.thisRepN,realTrials.thisTrialN,realTrials.thisN,realTrials.thisIndex,words.thisRepN,words.thisTrialN,words.thisN,words.thisIndex,key_resp_3.keys,key_resp_3.rt,key_resp_8.keys,key_resp_10.keys,key_resp_10.rt,key_resp_6.keys,wordRead.keys,wordRead.rt,key_resp_5.keys,questAnswer.keys,questAnswer.rt,key_resp_6.rt,date,frameRate,expName,session,participant,
"Vielen Dank, dass Sie an diesem Experiment teilnehmen. Vor dem eigentlichen Experiment sehen Sie nun zuerst eine kurze Erläuterung, und Sie absolvieren ein kurze Übungsphase.

Das Experiment dauert insgesamt nicht mehr als 45 Minuten.",,,,,,,,,,,,,,,,,,,,,,,,,,,,,,,,,,,,,,,,,,,,,,,,,,,,,,,,,,,,,,,,,,,,,,,,,,,,,,,,,,,,,,,,,,,,,,,,,,,0,0,0,0,,,,,,,,,,,,,,,,,,,,,,,,,,,,,,,,,,,,,,,2017_Jan_25_1602,59.5189165334,spr_backupper,001,Sa16,
"In diesem Experiment lesen Sie deutsche Sätze, indem Sie sich von Wort zu Wort mit der Leertaste durch den Satz klicken.",,,,,,,,,,,,,,,,,,,,,,,,,,,,,,,,,,,,,,,,,,,,,,,,,,,,,,,,,,,,,,,,,,,,,,,,,,,,,,,,,,,,,,,,,,,,,,,,,,,0,1,1,1,,,,,,,,,,,,,,,,,,,,,,,,,,,,,,,,,,,,,,,2017_Jan_25_1602,59.5189165334,spr_backupper,001,Sa16,
"Sie sehen dabei immer nur das aktuelle Wort. Die Lesegeschwindigkeit bestimmen Sie vollständig selber. Vor jedem Satz sehen Sie in der Bildschirmmitte für zwei Sekunden ein + an der Stelle, an der dann die Wörter erscheinen.",,,,,,,,,,,,,,,,,,,,,,,,,,,,,,,,,,,,,,,,,,,,,,,,,,,,,,,,,,,,,,,,,,,,,,,,,,,,,,,,,,,,,,,,,,,,,,,,,,,0,2,2,2,,,,,,,,,,,,,,,,,,,,,,,,,,,,,,,,,,,,,,,2017_Jan_25_1602,59.5189165334,spr_backupper,001,Sa16,
"Nach jedem Satz wird Ihnen eine Ja/Nein-Verständnisfrage zum zuvor gelesenen Satz gestellt, die Sie mit der J-Taste für "Ja" und der N-Taste für "Nein" beantworten. Antworten Sie möglichst spontan und ohne lange Nachzudenken.",,,,,,,,,,,,,,,,,,,,,,,,,,,,,,,,,,,,,,,,,,,,,,,,,,,,,,,,,,,,,,,,,,,,,,,,,,,,,,,,,,,,,,,,,,,,,,,,,,,0,3,3,3,,,,,,,,,,,,,,,,,,,,,,,,,,,,,,,,,,,,,,,2017_Jan_25_1602,59.5189165334,spr_backupper,001,Sa16,
"Unterbrechen Sie das Experiment bitte auf keinen Fall, stellen Sie den ExperimentatorInnen nach dem Experimentbeginn keine Fragen, und lassen Sie sich nicht durch Umgebungsgeräusche ablenken.",,,,,,,,,,,,,,,,,,,,,,,,,,,,,,,,,,,,,,,,,,,,,,,,,,,,,,,,,,,,,,,,,,,,,,,,,,,,,,,,,,,,,,,,,,,,,,,,,,,0,4,4,4,,,,,,,,,,,,,,,,,,,,,,,,,,,,,,,,,,,,,,,2017_Jan_25_1602,59.5189165334,spr_backupper,001,Sa16,
"Im nächsten Schritt beantworten Sie bitte eine Frage zu Ihren Deutschkenntnissen. Danach beginnt eine Übungseinheit, mit der Sie sich an die Art der Durchführung dieses Experiments gewöhnen können.",,,,,,,,,,,,,,,,,,,,,,,,,,,,,,,,,,,,,,,,,,,,,,,,,,,,,,,,,,,,,,,,,,,,,,,,,,,,,,,,,,,,,,,,,,,,,,,,,,,0,5,5,5,,,,,,,,,,,,,,,,,,,,,,,,,,,,,,,,,,,,,,,2017_Jan_25_1602,59.5189165334,spr_backupper,001,Sa16,
,,,,,,,,,,,,,,,,,,,,,,,,,,,,,,,,,,,,,,,,,,,,,,,,,,,,,,,,,,,,,,,,,,,,,,,,,,,,,,,,,,,,,,,,,,,,,,,,,,,,,,,,,,,,,,,,,,,,,,,,,,,,,,,,,j,10.9341089725,,,,,,,,,,,2017_Jan_25_1602,59.5189165334,spr_backupper,001,Sa16,
,,,,,,,,,,,,,,,,,,,,,,,,,,,,,,,,,,,,,,,,,,,,,,,,,,,,,,,,,,,,,,,,,,,,,,,,,,,,,,,,,,,,,,,,,,,,,,,,,,,,,,,0,0,0,0,,,,,,,,,,,,,,,,,,,,,,,,,None,,,,,,,,,,2017_Jan_25_1602,59.5189165334,spr_backupper,001,Sa16,
,,,,,,,,,,,,,,,,,,,,,,,,,,,,,,,,,,,,,,,,,,,,,,,,,,,,,,,,,,,,,,,,,,,,,,,,,,,,,,,,,,,,,,,,,,,,,,,,,,,,,,,1,0,1,0,,,,,,,,,,,,,,,,,,,,,,,,,None,,,,,,,,,,2017_Jan_25_1602,59.5189165334,spr_backupper,001,Sa16,
,,,,,,,,,,,,,,,,,,,,,,,,,,,,,,,,,,,,,,,,,,,,,,,,,,,,,,,,,,,,,,,,,,,,,,,,,,,,,,,,,,,,,,,,,,,,,,,,,,,,,,,2,0,2,0,,,,,,,,,,,,,,,,,,,,,,,,,None,,,,,,,,,,2017_Jan_25_1602,59.5189165334,spr_backupper,001,Sa16,
,,,,,,,,,,,,,,,,,,,,,,,,,,,,,,,,,,,,,,,,,,,,,,,,,,,,,,,,,,,,,,,,,,,,,,,,,,,,,,,,,,,,,,,,,,,,,,,,,,,,,,,3,0,3,0,,,,,,,,,,,,,,,,,,,,,,,,,None,,,,,,,,,,2017_Jan_25_1602,59.5189165334,spr_backupper,001,Sa16,
,,,,,,,,,,,,,,,,,,,,,,,,,,,,,,,,,,,,,,,,,,,,,,,,,,,,,,,,,,,,,,,,,,,,,,,,,,,,,,,,,,,,,,,,,,,,,,,,,,,,,,,4,0,4,0,,,,,,,,,,,,,,,,,,,,,,,,,None,,,,,,,,,,2017_Jan_25_1602,59.5189165334,spr_backupper,001,Sa16,
,,,,,,,,,,,,,,,,,,,,,,,,,,,,,,,,,,,,,,,,,,,,,,,,,,,,,,,,,,,,,,,,,,,,,,,,,,,,,,,,,,,,,,,,,,,,,,,,,,,,,,,5,0,5,0,,,,,,,,,,,,,,,,,,,,,,,,,None,,,,,,,,,,2017_Jan_25_1602,59.5189165334,spr_backupper,001,Sa16,
,,,,,,,,,,,,,,,,,,,,,,,,,,,,,,,,,,,,,,,,,,,,,,,,,,,,,,,,,,,,,,,,,,,,,,,,,,,,,,,,,,,,,,,,,,,,,,,,,,,,,,,6,0,6,0,,,,,,,,,,,,,,,,,,,,,,,,,None,,,,,,,,,,2017_Jan_25_1602,59.5189165334,spr_backupper,001,Sa16,
,,,,,,,,,,,,,,,,,,,,,,,,,,,,,,,,,,,,,,,,,,,,,,,,,,,,,,,,,,,,,,,,,,,,,,,,,,,,,,,,,,,,,,,,,,,,,,,,,,,,,,,7,0,7,0,,,,,,,,,,,,,,,,,,,,,,,,,None,,,,,,,,,,2017_Jan_25_1602,59.5189165334,spr_backupper,001,Sa16,
,,,,,,,,,,,,,,,,,,,,,,,,,,,,,,,,,,,,,,,,,,,,,,,,,,,,,,,,,,,,,,,,,,,,,,,,,,,,,,,,,,,,,,,,,,,,,,,,,,,,,,,8,0,8,0,,,,,,,,,,,,,,,,,,,,,,,,,None,,,,,,,,,,2017_Jan_25_1602,59.5189165334,spr_backupper,001,Sa16,
,,,,,,,,,,,,,,,,,,,,,,,,,,,,,,,,,,,,,,,,,,,,,,,,,,,,,,,,,,,,,,,,,,,,,,,,,,,,,,,,,,,,,,,,,,,,,,,,,,,,,,,9,0,9,0,,,,,,,,,,,,,,,,,,,,,,,,,None,,,,,,,,,,2017_Jan_25_1602,59.5189165334,spr_backupper,001,Sa16,
,,,,,,,,,,,,,,,,,,,,,,,,,,,,,,,,,,,,,,,,,,,,,,,,,,,,,,,,,,,,,,,,,,,,,,,,,,,,,,,,,,,,,,,,,,,,,,,,,,,,,,,,,,,,,,,,,,,,,,,,,,,,,,,,,,,,space,3.43717503548,,,,,,,,2017_Jan_25_1602,59.5189165334,spr_backupper,001,Sa16,
,Die,In,Ich,Ich,Sie,Bei,Beträchtliche,Dass,In,Fernab,Die,Es,In,Er,Die,Die,Sie,In,Die,Jungtiere,In,Mit,100,Wir,In,Dort,Er,Außer,Wir,Viele,Man,Wir,Der,Ich,Beträchtliche,Wir,Sie,Danach,Wir,Es,Die,Die,Außer,Wir,Die,Wir,Viele,Es,Die,100,Mit,Die,Jetzt,Die,Wir,Die,Alle,Er,Am,Die,Er,Im,Die,Man,Nicht,Sie,Manche,Es,Das,Dort,Außer,Im,Bei,Unter,In,Sie,Nicht,Die,Ihr,Er,Bei,Walter,Die,Die,Am,In,Die,Es,Die,Jugendliche,Die,Sie,Als,Sie,Bei,Wir,Die,Außer,,,,,,,,,,,,,,,,,,,,,,,0,0,0,0,0,0,0,0,,,,,,None,space,1.52641701698,,,,,2017_Jan_25_1602,59.5189165334,spr_backupper,001,Sa16,
,Uhr,der,nehme,wurde,verbrauchen,unserer,Stücke,es,meinem,des,Gäste,waren,einer,wurde,Uhr,Gäste,verbrauchen,den,Stücke,sollten,den,dieser,g,übergaben,diesem,türmen,stellt,den,übergaben,Tonnen,machte,mussten,Flug,nehme,Stücke,konnten,verlassen,wurde,hatten,wurden,Linie,Formen,das,mussten,Uhr,haben,Tonnen,waren,Schule,g,dieser,Teilnehmerinnen,ist,Kinder,haben,müden,Betten,hat,äußeren,Lösung,wurde,Fernrohr,Schule,machte,ein,verlassen,Kreditnehmer,wurden,Tuch,türmen,dem,Fernrohr,der,keinen,der,hatte,ein,Schuhe,Blutdruck,stellt,der,Scheel,Eislaufbahnen,"Uhr,",äußersten,meinem,Autos,hat,Schuhe,können,Kinder,haben,die,hatte,unserer,hatten,Autos,dem,,,,,,,,,,,,,,,,,,,,,,,0,0,0,0,0,1,1,1,,,,,,,space,0.553807020187,,,,,2017_Jan_25_1602,59.5189165334,spr_backupper,001,Sa16,
,war,Tat,eine,damals,60,Ankunft,saftigen,"regnete,",Studium,Rummels,suchen,nur,Studie,trotz,schlug,suchen,60,Kakao,wurden,immer,Kakao,Methode,braunen,dem,Zirkus,sich,die,Bürgermeister,das,gebrauchte,mal,uns,zum,eine,saftiges,dann,wegen,die,in,Eimer,101,wurden,Essen,uns,schlug,jede,gebrauchter,nur,verbraucht,brauner,Methode,wussten,genau,fuhren,jede,Teilnehmer,wurden,ein,Rand,wird,trotz,sahen,verbraucht,mal,Tropfen,wegen,sind,Eimer,wurde,sich,Essen,sahen,Feier,Umständen,Tat,keine,Tropfen,in,kann,die,Feier,war,wurden,die,Rand,Studium,beider,uns,in,Kleidung,fuhren,die,Sonne,keine,Ankunft,in,beider,Bürgermeister,,,,,,,,,,,,,,,,,,,,,,,0,0,0,0,0,2,2,2,,,,,,,space,0.513122797012,,,,,2017_Jan_25_1602,59.5189165334,spr_backupper,001,Sa16,
,aus,wissen,große,schnell,Liter,stand,Fleischs,hat,las,wurde,die,kleinere,wurde,des,"sporadisch,",die,Liter,gehören,aus,auf,gehören,kann,Zuckers,Mann,werden,Berge,Masse,beschuldigten,Auto,Kleidung,wieder,durch,Mond,große,Fleisch,mit,des,Leinwand,Dänemark,rote,hält,unter,kann,durch,"sporadisch,",Menge,Kleidung,kleinere,260.000,Zucker,kann,überwiegend,die,mit,Menge,wurden,mit,Hemd,der,mit,dem,wir,260.000,wieder,königliches,dem,mit,roter,dann,Berge,kann,wir,gedachte,können,wissen,Lust,königlichen,Größe,schon,Masse,gedachte,der,mit,er,der,habe,beteiligten,die,Größe,bei,mit,Erlebnisse,"unterging,",Lust,stand,Dänemark,beteiligter,beschuldigten,,,,,,,,,,,,,,,,,,,,,,,0,0,0,0,0,3,3,3,,,,,,,space,0.502480983734,,,,,2017_Jan_25_1602,59.5189165334,spr_backupper,001,Sa16,
,"Japan,",wir,Packung,dank,sprudelndes,ein,wurden,uns,ich,schon,Wohnung,"Delikte,",jetzt,bekannten,obwohl,Wohnung,sprudelnden,immer,"wertvollem,",warmem,immer,man,sind,das,die,schmutzige,mit,die,dem,landen,viel,Büschel,dauerte,Packung,wurden,"minimalem,",schönen,aus,gelegentlich,Farbe,nicht,"regelmäßigem,",ich,Büschel,obschon,alten,landen,"Delikte,",Kilowattstunden,sind,man,"nicht,",richtige,solchen,alten,mit,"üblichem,",aus,Stadt,"reichlichem,",bekannten,den,Kilowattstunden,viel,Blut,schönen,"sämtlichem,",Farbe,mit,schmutziger,ich,den,man,Neuwahlen,wir,auf,Bluts,36,bei,mit,man,vierte,dauerhaftem,"trug,",Stadt,ich,Fahrer,Stimmung,36,ausreichendem,solch,bei,war,auf,ein,einen,Fahrer,die,,,,,,,,,,,,,,,,,,,,,,,0,0,0,0,0,4,4,4,,,,,,,space,0.535384893417,,,,,2017_Jan_25_1602,59.5189165334,spr_backupper,001,Sa16,
,die,um,salzige,täglichem,Trinkwasser.,Glas,serviert.,die,mehr,immer,des,deren,"nachgewiesen,",Skandals,sie,des,Trinkwassers.,350,klassischen,weichem,350,eine,auf,Auto,Tiere,Wäsche.,einem,Störenfriede,Mann,im,Lärm,frisches,ungefähr,salziger,serviert.,sauberen,Wetters,seltenem,einen,geschleudert.,am,kaltem,leider,frischen,sie,Krams,im,derer,elektrische,auf,eine,was,"Zeit,",unzureichenden,Kram,zusätzlichem,harten,feinem,liegen,purem,Skandal,roten,elektrischer,Lärm,hat,Wetter,künftigem,geschleudert.,"reichem,",Wäsche.,leider,roten,der,vor,von,noch,hat,hätten,minimalem,einem,den,Bundespräsident.,feinem,war,liegen,mehr,wurden,ziemlich,würden,monatlichem,unzureichenden,"frischem,",die,noch,Glas,gelegentlichen,wurden,Störenfriede,,,,,,,,,,,,,,,,,,,,,,,0,0,0,0,0,5,5,5,,,,,,,space,0.497934818268,,,,,2017_Jan_25_1602,59.5189165334,spr_backupper,001,Sa16,
,,,,,,,,,,,,,,,,,,,,,,,,,,,,,,,,,,,,,,,,,,,,,,,,,,,,,,,,,,,,,,,,,,,,,,,,,,,,,,,,,,,,,,,,,,,,,,,,,,,,,,,,,,,,,,,,,,,,,,,,,0,0,0,0,,,,,,,,,,,,,None,n,3.17068386078,,2017_Jan_25_1602,59.5189165334,spr_backupper,001,Sa16,
,Die,In,Ich,Ich,Sie,Bei,Beträchtliche,Dass,In,Fernab,Die,Es,In,Er,Die,Die,Sie,In,Die,Jungtiere,In,Mit,100,Wir,In,Dort,Er,Außer,Wir,Viele,Man,Wir,Der,Ich,Beträchtliche,Wir,Sie,Danach,Wir,Es,Die,Die,Außer,Wir,Die,Wir,Viele,Es,Die,100,Mit,Die,Jetzt,Die,Wir,Die,Alle,Er,Am,Die,Er,Im,Die,Man,Nicht,Sie,Manche,Es,Das,Dort,Außer,Im,Bei,Unter,In,Sie,Nicht,Die,Ihr,Er,Bei,Walter,Die,Die,Am,In,Die,Es,Die,Jugendliche,Die,Sie,Als,Sie,Bei,Wir,Die,Außer,,,,,,,,,,,,,,,,,,,,,,,1,0,1,0,0,0,0,0,,,,,,None,space,1.87283396721,,,,,2017_Jan_25_1602,59.5189165334,spr_backupper,001,Sa16,
,Uhr,der,nehme,wurde,verbrauchen,unserer,Stücke,es,meinem,des,Gäste,waren,einer,wurde,Uhr,Gäste,verbrauchen,den,Stücke,sollten,den,dieser,g,übergaben,diesem,türmen,stellt,den,übergaben,Tonnen,machte,mussten,Flug,nehme,Stücke,konnten,verlassen,wurde,hatten,wurden,Linie,Formen,das,mussten,Uhr,haben,Tonnen,waren,Schule,g,dieser,Teilnehmerinnen,ist,Kinder,haben,müden,Betten,hat,äußeren,Lösung,wurde,Fernrohr,Schule,machte,ein,verlassen,Kreditnehmer,wurden,Tuch,türmen,dem,Fernrohr,der,keinen,der,hatte,ein,Schuhe,Blutdruck,stellt,der,Scheel,Eislaufbahnen,"Uhr,",äußersten,meinem,Autos,hat,Schuhe,können,Kinder,haben,die,hatte,unserer,hatten,Autos,dem,,,,,,,,,,,,,,,,,,,,,,,1,0,1,0,0,1,1,1,,,,,,,space,0.339251041412,,,,,2017_Jan_25_1602,59.5189165334,spr_backupper,001,Sa16,
,war,Tat,eine,damals,60,Ankunft,saftigen,"regnete,",Studium,Rummels,suchen,nur,Studie,trotz,schlug,suchen,60,Kakao,wurden,immer,Kakao,Methode,braunen,dem,Zirkus,sich,die,Bürgermeister,das,gebrauchte,mal,uns,zum,eine,saftiges,dann,wegen,die,in,Eimer,101,wurden,Essen,uns,schlug,jede,gebrauchter,nur,verbraucht,brauner,Methode,wussten,genau,fuhren,jede,Teilnehmer,wurden,ein,Rand,wird,trotz,sahen,verbraucht,mal,Tropfen,wegen,sind,Eimer,wurde,sich,Essen,sahen,Feier,Umständen,Tat,keine,Tropfen,in,kann,die,Feier,war,wurden,die,Rand,Studium,beider,uns,in,Kleidung,fuhren,die,Sonne,keine,Ankunft,in,beider,Bürgermeister,,,,,,,,,,,,,,,,,,,,,,,1,0,1,0,0,2,2,2,,,,,,,space,0.394237041473,,,,,2017_Jan_25_1602,59.5189165334,spr_backupper,001,Sa16,
,aus,wissen,große,schnell,Liter,stand,Fleischs,hat,las,wurde,die,kleinere,wurde,des,"sporadisch,",die,Liter,gehören,aus,auf,gehören,kann,Zuckers,Mann,werden,Berge,Masse,beschuldigten,Auto,Kleidung,wieder,durch,Mond,große,Fleisch,mit,des,Leinwand,Dänemark,rote,hält,unter,kann,durch,"sporadisch,",Menge,Kleidung,kleinere,260.000,Zucker,kann,überwiegend,die,mit,Menge,wurden,mit,Hemd,der,mit,dem,wir,260.000,wieder,königliches,dem,mit,roter,dann,Berge,kann,wir,gedachte,können,wissen,Lust,königlichen,Größe,schon,Masse,gedachte,der,mit,er,der,habe,beteiligten,die,Größe,bei,mit,Erlebnisse,"unterging,",Lust,stand,Dänemark,beteiligter,beschuldigten,,,,,,,,,,,,,,,,,,,,,,,1,0,1,0,0,3,3,3,,,,,,,space,0.347318887711,,,,,2017_Jan_25_1602,59.5189165334,spr_backupper,001,Sa16,
,"Japan,",wir,Packung,dank,sprudelndes,ein,wurden,uns,ich,schon,Wohnung,"Delikte,",jetzt,bekannten,obwohl,Wohnung,sprudelnden,immer,"wertvollem,",warmem,immer,man,sind,das,die,schmutzige,mit,die,dem,landen,viel,Büschel,dauerte,Packung,wurden,"minimalem,",schönen,aus,gelegentlich,Farbe,nicht,"regelmäßigem,",ich,Büschel,obschon,alten,landen,"Delikte,",Kilowattstunden,sind,man,"nicht,",richtige,solchen,alten,mit,"üblichem,",aus,Stadt,"reichlichem,",bekannten,den,Kilowattstunden,viel,Blut,schönen,"sämtlichem,",Farbe,mit,schmutziger,ich,den,man,Neuwahlen,wir,auf,Bluts,36,bei,mit,man,vierte,dauerhaftem,"trug,",Stadt,ich,Fahrer,Stimmung,36,ausreichendem,solch,bei,war,auf,ein,einen,Fahrer,die,,,,,,,,,,,,,,,,,,,,,,,1,0,1,0,0,4,4,4,,,,,,,space,0.352575063705,,,,,2017_Jan_25_1602,59.5189165334,spr_backupper,001,Sa16,
,die,um,salzige,täglichem,Trinkwasser.,Glas,serviert.,die,mehr,immer,des,deren,"nachgewiesen,",Skandals,sie,des,Trinkwassers.,350,klassischen,weichem,350,eine,auf,Auto,Tiere,Wäsche.,einem,Störenfriede,Mann,im,Lärm,frisches,ungefähr,salziger,serviert.,sauberen,Wetters,seltenem,einen,geschleudert.,am,kaltem,leider,frischen,sie,Krams,im,derer,elektrische,auf,eine,was,"Zeit,",unzureichenden,Kram,zusätzlichem,harten,feinem,liegen,purem,Skandal,roten,elektrischer,Lärm,hat,Wetter,künftigem,geschleudert.,"reichem,",Wäsche.,leider,roten,der,vor,von,noch,hat,hätten,minimalem,einem,den,Bundespräsident.,feinem,war,liegen,mehr,wurden,ziemlich,würden,monatlichem,unzureichenden,"frischem,",die,noch,Glas,gelegentlichen,wurden,Störenfriede,,,,,,,,,,,,,,,,,,,,,,,1,0,1,0,0,5,5,5,,,,,,,space,0.361294984818,,,,,2017_Jan_25_1602,59.5189165334,spr_backupper,001,Sa16,
,er,die,Wurst,grünen,nan,köstlicher,nan,Stimmung,als,ruhig,Herrn,sie,dass,wiedergewählt.,defekt,Herrn,nan,ml,Schmuck,Untergrund,ml,große,jeden,mehr,artgerecht,nan,Esslöffel,jeden.,mehr,Müll.,um,Gras,drei,Wurst,nan,Kraftstoff,die,dichten,Besucher.,nan,Hauptbahnhof.,Abduschen,nichts,Grases,defekt,aus,Müll.,sie,Energie.,jeden,große,Tupperware,um,Helmen,aus,schwarzem,Schaumstoff,dichten,die,Alkohol,wiedergewählt.,Planet,Energie.,um,den,die,Einkommen,nan,goldenen,nan,nichts,Planeten,Soldaten,Dezember,den,eine,den,seiner,täglichen,Esslöffel,Soldaten,nan,Kunsteis,aus,die,als,verschrottet.,"vermiest,",seiner,Taschengeld,Helmen,kaltem,Flut,eine,köstlichen,Besucher.,verschrottet.,jeden.,,,,,,,,,,,,,,,,,,,,,,,1,0,1,0,0,6,6,6,,,,,,,space,0.475518941879,,,,,2017_Jan_25_1602,59.5189165334,spr_backupper,001,Sa16,
,trug.,Probleme,mit,Tee,nan,Wein,nan,ziemlich,einmal,diskutiert.,Gantenbein.,überführt,das,nan,war.,Gantenbeins.,nan,warme,umgearbeitet.,liegen.,warmer,Menge,Fall,als,gehalten.,nan,warmen,nan,als,nan,jede,zwängen.,Tage.,mit,nan,fahren.,Wohnung.,Gewebe,nan,nan,nan,gehärtet.,mitbringen.,zwängen.,war.,dem,nan,überführt,nan,Fall,Menge,ist.,Nadelhölzer,zur,dem,Kaffee,gefertigt.,Stoff,Slums.,verdünnt.,nan,ganz,nan,jede,Boden,Wohnung.,haftbar.,nan,Besatz,nan,mitbringen.,ganz,des,stattfinden.,Problemen,Sammlung,Boden,Frau,Einsatz,warmem,des,nan,eingesprüht.,Japan.,Slums.,einmal,nan,dass,Frau,selber,zur,Saft,zurückgekehrt.,Sammlung,Weins,nan,nan,nan,,,,,,,,,,,,,,,,,,,,,,,1,0,1,0,0,7,7,7,,,,,,,space,0.409380912781,,,,,2017_Jan_25_1602,59.5189165334,spr_backupper,001,Sa16,
,nan,im,an,wieder,nan,schon,nan,vermiest.,Rilke.,nan,nan,wurden.,Medikament,nan,nan,nan,nan,Milch.,nan,nan,Milch.,dunkler,genug.,gerne.,nan,nan,Honigs,nan,gerne.,nan,Menge,nan,nan,an,nan,nan,nan,wiederhergestellt.,nan,nan,nan,nan,nan,nan,nan,Haus,nan,wurden.,nan,genug.,dunkle,nan,umzusetzen.,Schule.,Haus,wiederbelebt.,nan,gefertigt.,nan,nan,nan,deutlich.,nan,Menge,berührt.,nan,nan,nan,rekonstruiert.,nan,nan,deutlich.,zweiten,nan,im,dumme,berührt.,gepasst.,sinken.,Honig,zweiten,nan,nan,nan,nan,Rilke,nan,es,gepasst,kaufen.,Schule.,besprochen.,nan,dummer,schon,nan,nan,nan,,,,,,,,,,,,,,,,,,,,,,,1,0,1,0,0,8,8,8,,,,,,,space,0.475399017334,,,,,2017_Jan_25_1602,59.5189165334,spr_backupper,001,Sa16,
,nan,Landkreis.,den,fit.,nan,auf,nan,nan,nan,nan,nan,nan,nicht,nan,nan,nan,nan,nan,nan,nan,nan,Materie,nan,nan,nan,nan,her.,nan,nan,nan,heißer,nan,nan,den,nan,nan,nan,nan,nan,nan,nan,nan,nan,nan,nan,geschafft.,nan,nan,nan,nan,Materie,nan,nan,nan,geschafft.,nan,nan,nan,nan,nan,nan,nan,nan,heiße,nan,nan,nan,nan,nan,nan,nan,nan,Weltkriegs.,nan,Landkreis.,Sprüche.,nan,nan,nan,her.,Weltkriegs.,nan,nan,nan,nan,gelesen.,nan,regnete.,haben.,nan,nan,nan,nan,Sprüche.,auf,nan,nan,nan,,,,,,,,,,,,,,,,,,,,,,,1,0,1,0,0,9,9,9,,,,,,,space,0.3585729599,,,,,2017_Jan_25_1602,59.5189165334,spr_backupper,001,Sa16,
,nan,nan,See.,nan,nan,dem,nan,nan,nan,nan,nan,nan,wirkt.,nan,nan,nan,nan,nan,nan,nan,nan,erzeugen.,nan,nan,nan,nan,nan,nan,nan,nan,Luft.,nan,nan,See.,nan,nan,nan,nan,nan,nan,nan,nan,nan,nan,nan,nan,nan,nan,nan,nan,erzeugen.,nan,nan,nan,nan,nan,nan,nan,nan,nan,nan,nan,nan,Luft.,nan,nan,nan,nan,nan,nan,nan,nan,nan,nan,nan,nan,nan,nan,nan,nan,nan,nan,nan,nan,nan,nan,nan,nan,nan,nan,nan,nan,nan,nan,dem,nan,nan,nan,,,,,,,,,,,,,,,,,,,,,,,1,0,1,0,0,10,10,10,,,,,,,space,0.343920946121,,,,,2017_Jan_25_1602,59.5189165334,spr_backupper,001,Sa16,
,nan,nan,nan,nan,nan,Tisch.,nan,nan,nan,nan,nan,nan,nan,nan,nan,nan,nan,nan,nan,nan,nan,nan,nan,nan,nan,nan,nan,nan,nan,nan,nan,nan,nan,nan,nan,nan,nan,nan,nan,nan,nan,nan,nan,nan,nan,nan,nan,nan,nan,nan,nan,nan,nan,nan,nan,nan,nan,nan,nan,nan,nan,nan,nan,nan,nan,nan,nan,nan,nan,nan,nan,nan,nan,nan,nan,nan,nan,nan,nan,nan,nan,nan,nan,nan,nan,nan,nan,nan,nan,nan,nan,nan,nan,nan,Tisch.,nan,nan,nan,,,,,,,,,,,,,,,,,,,,,,,1,0,1,0,0,11,11,11,,,,,,,space,0.33703994751,,,,,2017_Jan_25_1602,59.5189165334,spr_backupper,001,Sa16,
,,,,,,,,,,,,,,,,,,,,,,,,,,,,,,,,,,,,,,,,,,,,,,,,,,,,,,,,,,,,,,,,,,,,,,,,,,,,,,,,,,,,,,,,,,,,,,,,,,,,,,,,,,,,,,,,,,,,,,,,,1,0,1,0,,,,,,,,,,,,,None,j,2.23125600815,,2017_Jan_25_1602,59.5189165334,spr_backupper,001,Sa16,
,Die,In,Ich,Ich,Sie,Bei,Beträchtliche,Dass,In,Fernab,Die,Es,In,Er,Die,Die,Sie,In,Die,Jungtiere,In,Mit,100,Wir,In,Dort,Er,Außer,Wir,Viele,Man,Wir,Der,Ich,Beträchtliche,Wir,Sie,Danach,Wir,Es,Die,Die,Außer,Wir,Die,Wir,Viele,Es,Die,100,Mit,Die,Jetzt,Die,Wir,Die,Alle,Er,Am,Die,Er,Im,Die,Man,Nicht,Sie,Manche,Es,Das,Dort,Außer,Im,Bei,Unter,In,Sie,Nicht,Die,Ihr,Er,Bei,Walter,Die,Die,Am,In,Die,Es,Die,Jugendliche,Die,Sie,Als,Sie,Bei,Wir,Die,Außer,,,,,,,,,,,,,,,,,,,,,,,2,0,2,0,0,0,0,0,,,,,,None,space,0.852041959763,,,,,2017_Jan_25_1602,59.5189165334,spr_backupper,001,Sa16,
,Uhr,der,nehme,wurde,verbrauchen,unserer,Stücke,es,meinem,des,Gäste,waren,einer,wurde,Uhr,Gäste,verbrauchen,den,Stücke,sollten,den,dieser,g,übergaben,diesem,türmen,stellt,den,übergaben,Tonnen,machte,mussten,Flug,nehme,Stücke,konnten,verlassen,wurde,hatten,wurden,Linie,Formen,das,mussten,Uhr,haben,Tonnen,waren,Schule,g,dieser,Teilnehmerinnen,ist,Kinder,haben,müden,Betten,hat,äußeren,Lösung,wurde,Fernrohr,Schule,machte,ein,verlassen,Kreditnehmer,wurden,Tuch,türmen,dem,Fernrohr,der,keinen,der,hatte,ein,Schuhe,Blutdruck,stellt,der,Scheel,Eislaufbahnen,"Uhr,",äußersten,meinem,Autos,hat,Schuhe,können,Kinder,haben,die,hatte,unserer,hatten,Autos,dem,,,,,,,,,,,,,,,,,,,,,,,2,0,2,0,0,1,1,1,,,,,,,space,0.503930091858,,,,,2017_Jan_25_1602,59.5189165334,spr_backupper,001,Sa16,
,war,Tat,eine,damals,60,Ankunft,saftigen,"regnete,",Studium,Rummels,suchen,nur,Studie,trotz,schlug,suchen,60,Kakao,wurden,immer,Kakao,Methode,braunen,dem,Zirkus,sich,die,Bürgermeister,das,gebrauchte,mal,uns,zum,eine,saftiges,dann,wegen,die,in,Eimer,101,wurden,Essen,uns,schlug,jede,gebrauchter,nur,verbraucht,brauner,Methode,wussten,genau,fuhren,jede,Teilnehmer,wurden,ein,Rand,wird,trotz,sahen,verbraucht,mal,Tropfen,wegen,sind,Eimer,wurde,sich,Essen,sahen,Feier,Umständen,Tat,keine,Tropfen,in,kann,die,Feier,war,wurden,die,Rand,Studium,beider,uns,in,Kleidung,fuhren,die,Sonne,keine,Ankunft,in,beider,Bürgermeister,,,,,,,,,,,,,,,,,,,,,,,2,0,2,0,0,2,2,2,,,,,,,space,0.511271953583,,,,,2017_Jan_25_1602,59.5189165334,spr_backupper,001,Sa16,
,aus,wissen,große,schnell,Liter,stand,Fleischs,hat,las,wurde,die,kleinere,wurde,des,"sporadisch,",die,Liter,gehören,aus,auf,gehören,kann,Zuckers,Mann,werden,Berge,Masse,beschuldigten,Auto,Kleidung,wieder,durch,Mond,große,Fleisch,mit,des,Leinwand,Dänemark,rote,hält,unter,kann,durch,"sporadisch,",Menge,Kleidung,kleinere,260.000,Zucker,kann,überwiegend,die,mit,Menge,wurden,mit,Hemd,der,mit,dem,wir,260.000,wieder,königliches,dem,mit,roter,dann,Berge,kann,wir,gedachte,können,wissen,Lust,königlichen,Größe,schon,Masse,gedachte,der,mit,er,der,habe,beteiligten,die,Größe,bei,mit,Erlebnisse,"unterging,",Lust,stand,Dänemark,beteiligter,beschuldigten,,,,,,,,,,,,,,,,,,,,,,,2,0,2,0,0,3,3,3,,,,,,,space,0.37828207016,,,,,2017_Jan_25_1602,59.5189165334,spr_backupper,001,Sa16,
,"Japan,",wir,Packung,dank,sprudelndes,ein,wurden,uns,ich,schon,Wohnung,"Delikte,",jetzt,bekannten,obwohl,Wohnung,sprudelnden,immer,"wertvollem,",warmem,immer,man,sind,das,die,schmutzige,mit,die,dem,landen,viel,Büschel,dauerte,Packung,wurden,"minimalem,",schönen,aus,gelegentlich,Farbe,nicht,"regelmäßigem,",ich,Büschel,obschon,alten,landen,"Delikte,",Kilowattstunden,sind,man,"nicht,",richtige,solchen,alten,mit,"üblichem,",aus,Stadt,"reichlichem,",bekannten,den,Kilowattstunden,viel,Blut,schönen,"sämtlichem,",Farbe,mit,schmutziger,ich,den,man,Neuwahlen,wir,auf,Bluts,36,bei,mit,man,vierte,dauerhaftem,"trug,",Stadt,ich,Fahrer,Stimmung,36,ausreichendem,solch,bei,war,auf,ein,einen,Fahrer,die,,,,,,,,,,,,,,,,,,,,,,,2,0,2,0,0,4,4,4,,,,,,,space,0.436085939407,,,,,2017_Jan_25_1602,59.5189165334,spr_backupper,001,Sa16,
,die,um,salzige,täglichem,Trinkwasser.,Glas,serviert.,die,mehr,immer,des,deren,"nachgewiesen,",Skandals,sie,des,Trinkwassers.,350,klassischen,weichem,350,eine,auf,Auto,Tiere,Wäsche.,einem,Störenfriede,Mann,im,Lärm,frisches,ungefähr,salziger,serviert.,sauberen,Wetters,seltenem,einen,geschleudert.,am,kaltem,leider,frischen,sie,Krams,im,derer,elektrische,auf,eine,was,"Zeit,",unzureichenden,Kram,zusätzlichem,harten,feinem,liegen,purem,Skandal,roten,elektrischer,Lärm,hat,Wetter,künftigem,geschleudert.,"reichem,",Wäsche.,leider,roten,der,vor,von,noch,hat,hätten,minimalem,einem,den,Bundespräsident.,feinem,war,liegen,mehr,wurden,ziemlich,würden,monatlichem,unzureichenden,"frischem,",die,noch,Glas,gelegentlichen,wurden,Störenfriede,,,,,,,,,,,,,,,,,,,,,,,2,0,2,0,0,5,5,5,,,,,,,space,0.455395936966,,,,,2017_Jan_25_1602,59.5189165334,spr_backupper,001,Sa16,
,,,,,,,,,,,,,,,,,,,,,,,,,,,,,,,,,,,,,,,,,,,,,,,,,,,,,,,,,,,,,,,,,,,,,,,,,,,,,,,,,,,,,,,,,,,,,,,,,,,,,,,,,,,,,,,,,,,,,,,,,2,0,2,0,,,,,,,,,,,,,None,j,2.98631095886,,2017_Jan_25_1602,59.5189165334,spr_backupper,001,Sa16,
,Die,In,Ich,Ich,Sie,Bei,Beträchtliche,Dass,In,Fernab,Die,Es,In,Er,Die,Die,Sie,In,Die,Jungtiere,In,Mit,100,Wir,In,Dort,Er,Außer,Wir,Viele,Man,Wir,Der,Ich,Beträchtliche,Wir,Sie,Danach,Wir,Es,Die,Die,Außer,Wir,Die,Wir,Viele,Es,Die,100,Mit,Die,Jetzt,Die,Wir,Die,Alle,Er,Am,Die,Er,Im,Die,Man,Nicht,Sie,Manche,Es,Das,Dort,Außer,Im,Bei,Unter,In,Sie,Nicht,Die,Ihr,Er,Bei,Walter,Die,Die,Am,In,Die,Es,Die,Jugendliche,Die,Sie,Als,Sie,Bei,Wir,Die,Außer,,,,,,,,,,,,,,,,,,,,,,,3,0,3,0,0,0,0,0,,,,,,None,space,0.440060138702,,,,,2017_Jan_25_1602,59.5189165334,spr_backupper,001,Sa16,
,Uhr,der,nehme,wurde,verbrauchen,unserer,Stücke,es,meinem,des,Gäste,waren,einer,wurde,Uhr,Gäste,verbrauchen,den,Stücke,sollten,den,dieser,g,übergaben,diesem,türmen,stellt,den,übergaben,Tonnen,machte,mussten,Flug,nehme,Stücke,konnten,verlassen,wurde,hatten,wurden,Linie,Formen,das,mussten,Uhr,haben,Tonnen,waren,Schule,g,dieser,Teilnehmerinnen,ist,Kinder,haben,müden,Betten,hat,äußeren,Lösung,wurde,Fernrohr,Schule,machte,ein,verlassen,Kreditnehmer,wurden,Tuch,türmen,dem,Fernrohr,der,keinen,der,hatte,ein,Schuhe,Blutdruck,stellt,der,Scheel,Eislaufbahnen,"Uhr,",äußersten,meinem,Autos,hat,Schuhe,können,Kinder,haben,die,hatte,unserer,hatten,Autos,dem,,,,,,,,,,,,,,,,,,,,,,,3,0,3,0,0,1,1,1,,,,,,,space,0.386893033981,,,,,2017_Jan_25_1602,59.5189165334,spr_backupper,001,Sa16,
,war,Tat,eine,damals,60,Ankunft,saftigen,"regnete,",Studium,Rummels,suchen,nur,Studie,trotz,schlug,suchen,60,Kakao,wurden,immer,Kakao,Methode,braunen,dem,Zirkus,sich,die,Bürgermeister,das,gebrauchte,mal,uns,zum,eine,saftiges,dann,wegen,die,in,Eimer,101,wurden,Essen,uns,schlug,jede,gebrauchter,nur,verbraucht,brauner,Methode,wussten,genau,fuhren,jede,Teilnehmer,wurden,ein,Rand,wird,trotz,sahen,verbraucht,mal,Tropfen,wegen,sind,Eimer,wurde,sich,Essen,sahen,Feier,Umständen,Tat,keine,Tropfen,in,kann,die,Feier,war,wurden,die,Rand,Studium,beider,uns,in,Kleidung,fuhren,die,Sonne,keine,Ankunft,in,beider,Bürgermeister,,,,,,,,,,,,,,,,,,,,,,,3,0,3,0,0,2,2,2,,,,,,,space,0.460772037506,,,,,2017_Jan_25_1602,59.5189165334,spr_backupper,001,Sa16,
,aus,wissen,große,schnell,Liter,stand,Fleischs,hat,las,wurde,die,kleinere,wurde,des,"sporadisch,",die,Liter,gehören,aus,auf,gehören,kann,Zuckers,Mann,werden,Berge,Masse,beschuldigten,Auto,Kleidung,wieder,durch,Mond,große,Fleisch,mit,des,Leinwand,Dänemark,rote,hält,unter,kann,durch,"sporadisch,",Menge,Kleidung,kleinere,260.000,Zucker,kann,überwiegend,die,mit,Menge,wurden,mit,Hemd,der,mit,dem,wir,260.000,wieder,königliches,dem,mit,roter,dann,Berge,kann,wir,gedachte,können,wissen,Lust,königlichen,Größe,schon,Masse,gedachte,der,mit,er,der,habe,beteiligten,die,Größe,bei,mit,Erlebnisse,"unterging,",Lust,stand,Dänemark,beteiligter,beschuldigten,,,,,,,,,,,,,,,,,,,,,,,3,0,3,0,0,3,3,3,,,,,,,space,0.402213096619,,,,,2017_Jan_25_1602,59.5189165334,spr_backupper,001,Sa16,
,"Japan,",wir,Packung,dank,sprudelndes,ein,wurden,uns,ich,schon,Wohnung,"Delikte,",jetzt,bekannten,obwohl,Wohnung,sprudelnden,immer,"wertvollem,",warmem,immer,man,sind,das,die,schmutzige,mit,die,dem,landen,viel,Büschel,dauerte,Packung,wurden,"minimalem,",schönen,aus,gelegentlich,Farbe,nicht,"regelmäßigem,",ich,Büschel,obschon,alten,landen,"Delikte,",Kilowattstunden,sind,man,"nicht,",richtige,solchen,alten,mit,"üblichem,",aus,Stadt,"reichlichem,",bekannten,den,Kilowattstunden,viel,Blut,schönen,"sämtlichem,",Farbe,mit,schmutziger,ich,den,man,Neuwahlen,wir,auf,Bluts,36,bei,mit,man,vierte,dauerhaftem,"trug,",Stadt,ich,Fahrer,Stimmung,36,ausreichendem,solch,bei,war,auf,ein,einen,Fahrer,die,,,,,,,,,,,,,,,,,,,,,,,3,0,3,0,0,4,4,4,,,,,,,space,0.36943602562,,,,,2017_Jan_25_1602,59.5189165334,spr_backupper,001,Sa16,
,die,um,salzige,täglichem,Trinkwasser.,Glas,serviert.,die,mehr,immer,des,deren,"nachgewiesen,",Skandals,sie,des,Trinkwassers.,350,klassischen,weichem,350,eine,auf,Auto,Tiere,Wäsche.,einem,Störenfriede,Mann,im,Lärm,frisches,ungefähr,salziger,serviert.,sauberen,Wetters,seltenem,einen,geschleudert.,am,kaltem,leider,frischen,sie,Krams,im,derer,elektrische,auf,eine,was,"Zeit,",unzureichenden,Kram,zusätzlichem,harten,feinem,liegen,purem,Skandal,roten,elektrischer,Lärm,hat,Wetter,künftigem,geschleudert.,"reichem,",Wäsche.,leider,roten,der,vor,von,noch,hat,hätten,minimalem,einem,den,Bundespräsident.,feinem,war,liegen,mehr,wurden,ziemlich,würden,monatlichem,unzureichenden,"frischem,",die,noch,Glas,gelegentlichen,wurden,Störenfriede,,,,,,,,,,,,,,,,,,,,,,,3,0,3,0,0,5,5,5,,,,,,,space,0.419356107712,,,,,2017_Jan_25_1602,59.5189165334,spr_backupper,001,Sa16,
,er,die,Wurst,grünen,nan,köstlicher,nan,Stimmung,als,ruhig,Herrn,sie,dass,wiedergewählt.,defekt,Herrn,nan,ml,Schmuck,Untergrund,ml,große,jeden,mehr,artgerecht,nan,Esslöffel,jeden.,mehr,Müll.,um,Gras,drei,Wurst,nan,Kraftstoff,die,dichten,Besucher.,nan,Hauptbahnhof.,Abduschen,nichts,Grases,defekt,aus,Müll.,sie,Energie.,jeden,große,Tupperware,um,Helmen,aus,schwarzem,Schaumstoff,dichten,die,Alkohol,wiedergewählt.,Planet,Energie.,um,den,die,Einkommen,nan,goldenen,nan,nichts,Planeten,Soldaten,Dezember,den,eine,den,seiner,täglichen,Esslöffel,Soldaten,nan,Kunsteis,aus,die,als,verschrottet.,"vermiest,",seiner,Taschengeld,Helmen,kaltem,Flut,eine,köstlichen,Besucher.,verschrottet.,jeden.,,,,,,,,,,,,,,,,,,,,,,,3,0,3,0,0,6,6,6,,,,,,,space,0.536581993103,,,,,2017_Jan_25_1602,59.5189165334,spr_backupper,001,Sa16,
,trug.,Probleme,mit,Tee,nan,Wein,nan,ziemlich,einmal,diskutiert.,Gantenbein.,überführt,das,nan,war.,Gantenbeins.,nan,warme,umgearbeitet.,liegen.,warmer,Menge,Fall,als,gehalten.,nan,warmen,nan,als,nan,jede,zwängen.,Tage.,mit,nan,fahren.,Wohnung.,Gewebe,nan,nan,nan,gehärtet.,mitbringen.,zwängen.,war.,dem,nan,überführt,nan,Fall,Menge,ist.,Nadelhölzer,zur,dem,Kaffee,gefertigt.,Stoff,Slums.,verdünnt.,nan,ganz,nan,jede,Boden,Wohnung.,haftbar.,nan,Besatz,nan,mitbringen.,ganz,des,stattfinden.,Problemen,Sammlung,Boden,Frau,Einsatz,warmem,des,nan,eingesprüht.,Japan.,Slums.,einmal,nan,dass,Frau,selber,zur,Saft,zurückgekehrt.,Sammlung,Weins,nan,nan,nan,,,,,,,,,,,,,,,,,,,,,,,3,0,3,0,0,7,7,7,,,,,,,space,0.436407089233,,,,,2017_Jan_25_1602,59.5189165334,spr_backupper,001,Sa16,
,nan,im,an,wieder,nan,schon,nan,vermiest.,Rilke.,nan,nan,wurden.,Medikament,nan,nan,nan,nan,Milch.,nan,nan,Milch.,dunkler,genug.,gerne.,nan,nan,Honigs,nan,gerne.,nan,Menge,nan,nan,an,nan,nan,nan,wiederhergestellt.,nan,nan,nan,nan,nan,nan,nan,Haus,nan,wurden.,nan,genug.,dunkle,nan,umzusetzen.,Schule.,Haus,wiederbelebt.,nan,gefertigt.,nan,nan,nan,deutlich.,nan,Menge,berührt.,nan,nan,nan,rekonstruiert.,nan,nan,deutlich.,zweiten,nan,im,dumme,berührt.,gepasst.,sinken.,Honig,zweiten,nan,nan,nan,nan,Rilke,nan,es,gepasst,kaufen.,Schule.,besprochen.,nan,dummer,schon,nan,nan,nan,,,,,,,,,,,,,,,,,,,,,,,3,0,3,0,0,8,8,8,,,,,,,space,0.419981002808,,,,,2017_Jan_25_1602,59.5189165334,spr_backupper,001,Sa16,
,,,,,,,,,,,,,,,,,,,,,,,,,,,,,,,,,,,,,,,,,,,,,,,,,,,,,,,,,,,,,,,,,,,,,,,,,,,,,,,,,,,,,,,,,,,,,,,,,,,,,,,,,,,,,,,,,,,,,,,,,3,0,3,0,,,,,,,,,,,,,None,j,1.8481221199,,2017_Jan_25_1602,59.5189165334,spr_backupper,001,Sa16,
,Die,In,Ich,Ich,Sie,Bei,Beträchtliche,Dass,In,Fernab,Die,Es,In,Er,Die,Die,Sie,In,Die,Jungtiere,In,Mit,100,Wir,In,Dort,Er,Außer,Wir,Viele,Man,Wir,Der,Ich,Beträchtliche,Wir,Sie,Danach,Wir,Es,Die,Die,Außer,Wir,Die,Wir,Viele,Es,Die,100,Mit,Die,Jetzt,Die,Wir,Die,Alle,Er,Am,Die,Er,Im,Die,Man,Nicht,Sie,Manche,Es,Das,Dort,Außer,Im,Bei,Unter,In,Sie,Nicht,Die,Ihr,Er,Bei,Walter,Die,Die,Am,In,Die,Es,Die,Jugendliche,Die,Sie,Als,Sie,Bei,Wir,Die,Außer,,,,,,,,,,,,,,,,,,,,,,,4,0,4,0,0,0,0,0,,,,,,None,space,0.412908792496,,,,,2017_Jan_25_1602,59.5189165334,spr_backupper,001,Sa16,
,Uhr,der,nehme,wurde,verbrauchen,unserer,Stücke,es,meinem,des,Gäste,waren,einer,wurde,Uhr,Gäste,verbrauchen,den,Stücke,sollten,den,dieser,g,übergaben,diesem,türmen,stellt,den,übergaben,Tonnen,machte,mussten,Flug,nehme,Stücke,konnten,verlassen,wurde,hatten,wurden,Linie,Formen,das,mussten,Uhr,haben,Tonnen,waren,Schule,g,dieser,Teilnehmerinnen,ist,Kinder,haben,müden,Betten,hat,äußeren,Lösung,wurde,Fernrohr,Schule,machte,ein,verlassen,Kreditnehmer,wurden,Tuch,türmen,dem,Fernrohr,der,keinen,der,hatte,ein,Schuhe,Blutdruck,stellt,der,Scheel,Eislaufbahnen,"Uhr,",äußersten,meinem,Autos,hat,Schuhe,können,Kinder,haben,die,hatte,unserer,hatten,Autos,dem,,,,,,,,,,,,,,,,,,,,,,,4,0,4,0,0,1,1,1,,,,,,,space,0.392602920532,,,,,2017_Jan_25_1602,59.5189165334,spr_backupper,001,Sa16,
,war,Tat,eine,damals,60,Ankunft,saftigen,"regnete,",Studium,Rummels,suchen,nur,Studie,trotz,schlug,suchen,60,Kakao,wurden,immer,Kakao,Methode,braunen,dem,Zirkus,sich,die,Bürgermeister,das,gebrauchte,mal,uns,zum,eine,saftiges,dann,wegen,die,in,Eimer,101,wurden,Essen,uns,schlug,jede,gebrauchter,nur,verbraucht,brauner,Methode,wussten,genau,fuhren,jede,Teilnehmer,wurden,ein,Rand,wird,trotz,sahen,verbraucht,mal,Tropfen,wegen,sind,Eimer,wurde,sich,Essen,sahen,Feier,Umständen,Tat,keine,Tropfen,in,kann,die,Feier,war,wurden,die,Rand,Studium,beider,uns,in,Kleidung,fuhren,die,Sonne,keine,Ankunft,in,beider,Bürgermeister,,,,,,,,,,,,,,,,,,,,,,,4,0,4,0,0,2,2,2,,,,,,,space,0.386521100998,,,,,2017_Jan_25_1602,59.5189165334,spr_backupper,001,Sa16,
,aus,wissen,große,schnell,Liter,stand,Fleischs,hat,las,wurde,die,kleinere,wurde,des,"sporadisch,",die,Liter,gehören,aus,auf,gehören,kann,Zuckers,Mann,werden,Berge,Masse,beschuldigten,Auto,Kleidung,wieder,durch,Mond,große,Fleisch,mit,des,Leinwand,Dänemark,rote,hält,unter,kann,durch,"sporadisch,",Menge,Kleidung,kleinere,260.000,Zucker,kann,überwiegend,die,mit,Menge,wurden,mit,Hemd,der,mit,dem,wir,260.000,wieder,königliches,dem,mit,roter,dann,Berge,kann,wir,gedachte,können,wissen,Lust,königlichen,Größe,schon,Masse,gedachte,der,mit,er,der,habe,beteiligten,die,Größe,bei,mit,Erlebnisse,"unterging,",Lust,stand,Dänemark,beteiligter,beschuldigten,,,,,,,,,,,,,,,,,,,,,,,4,0,4,0,0,3,3,3,,,,,,,space,0.343866825104,,,,,2017_Jan_25_1602,59.5189165334,spr_backupper,001,Sa16,
,"Japan,",wir,Packung,dank,sprudelndes,ein,wurden,uns,ich,schon,Wohnung,"Delikte,",jetzt,bekannten,obwohl,Wohnung,sprudelnden,immer,"wertvollem,",warmem,immer,man,sind,das,die,schmutzige,mit,die,dem,landen,viel,Büschel,dauerte,Packung,wurden,"minimalem,",schönen,aus,gelegentlich,Farbe,nicht,"regelmäßigem,",ich,Büschel,obschon,alten,landen,"Delikte,",Kilowattstunden,sind,man,"nicht,",richtige,solchen,alten,mit,"üblichem,",aus,Stadt,"reichlichem,",bekannten,den,Kilowattstunden,viel,Blut,schönen,"sämtlichem,",Farbe,mit,schmutziger,ich,den,man,Neuwahlen,wir,auf,Bluts,36,bei,mit,man,vierte,dauerhaftem,"trug,",Stadt,ich,Fahrer,Stimmung,36,ausreichendem,solch,bei,war,auf,ein,einen,Fahrer,die,,,,,,,,,,,,,,,,,,,,,,,4,0,4,0,0,4,4,4,,,,,,,space,0.392570018768,,,,,2017_Jan_25_1602,59.5189165334,spr_backupper,001,Sa16,
,die,um,salzige,täglichem,Trinkwasser.,Glas,serviert.,die,mehr,immer,des,deren,"nachgewiesen,",Skandals,sie,des,Trinkwassers.,350,klassischen,weichem,350,eine,auf,Auto,Tiere,Wäsche.,einem,Störenfriede,Mann,im,Lärm,frisches,ungefähr,salziger,serviert.,sauberen,Wetters,seltenem,einen,geschleudert.,am,kaltem,leider,frischen,sie,Krams,im,derer,elektrische,auf,eine,was,"Zeit,",unzureichenden,Kram,zusätzlichem,harten,feinem,liegen,purem,Skandal,roten,elektrischer,Lärm,hat,Wetter,künftigem,geschleudert.,"reichem,",Wäsche.,leider,roten,der,vor,von,noch,hat,hätten,minimalem,einem,den,Bundespräsident.,feinem,war,liegen,mehr,wurden,ziemlich,würden,monatlichem,unzureichenden,"frischem,",die,noch,Glas,gelegentlichen,wurden,Störenfriede,,,,,,,,,,,,,,,,,,,,,,,4,0,4,0,0,5,5,5,,,,,,,space,0.293477058411,,,,,2017_Jan_25_1602,59.5189165334,spr_backupper,001,Sa16,
,er,die,Wurst,grünen,nan,köstlicher,nan,Stimmung,als,ruhig,Herrn,sie,dass,wiedergewählt.,defekt,Herrn,nan,ml,Schmuck,Untergrund,ml,große,jeden,mehr,artgerecht,nan,Esslöffel,jeden.,mehr,Müll.,um,Gras,drei,Wurst,nan,Kraftstoff,die,dichten,Besucher.,nan,Hauptbahnhof.,Abduschen,nichts,Grases,defekt,aus,Müll.,sie,Energie.,jeden,große,Tupperware,um,Helmen,aus,schwarzem,Schaumstoff,dichten,die,Alkohol,wiedergewählt.,Planet,Energie.,um,den,die,Einkommen,nan,goldenen,nan,nichts,Planeten,Soldaten,Dezember,den,eine,den,seiner,täglichen,Esslöffel,Soldaten,nan,Kunsteis,aus,die,als,verschrottet.,"vermiest,",seiner,Taschengeld,Helmen,kaltem,Flut,eine,köstlichen,Besucher.,verschrottet.,jeden.,,,,,,,,,,,,,,,,,,,,,,,4,0,4,0,0,6,6,6,,,,,,,space,0.323708057404,,,,,2017_Jan_25_1602,59.5189165334,spr_backupper,001,Sa16,
,trug.,Probleme,mit,Tee,nan,Wein,nan,ziemlich,einmal,diskutiert.,Gantenbein.,überführt,das,nan,war.,Gantenbeins.,nan,warme,umgearbeitet.,liegen.,warmer,Menge,Fall,als,gehalten.,nan,warmen,nan,als,nan,jede,zwängen.,Tage.,mit,nan,fahren.,Wohnung.,Gewebe,nan,nan,nan,gehärtet.,mitbringen.,zwängen.,war.,dem,nan,überführt,nan,Fall,Menge,ist.,Nadelhölzer,zur,dem,Kaffee,gefertigt.,Stoff,Slums.,verdünnt.,nan,ganz,nan,jede,Boden,Wohnung.,haftbar.,nan,Besatz,nan,mitbringen.,ganz,des,stattfinden.,Problemen,Sammlung,Boden,Frau,Einsatz,warmem,des,nan,eingesprüht.,Japan.,Slums.,einmal,nan,dass,Frau,selber,zur,Saft,zurückgekehrt.,Sammlung,Weins,nan,nan,nan,,,,,,,,,,,,,,,,,,,,,,,4,0,4,0,0,7,7,7,,,,,,,space,0.986989974976,,,,,2017_Jan_25_1602,59.5189165334,spr_backupper,001,Sa16,
,,,,,,,,,,,,,,,,,,,,,,,,,,,,,,,,,,,,,,,,,,,,,,,,,,,,,,,,,,,,,,,,,,,,,,,,,,,,,,,,,,,,,,,,,,,,,,,,,,,,,,,,,,,,,,,,,,,,,,,,,4,0,4,0,,,,,,,,,,,,,None,j,1.76619505882,,2017_Jan_25_1602,59.5189165334,spr_backupper,001,Sa16,
,Die,In,Ich,Ich,Sie,Bei,Beträchtliche,Dass,In,Fernab,Die,Es,In,Er,Die,Die,Sie,In,Die,Jungtiere,In,Mit,100,Wir,In,Dort,Er,Außer,Wir,Viele,Man,Wir,Der,Ich,Beträchtliche,Wir,Sie,Danach,Wir,Es,Die,Die,Außer,Wir,Die,Wir,Viele,Es,Die,100,Mit,Die,Jetzt,Die,Wir,Die,Alle,Er,Am,Die,Er,Im,Die,Man,Nicht,Sie,Manche,Es,Das,Dort,Außer,Im,Bei,Unter,In,Sie,Nicht,Die,Ihr,Er,Bei,Walter,Die,Die,Am,In,Die,Es,Die,Jugendliche,Die,Sie,Als,Sie,Bei,Wir,Die,Außer,,,,,,,,,,,,,,,,,,,,,,,5,0,5,0,0,0,0,0,,,,,,None,space,0.704657077789,,,,,2017_Jan_25_1602,59.5189165334,spr_backupper,001,Sa16,
,Uhr,der,nehme,wurde,verbrauchen,unserer,Stücke,es,meinem,des,Gäste,waren,einer,wurde,Uhr,Gäste,verbrauchen,den,Stücke,sollten,den,dieser,g,übergaben,diesem,türmen,stellt,den,übergaben,Tonnen,machte,mussten,Flug,nehme,Stücke,konnten,verlassen,wurde,hatten,wurden,Linie,Formen,das,mussten,Uhr,haben,Tonnen,waren,Schule,g,dieser,Teilnehmerinnen,ist,Kinder,haben,müden,Betten,hat,äußeren,Lösung,wurde,Fernrohr,Schule,machte,ein,verlassen,Kreditnehmer,wurden,Tuch,türmen,dem,Fernrohr,der,keinen,der,hatte,ein,Schuhe,Blutdruck,stellt,der,Scheel,Eislaufbahnen,"Uhr,",äußersten,meinem,Autos,hat,Schuhe,können,Kinder,haben,die,hatte,unserer,hatten,Autos,dem,,,,,,,,,,,,,,,,,,,,,,,5,0,5,0,0,1,1,1,,,,,,,space,0.325510978699,,,,,2017_Jan_25_1602,59.5189165334,spr_backupper,001,Sa16,
,war,Tat,eine,damals,60,Ankunft,saftigen,"regnete,",Studium,Rummels,suchen,nur,Studie,trotz,schlug,suchen,60,Kakao,wurden,immer,Kakao,Methode,braunen,dem,Zirkus,sich,die,Bürgermeister,das,gebrauchte,mal,uns,zum,eine,saftiges,dann,wegen,die,in,Eimer,101,wurden,Essen,uns,schlug,jede,gebrauchter,nur,verbraucht,brauner,Methode,wussten,genau,fuhren,jede,Teilnehmer,wurden,ein,Rand,wird,trotz,sahen,verbraucht,mal,Tropfen,wegen,sind,Eimer,wurde,sich,Essen,sahen,Feier,Umständen,Tat,keine,Tropfen,in,kann,die,Feier,war,wurden,die,Rand,Studium,beider,uns,in,Kleidung,fuhren,die,Sonne,keine,Ankunft,in,beider,Bürgermeister,,,,,,,,,,,,,,,,,,,,,,,5,0,5,0,0,2,2,2,,,,,,,space,0.323650121689,,,,,2017_Jan_25_1602,59.5189165334,spr_backupper,001,Sa16,
,aus,wissen,große,schnell,Liter,stand,Fleischs,hat,las,wurde,die,kleinere,wurde,des,"sporadisch,",die,Liter,gehören,aus,auf,gehören,kann,Zuckers,Mann,werden,Berge,Masse,beschuldigten,Auto,Kleidung,wieder,durch,Mond,große,Fleisch,mit,des,Leinwand,Dänemark,rote,hält,unter,kann,durch,"sporadisch,",Menge,Kleidung,kleinere,260.000,Zucker,kann,überwiegend,die,mit,Menge,wurden,mit,Hemd,der,mit,dem,wir,260.000,wieder,königliches,dem,mit,roter,dann,Berge,kann,wir,gedachte,können,wissen,Lust,königlichen,Größe,schon,Masse,gedachte,der,mit,er,der,habe,beteiligten,die,Größe,bei,mit,Erlebnisse,"unterging,",Lust,stand,Dänemark,beteiligter,beschuldigten,,,,,,,,,,,,,,,,,,,,,,,5,0,5,0,0,3,3,3,,,,,,,space,0.327648162842,,,,,2017_Jan_25_1602,59.5189165334,spr_backupper,001,Sa16,
,"Japan,",wir,Packung,dank,sprudelndes,ein,wurden,uns,ich,schon,Wohnung,"Delikte,",jetzt,bekannten,obwohl,Wohnung,sprudelnden,immer,"wertvollem,",warmem,immer,man,sind,das,die,schmutzige,mit,die,dem,landen,viel,Büschel,dauerte,Packung,wurden,"minimalem,",schönen,aus,gelegentlich,Farbe,nicht,"regelmäßigem,",ich,Büschel,obschon,alten,landen,"Delikte,",Kilowattstunden,sind,man,"nicht,",richtige,solchen,alten,mit,"üblichem,",aus,Stadt,"reichlichem,",bekannten,den,Kilowattstunden,viel,Blut,schönen,"sämtlichem,",Farbe,mit,schmutziger,ich,den,man,Neuwahlen,wir,auf,Bluts,36,bei,mit,man,vierte,dauerhaftem,"trug,",Stadt,ich,Fahrer,Stimmung,36,ausreichendem,solch,bei,war,auf,ein,einen,Fahrer,die,,,,,,,,,,,,,,,,,,,,,,,5,0,5,0,0,4,4,4,,,,,,,space,0.335047960281,,,,,2017_Jan_25_1602,59.5189165334,spr_backupper,001,Sa16,
,die,um,salzige,täglichem,Trinkwasser.,Glas,serviert.,die,mehr,immer,des,deren,"nachgewiesen,",Skandals,sie,des,Trinkwassers.,350,klassischen,weichem,350,eine,auf,Auto,Tiere,Wäsche.,einem,Störenfriede,Mann,im,Lärm,frisches,ungefähr,salziger,serviert.,sauberen,Wetters,seltenem,einen,geschleudert.,am,kaltem,leider,frischen,sie,Krams,im,derer,elektrische,auf,eine,was,"Zeit,",unzureichenden,Kram,zusätzlichem,harten,feinem,liegen,purem,Skandal,roten,elektrischer,Lärm,hat,Wetter,künftigem,geschleudert.,"reichem,",Wäsche.,leider,roten,der,vor,von,noch,hat,hätten,minimalem,einem,den,Bundespräsident.,feinem,war,liegen,mehr,wurden,ziemlich,würden,monatlichem,unzureichenden,"frischem,",die,noch,Glas,gelegentlichen,wurden,Störenfriede,,,,,,,,,,,,,,,,,,,,,,,5,0,5,0,0,5,5,5,,,,,,,space,0.269342899323,,,,,2017_Jan_25_1602,59.5189165334,spr_backupper,001,Sa16,
,er,die,Wurst,grünen,nan,köstlicher,nan,Stimmung,als,ruhig,Herrn,sie,dass,wiedergewählt.,defekt,Herrn,nan,ml,Schmuck,Untergrund,ml,große,jeden,mehr,artgerecht,nan,Esslöffel,jeden.,mehr,Müll.,um,Gras,drei,Wurst,nan,Kraftstoff,die,dichten,Besucher.,nan,Hauptbahnhof.,Abduschen,nichts,Grases,defekt,aus,Müll.,sie,Energie.,jeden,große,Tupperware,um,Helmen,aus,schwarzem,Schaumstoff,dichten,die,Alkohol,wiedergewählt.,Planet,Energie.,um,den,die,Einkommen,nan,goldenen,nan,nichts,Planeten,Soldaten,Dezember,den,eine,den,seiner,täglichen,Esslöffel,Soldaten,nan,Kunsteis,aus,die,als,verschrottet.,"vermiest,",seiner,Taschengeld,Helmen,kaltem,Flut,eine,köstlichen,Besucher.,verschrottet.,jeden.,,,,,,,,,,,,,,,,,,,,,,,5,0,5,0,0,6,6,6,,,,,,,space,0.374211072922,,,,,2017_Jan_25_1602,59.5189165334,spr_backupper,001,Sa16,
,trug.,Probleme,mit,Tee,nan,Wein,nan,ziemlich,einmal,diskutiert.,Gantenbein.,überführt,das,nan,war.,Gantenbeins.,nan,warme,umgearbeitet.,liegen.,warmer,Menge,Fall,als,gehalten.,nan,warmen,nan,als,nan,jede,zwängen.,Tage.,mit,nan,fahren.,Wohnung.,Gewebe,nan,nan,nan,gehärtet.,mitbringen.,zwängen.,war.,dem,nan,überführt,nan,Fall,Menge,ist.,Nadelhölzer,zur,dem,Kaffee,gefertigt.,Stoff,Slums.,verdünnt.,nan,ganz,nan,jede,Boden,Wohnung.,haftbar.,nan,Besatz,nan,mitbringen.,ganz,des,stattfinden.,Problemen,Sammlung,Boden,Frau,Einsatz,warmem,des,nan,eingesprüht.,Japan.,Slums.,einmal,nan,dass,Frau,selber,zur,Saft,zurückgekehrt.,Sammlung,Weins,nan,nan,nan,,,,,,,,,,,,,,,,,,,,,,,5,0,5,0,0,7,7,7,,,,,,,space,0.352871179581,,,,,2017_Jan_25_1602,59.5189165334,spr_backupper,001,Sa16,
,,,,,,,,,,,,,,,,,,,,,,,,,,,,,,,,,,,,,,,,,,,,,,,,,,,,,,,,,,,,,,,,,,,,,,,,,,,,,,,,,,,,,,,,,,,,,,,,,,,,,,,,,,,,,,,,,,,,,,,,,5,0,5,0,,,,,,,,,,,,,None,j,2.5247130394,,2017_Jan_25_1602,59.5189165334,spr_backupper,001,Sa16,
,Die,In,Ich,Ich,Sie,Bei,Beträchtliche,Dass,In,Fernab,Die,Es,In,Er,Die,Die,Sie,In,Die,Jungtiere,In,Mit,100,Wir,In,Dort,Er,Außer,Wir,Viele,Man,Wir,Der,Ich,Beträchtliche,Wir,Sie,Danach,Wir,Es,Die,Die,Außer,Wir,Die,Wir,Viele,Es,Die,100,Mit,Die,Jetzt,Die,Wir,Die,Alle,Er,Am,Die,Er,Im,Die,Man,Nicht,Sie,Manche,Es,Das,Dort,Außer,Im,Bei,Unter,In,Sie,Nicht,Die,Ihr,Er,Bei,Walter,Die,Die,Am,In,Die,Es,Die,Jugendliche,Die,Sie,Als,Sie,Bei,Wir,Die,Außer,,,,,,,,,,,,,,,,,,,,,,,6,0,6,0,0,0,0,0,,,,,,None,space,0.688980102539,,,,,2017_Jan_25_1602,59.5189165334,spr_backupper,001,Sa16,
,Uhr,der,nehme,wurde,verbrauchen,unserer,Stücke,es,meinem,des,Gäste,waren,einer,wurde,Uhr,Gäste,verbrauchen,den,Stücke,sollten,den,dieser,g,übergaben,diesem,türmen,stellt,den,übergaben,Tonnen,machte,mussten,Flug,nehme,Stücke,konnten,verlassen,wurde,hatten,wurden,Linie,Formen,das,mussten,Uhr,haben,Tonnen,waren,Schule,g,dieser,Teilnehmerinnen,ist,Kinder,haben,müden,Betten,hat,äußeren,Lösung,wurde,Fernrohr,Schule,machte,ein,verlassen,Kreditnehmer,wurden,Tuch,türmen,dem,Fernrohr,der,keinen,der,hatte,ein,Schuhe,Blutdruck,stellt,der,Scheel,Eislaufbahnen,"Uhr,",äußersten,meinem,Autos,hat,Schuhe,können,Kinder,haben,die,hatte,unserer,hatten,Autos,dem,,,,,,,,,,,,,,,,,,,,,,,6,0,6,0,0,1,1,1,,,,,,,space,0.352152109146,,,,,2017_Jan_25_1602,59.5189165334,spr_backupper,001,Sa16,
,war,Tat,eine,damals,60,Ankunft,saftigen,"regnete,",Studium,Rummels,suchen,nur,Studie,trotz,schlug,suchen,60,Kakao,wurden,immer,Kakao,Methode,braunen,dem,Zirkus,sich,die,Bürgermeister,das,gebrauchte,mal,uns,zum,eine,saftiges,dann,wegen,die,in,Eimer,101,wurden,Essen,uns,schlug,jede,gebrauchter,nur,verbraucht,brauner,Methode,wussten,genau,fuhren,jede,Teilnehmer,wurden,ein,Rand,wird,trotz,sahen,verbraucht,mal,Tropfen,wegen,sind,Eimer,wurde,sich,Essen,sahen,Feier,Umständen,Tat,keine,Tropfen,in,kann,die,Feier,war,wurden,die,Rand,Studium,beider,uns,in,Kleidung,fuhren,die,Sonne,keine,Ankunft,in,beider,Bürgermeister,,,,,,,,,,,,,,,,,,,,,,,6,0,6,0,0,2,2,2,,,,,,,space,0.375691175461,,,,,2017_Jan_25_1602,59.5189165334,spr_backupper,001,Sa16,
,aus,wissen,große,schnell,Liter,stand,Fleischs,hat,las,wurde,die,kleinere,wurde,des,"sporadisch,",die,Liter,gehören,aus,auf,gehören,kann,Zuckers,Mann,werden,Berge,Masse,beschuldigten,Auto,Kleidung,wieder,durch,Mond,große,Fleisch,mit,des,Leinwand,Dänemark,rote,hält,unter,kann,durch,"sporadisch,",Menge,Kleidung,kleinere,260.000,Zucker,kann,überwiegend,die,mit,Menge,wurden,mit,Hemd,der,mit,dem,wir,260.000,wieder,königliches,dem,mit,roter,dann,Berge,kann,wir,gedachte,können,wissen,Lust,königlichen,Größe,schon,Masse,gedachte,der,mit,er,der,habe,beteiligten,die,Größe,bei,mit,Erlebnisse,"unterging,",Lust,stand,Dänemark,beteiligter,beschuldigten,,,,,,,,,,,,,,,,,,,,,,,6,0,6,0,0,3,3,3,,,,,,,space,0.313592195511,,,,,2017_Jan_25_1602,59.5189165334,spr_backupper,001,Sa16,
,"Japan,",wir,Packung,dank,sprudelndes,ein,wurden,uns,ich,schon,Wohnung,"Delikte,",jetzt,bekannten,obwohl,Wohnung,sprudelnden,immer,"wertvollem,",warmem,immer,man,sind,das,die,schmutzige,mit,die,dem,landen,viel,Büschel,dauerte,Packung,wurden,"minimalem,",schönen,aus,gelegentlich,Farbe,nicht,"regelmäßigem,",ich,Büschel,obschon,alten,landen,"Delikte,",Kilowattstunden,sind,man,"nicht,",richtige,solchen,alten,mit,"üblichem,",aus,Stadt,"reichlichem,",bekannten,den,Kilowattstunden,viel,Blut,schönen,"sämtlichem,",Farbe,mit,schmutziger,ich,den,man,Neuwahlen,wir,auf,Bluts,36,bei,mit,man,vierte,dauerhaftem,"trug,",Stadt,ich,Fahrer,Stimmung,36,ausreichendem,solch,bei,war,auf,ein,einen,Fahrer,die,,,,,,,,,,,,,,,,,,,,,,,6,0,6,0,0,4,4,4,,,,,,,space,0.393566846848,,,,,2017_Jan_25_1602,59.5189165334,spr_backupper,001,Sa16,
,die,um,salzige,täglichem,Trinkwasser.,Glas,serviert.,die,mehr,immer,des,deren,"nachgewiesen,",Skandals,sie,des,Trinkwassers.,350,klassischen,weichem,350,eine,auf,Auto,Tiere,Wäsche.,einem,Störenfriede,Mann,im,Lärm,frisches,ungefähr,salziger,serviert.,sauberen,Wetters,seltenem,einen,geschleudert.,am,kaltem,leider,frischen,sie,Krams,im,derer,elektrische,auf,eine,was,"Zeit,",unzureichenden,Kram,zusätzlichem,harten,feinem,liegen,purem,Skandal,roten,elektrischer,Lärm,hat,Wetter,künftigem,geschleudert.,"reichem,",Wäsche.,leider,roten,der,vor,von,noch,hat,hätten,minimalem,einem,den,Bundespräsident.,feinem,war,liegen,mehr,wurden,ziemlich,würden,monatlichem,unzureichenden,"frischem,",die,noch,Glas,gelegentlichen,wurden,Störenfriede,,,,,,,,,,,,,,,,,,,,,,,6,0,6,0,0,5,5,5,,,,,,,space,0.259279966354,,,,,2017_Jan_25_1602,59.5189165334,spr_backupper,001,Sa16,
,er,die,Wurst,grünen,nan,köstlicher,nan,Stimmung,als,ruhig,Herrn,sie,dass,wiedergewählt.,defekt,Herrn,nan,ml,Schmuck,Untergrund,ml,große,jeden,mehr,artgerecht,nan,Esslöffel,jeden.,mehr,Müll.,um,Gras,drei,Wurst,nan,Kraftstoff,die,dichten,Besucher.,nan,Hauptbahnhof.,Abduschen,nichts,Grases,defekt,aus,Müll.,sie,Energie.,jeden,große,Tupperware,um,Helmen,aus,schwarzem,Schaumstoff,dichten,die,Alkohol,wiedergewählt.,Planet,Energie.,um,den,die,Einkommen,nan,goldenen,nan,nichts,Planeten,Soldaten,Dezember,den,eine,den,seiner,täglichen,Esslöffel,Soldaten,nan,Kunsteis,aus,die,als,verschrottet.,"vermiest,",seiner,Taschengeld,Helmen,kaltem,Flut,eine,köstlichen,Besucher.,verschrottet.,jeden.,,,,,,,,,,,,,,,,,,,,,,,6,0,6,0,0,6,6,6,,,,,,,space,0.293106079102,,,,,2017_Jan_25_1602,59.5189165334,spr_backupper,001,Sa16,
,trug.,Probleme,mit,Tee,nan,Wein,nan,ziemlich,einmal,diskutiert.,Gantenbein.,überführt,das,nan,war.,Gantenbeins.,nan,warme,umgearbeitet.,liegen.,warmer,Menge,Fall,als,gehalten.,nan,warmen,nan,als,nan,jede,zwängen.,Tage.,mit,nan,fahren.,Wohnung.,Gewebe,nan,nan,nan,gehärtet.,mitbringen.,zwängen.,war.,dem,nan,überführt,nan,Fall,Menge,ist.,Nadelhölzer,zur,dem,Kaffee,gefertigt.,Stoff,Slums.,verdünnt.,nan,ganz,nan,jede,Boden,Wohnung.,haftbar.,nan,Besatz,nan,mitbringen.,ganz,des,stattfinden.,Problemen,Sammlung,Boden,Frau,Einsatz,warmem,des,nan,eingesprüht.,Japan.,Slums.,einmal,nan,dass,Frau,selber,zur,Saft,zurückgekehrt.,Sammlung,Weins,nan,nan,nan,,,,,,,,,,,,,,,,,,,,,,,6,0,6,0,0,7,7,7,,,,,,,space,0.319574117661,,,,,2017_Jan_25_1602,59.5189165334,spr_backupper,001,Sa16,
,nan,im,an,wieder,nan,schon,nan,vermiest.,Rilke.,nan,nan,wurden.,Medikament,nan,nan,nan,nan,Milch.,nan,nan,Milch.,dunkler,genug.,gerne.,nan,nan,Honigs,nan,gerne.,nan,Menge,nan,nan,an,nan,nan,nan,wiederhergestellt.,nan,nan,nan,nan,nan,nan,nan,Haus,nan,wurden.,nan,genug.,dunkle,nan,umzusetzen.,Schule.,Haus,wiederbelebt.,nan,gefertigt.,nan,nan,nan,deutlich.,nan,Menge,berührt.,nan,nan,nan,rekonstruiert.,nan,nan,deutlich.,zweiten,nan,im,dumme,berührt.,gepasst.,sinken.,Honig,zweiten,nan,nan,nan,nan,Rilke,nan,es,gepasst,kaufen.,Schule.,besprochen.,nan,dummer,schon,nan,nan,nan,,,,,,,,,,,,,,,,,,,,,,,6,0,6,0,0,8,8,8,,,,,,,space,0.345535039902,,,,,2017_Jan_25_1602,59.5189165334,spr_backupper,001,Sa16,
,,,,,,,,,,,,,,,,,,,,,,,,,,,,,,,,,,,,,,,,,,,,,,,,,,,,,,,,,,,,,,,,,,,,,,,,,,,,,,,,,,,,,,,,,,,,,,,,,,,,,,,,,,,,,,,,,,,,,,,,,6,0,6,0,,,,,,,,,,,,,None,n,3.69311499596,,2017_Jan_25_1602,59.5189165334,spr_backupper,001,Sa16,
,Die,In,Ich,Ich,Sie,Bei,Beträchtliche,Dass,In,Fernab,Die,Es,In,Er,Die,Die,Sie,In,Die,Jungtiere,In,Mit,100,Wir,In,Dort,Er,Außer,Wir,Viele,Man,Wir,Der,Ich,Beträchtliche,Wir,Sie,Danach,Wir,Es,Die,Die,Außer,Wir,Die,Wir,Viele,Es,Die,100,Mit,Die,Jetzt,Die,Wir,Die,Alle,Er,Am,Die,Er,Im,Die,Man,Nicht,Sie,Manche,Es,Das,Dort,Außer,Im,Bei,Unter,In,Sie,Nicht,Die,Ihr,Er,Bei,Walter,Die,Die,Am,In,Die,Es,Die,Jugendliche,Die,Sie,Als,Sie,Bei,Wir,Die,Außer,,,,,,,,,,,,,,,,,,,,,,,7,0,7,0,0,0,0,0,,,,,,space,space,0.736805915833,,,,1.15710282326,2017_Jan_25_1602,59.5189165334,spr_backupper,001,Sa16,
,Uhr,der,nehme,wurde,verbrauchen,unserer,Stücke,es,meinem,des,Gäste,waren,einer,wurde,Uhr,Gäste,verbrauchen,den,Stücke,sollten,den,dieser,g,übergaben,diesem,türmen,stellt,den,übergaben,Tonnen,machte,mussten,Flug,nehme,Stücke,konnten,verlassen,wurde,hatten,wurden,Linie,Formen,das,mussten,Uhr,haben,Tonnen,waren,Schule,g,dieser,Teilnehmerinnen,ist,Kinder,haben,müden,Betten,hat,äußeren,Lösung,wurde,Fernrohr,Schule,machte,ein,verlassen,Kreditnehmer,wurden,Tuch,türmen,dem,Fernrohr,der,keinen,der,hatte,ein,Schuhe,Blutdruck,stellt,der,Scheel,Eislaufbahnen,"Uhr,",äußersten,meinem,Autos,hat,Schuhe,können,Kinder,haben,die,hatte,unserer,hatten,Autos,dem,,,,,,,,,,,,,,,,,,,,,,,7,0,7,0,0,1,1,1,,,,,,,space,0.485808134079,,,,,2017_Jan_25_1602,59.5189165334,spr_backupper,001,Sa16,
,war,Tat,eine,damals,60,Ankunft,saftigen,"regnete,",Studium,Rummels,suchen,nur,Studie,trotz,schlug,suchen,60,Kakao,wurden,immer,Kakao,Methode,braunen,dem,Zirkus,sich,die,Bürgermeister,das,gebrauchte,mal,uns,zum,eine,saftiges,dann,wegen,die,in,Eimer,101,wurden,Essen,uns,schlug,jede,gebrauchter,nur,verbraucht,brauner,Methode,wussten,genau,fuhren,jede,Teilnehmer,wurden,ein,Rand,wird,trotz,sahen,verbraucht,mal,Tropfen,wegen,sind,Eimer,wurde,sich,Essen,sahen,Feier,Umständen,Tat,keine,Tropfen,in,kann,die,Feier,war,wurden,die,Rand,Studium,beider,uns,in,Kleidung,fuhren,die,Sonne,keine,Ankunft,in,beider,Bürgermeister,,,,,,,,,,,,,,,,,,,,,,,7,0,7,0,0,2,2,2,,,,,,,space,0.362532138824,,,,,2017_Jan_25_1602,59.5189165334,spr_backupper,001,Sa16,
,aus,wissen,große,schnell,Liter,stand,Fleischs,hat,las,wurde,die,kleinere,wurde,des,"sporadisch,",die,Liter,gehören,aus,auf,gehören,kann,Zuckers,Mann,werden,Berge,Masse,beschuldigten,Auto,Kleidung,wieder,durch,Mond,große,Fleisch,mit,des,Leinwand,Dänemark,rote,hält,unter,kann,durch,"sporadisch,",Menge,Kleidung,kleinere,260.000,Zucker,kann,überwiegend,die,mit,Menge,wurden,mit,Hemd,der,mit,dem,wir,260.000,wieder,königliches,dem,mit,roter,dann,Berge,kann,wir,gedachte,können,wissen,Lust,königlichen,Größe,schon,Masse,gedachte,der,mit,er,der,habe,beteiligten,die,Größe,bei,mit,Erlebnisse,"unterging,",Lust,stand,Dänemark,beteiligter,beschuldigten,,,,,,,,,,,,,,,,,,,,,,,7,0,7,0,0,3,3,3,,,,,,,space,0.362457036972,,,,,2017_Jan_25_1602,59.5189165334,spr_backupper,001,Sa16,
,"Japan,",wir,Packung,dank,sprudelndes,ein,wurden,uns,ich,schon,Wohnung,"Delikte,",jetzt,bekannten,obwohl,Wohnung,sprudelnden,immer,"wertvollem,",warmem,immer,man,sind,das,die,schmutzige,mit,die,dem,landen,viel,Büschel,dauerte,Packung,wurden,"minimalem,",schönen,aus,gelegentlich,Farbe,nicht,"regelmäßigem,",ich,Büschel,obschon,alten,landen,"Delikte,",Kilowattstunden,sind,man,"nicht,",richtige,solchen,alten,mit,"üblichem,",aus,Stadt,"reichlichem,",bekannten,den,Kilowattstunden,viel,Blut,schönen,"sämtlichem,",Farbe,mit,schmutziger,ich,den,man,Neuwahlen,wir,auf,Bluts,36,bei,mit,man,vierte,dauerhaftem,"trug,",Stadt,ich,Fahrer,Stimmung,36,ausreichendem,solch,bei,war,auf,ein,einen,Fahrer,die,,,,,,,,,,,,,,,,,,,,,,,7,0,7,0,0,4,4,4,,,,,,,space,0.366075992584,,,,,2017_Jan_25_1602,59.5189165334,spr_backupper,001,Sa16,
,die,um,salzige,täglichem,Trinkwasser.,Glas,serviert.,die,mehr,immer,des,deren,"nachgewiesen,",Skandals,sie,des,Trinkwassers.,350,klassischen,weichem,350,eine,auf,Auto,Tiere,Wäsche.,einem,Störenfriede,Mann,im,Lärm,frisches,ungefähr,salziger,serviert.,sauberen,Wetters,seltenem,einen,geschleudert.,am,kaltem,leider,frischen,sie,Krams,im,derer,elektrische,auf,eine,was,"Zeit,",unzureichenden,Kram,zusätzlichem,harten,feinem,liegen,purem,Skandal,roten,elektrischer,Lärm,hat,Wetter,künftigem,geschleudert.,"reichem,",Wäsche.,leider,roten,der,vor,von,noch,hat,hätten,minimalem,einem,den,Bundespräsident.,feinem,war,liegen,mehr,wurden,ziemlich,würden,monatlichem,unzureichenden,"frischem,",die,noch,Glas,gelegentlichen,wurden,Störenfriede,,,,,,,,,,,,,,,,,,,,,,,7,0,7,0,0,5,5,5,,,,,,,space,0.373784065247,,,,,2017_Jan_25_1602,59.5189165334,spr_backupper,001,Sa16,
,er,die,Wurst,grünen,nan,köstlicher,nan,Stimmung,als,ruhig,Herrn,sie,dass,wiedergewählt.,defekt,Herrn,nan,ml,Schmuck,Untergrund,ml,große,jeden,mehr,artgerecht,nan,Esslöffel,jeden.,mehr,Müll.,um,Gras,drei,Wurst,nan,Kraftstoff,die,dichten,Besucher.,nan,Hauptbahnhof.,Abduschen,nichts,Grases,defekt,aus,Müll.,sie,Energie.,jeden,große,Tupperware,um,Helmen,aus,schwarzem,Schaumstoff,dichten,die,Alkohol,wiedergewählt.,Planet,Energie.,um,den,die,Einkommen,nan,goldenen,nan,nichts,Planeten,Soldaten,Dezember,den,eine,den,seiner,täglichen,Esslöffel,Soldaten,nan,Kunsteis,aus,die,als,verschrottet.,"vermiest,",seiner,Taschengeld,Helmen,kaltem,Flut,eine,köstlichen,Besucher.,verschrottet.,jeden.,,,,,,,,,,,,,,,,,,,,,,,7,0,7,0,0,6,6,6,,,,,,,space,0.469404935837,,,,,2017_Jan_25_1602,59.5189165334,spr_backupper,001,Sa16,
,trug.,Probleme,mit,Tee,nan,Wein,nan,ziemlich,einmal,diskutiert.,Gantenbein.,überführt,das,nan,war.,Gantenbeins.,nan,warme,umgearbeitet.,liegen.,warmer,Menge,Fall,als,gehalten.,nan,warmen,nan,als,nan,jede,zwängen.,Tage.,mit,nan,fahren.,Wohnung.,Gewebe,nan,nan,nan,gehärtet.,mitbringen.,zwängen.,war.,dem,nan,überführt,nan,Fall,Menge,ist.,Nadelhölzer,zur,dem,Kaffee,gefertigt.,Stoff,Slums.,verdünnt.,nan,ganz,nan,jede,Boden,Wohnung.,haftbar.,nan,Besatz,nan,mitbringen.,ganz,des,stattfinden.,Problemen,Sammlung,Boden,Frau,Einsatz,warmem,des,nan,eingesprüht.,Japan.,Slums.,einmal,nan,dass,Frau,selber,zur,Saft,zurückgekehrt.,Sammlung,Weins,nan,nan,nan,,,,,,,,,,,,,,,,,,,,,,,7,0,7,0,0,7,7,7,,,,,,,space,0.395676851273,,,,,2017_Jan_25_1602,59.5189165334,spr_backupper,001,Sa16,
,nan,im,an,wieder,nan,schon,nan,vermiest.,Rilke.,nan,nan,wurden.,Medikament,nan,nan,nan,nan,Milch.,nan,nan,Milch.,dunkler,genug.,gerne.,nan,nan,Honigs,nan,gerne.,nan,Menge,nan,nan,an,nan,nan,nan,wiederhergestellt.,nan,nan,nan,nan,nan,nan,nan,Haus,nan,wurden.,nan,genug.,dunkle,nan,umzusetzen.,Schule.,Haus,wiederbelebt.,nan,gefertigt.,nan,nan,nan,deutlich.,nan,Menge,berührt.,nan,nan,nan,rekonstruiert.,nan,nan,deutlich.,zweiten,nan,im,dumme,berührt.,gepasst.,sinken.,Honig,zweiten,nan,nan,nan,nan,Rilke,nan,es,gepasst,kaufen.,Schule.,besprochen.,nan,dummer,schon,nan,nan,nan,,,,,,,,,,,,,,,,,,,,,,,7,0,7,0,0,8,8,8,,,,,,,space,0.327602148056,,,,,2017_Jan_25_1602,59.5189165334,spr_backupper,001,Sa16,
,nan,Landkreis.,den,fit.,nan,auf,nan,nan,nan,nan,nan,nan,nicht,nan,nan,nan,nan,nan,nan,nan,nan,Materie,nan,nan,nan,nan,her.,nan,nan,nan,heißer,nan,nan,den,nan,nan,nan,nan,nan,nan,nan,nan,nan,nan,nan,geschafft.,nan,nan,nan,nan,Materie,nan,nan,nan,geschafft.,nan,nan,nan,nan,nan,nan,nan,nan,heiße,nan,nan,nan,nan,nan,nan,nan,nan,Weltkriegs.,nan,Landkreis.,Sprüche.,nan,nan,nan,her.,Weltkriegs.,nan,nan,nan,nan,gelesen.,nan,regnete.,haben.,nan,nan,nan,nan,Sprüche.,auf,nan,nan,nan,,,,,,,,,,,,,,,,,,,,,,,7,0,7,0,0,9,9,9,,,,,,,space,0.286860942841,,,,,2017_Jan_25_1602,59.5189165334,spr_backupper,001,Sa16,
,nan,nan,See.,nan,nan,dem,nan,nan,nan,nan,nan,nan,wirkt.,nan,nan,nan,nan,nan,nan,nan,nan,erzeugen.,nan,nan,nan,nan,nan,nan,nan,nan,Luft.,nan,nan,See.,nan,nan,nan,nan,nan,nan,nan,nan,nan,nan,nan,nan,nan,nan,nan,nan,erzeugen.,nan,nan,nan,nan,nan,nan,nan,nan,nan,nan,nan,nan,Luft.,nan,nan,nan,nan,nan,nan,nan,nan,nan,nan,nan,nan,nan,nan,nan,nan,nan,nan,nan,nan,nan,nan,nan,nan,nan,nan,nan,nan,nan,nan,dem,nan,nan,nan,,,,,,,,,,,,,,,,,,,,,,,7,0,7,0,0,10,10,10,,,,,,,space,0.361543893814,,,,,2017_Jan_25_1602,59.5189165334,spr_backupper,001,Sa16,
,,,,,,,,,,,,,,,,,,,,,,,,,,,,,,,,,,,,,,,,,,,,,,,,,,,,,,,,,,,,,,,,,,,,,,,,,,,,,,,,,,,,,,,,,,,,,,,,,,,,,,,,,,,,,,,,,,,,,,,,,7,0,7,0,,,,,,,,,,,,,None,n,2.45461297035,,2017_Jan_25_1602,59.5189165334,spr_backupper,001,Sa16,
,Die,In,Ich,Ich,Sie,Bei,Beträchtliche,Dass,In,Fernab,Die,Es,In,Er,Die,Die,Sie,In,Die,Jungtiere,In,Mit,100,Wir,In,Dort,Er,Außer,Wir,Viele,Man,Wir,Der,Ich,Beträchtliche,Wir,Sie,Danach,Wir,Es,Die,Die,Außer,Wir,Die,Wir,Viele,Es,Die,100,Mit,Die,Jetzt,Die,Wir,Die,Alle,Er,Am,Die,Er,Im,Die,Man,Nicht,Sie,Manche,Es,Das,Dort,Außer,Im,Bei,Unter,In,Sie,Nicht,Die,Ihr,Er,Bei,Walter,Die,Die,Am,In,Die,Es,Die,Jugendliche,Die,Sie,Als,Sie,Bei,Wir,Die,Außer,,,,,,,,,,,,,,,,,,,,,,,8,0,8,0,0,0,0,0,,,,,,None,space,0.504590034485,,,,,2017_Jan_25_1602,59.5189165334,spr_backupper,001,Sa16,
,Uhr,der,nehme,wurde,verbrauchen,unserer,Stücke,es,meinem,des,Gäste,waren,einer,wurde,Uhr,Gäste,verbrauchen,den,Stücke,sollten,den,dieser,g,übergaben,diesem,türmen,stellt,den,übergaben,Tonnen,machte,mussten,Flug,nehme,Stücke,konnten,verlassen,wurde,hatten,wurden,Linie,Formen,das,mussten,Uhr,haben,Tonnen,waren,Schule,g,dieser,Teilnehmerinnen,ist,Kinder,haben,müden,Betten,hat,äußeren,Lösung,wurde,Fernrohr,Schule,machte,ein,verlassen,Kreditnehmer,wurden,Tuch,türmen,dem,Fernrohr,der,keinen,der,hatte,ein,Schuhe,Blutdruck,stellt,der,Scheel,Eislaufbahnen,"Uhr,",äußersten,meinem,Autos,hat,Schuhe,können,Kinder,haben,die,hatte,unserer,hatten,Autos,dem,,,,,,,,,,,,,,,,,,,,,,,8,0,8,0,0,1,1,1,,,,,,,space,0.283530950546,,,,,2017_Jan_25_1602,59.5189165334,spr_backupper,001,Sa16,
,war,Tat,eine,damals,60,Ankunft,saftigen,"regnete,",Studium,Rummels,suchen,nur,Studie,trotz,schlug,suchen,60,Kakao,wurden,immer,Kakao,Methode,braunen,dem,Zirkus,sich,die,Bürgermeister,das,gebrauchte,mal,uns,zum,eine,saftiges,dann,wegen,die,in,Eimer,101,wurden,Essen,uns,schlug,jede,gebrauchter,nur,verbraucht,brauner,Methode,wussten,genau,fuhren,jede,Teilnehmer,wurden,ein,Rand,wird,trotz,sahen,verbraucht,mal,Tropfen,wegen,sind,Eimer,wurde,sich,Essen,sahen,Feier,Umständen,Tat,keine,Tropfen,in,kann,die,Feier,war,wurden,die,Rand,Studium,beider,uns,in,Kleidung,fuhren,die,Sonne,keine,Ankunft,in,beider,Bürgermeister,,,,,,,,,,,,,,,,,,,,,,,8,0,8,0,0,2,2,2,,,,,,,space,0.275935173035,,,,,2017_Jan_25_1602,59.5189165334,spr_backupper,001,Sa16,
,aus,wissen,große,schnell,Liter,stand,Fleischs,hat,las,wurde,die,kleinere,wurde,des,"sporadisch,",die,Liter,gehören,aus,auf,gehören,kann,Zuckers,Mann,werden,Berge,Masse,beschuldigten,Auto,Kleidung,wieder,durch,Mond,große,Fleisch,mit,des,Leinwand,Dänemark,rote,hält,unter,kann,durch,"sporadisch,",Menge,Kleidung,kleinere,260.000,Zucker,kann,überwiegend,die,mit,Menge,wurden,mit,Hemd,der,mit,dem,wir,260.000,wieder,königliches,dem,mit,roter,dann,Berge,kann,wir,gedachte,können,wissen,Lust,königlichen,Größe,schon,Masse,gedachte,der,mit,er,der,habe,beteiligten,die,Größe,bei,mit,Erlebnisse,"unterging,",Lust,stand,Dänemark,beteiligter,beschuldigten,,,,,,,,,,,,,,,,,,,,,,,8,0,8,0,0,3,3,3,,,,,,,space,0.318872928619,,,,,2017_Jan_25_1602,59.5189165334,spr_backupper,001,Sa16,
,"Japan,",wir,Packung,dank,sprudelndes,ein,wurden,uns,ich,schon,Wohnung,"Delikte,",jetzt,bekannten,obwohl,Wohnung,sprudelnden,immer,"wertvollem,",warmem,immer,man,sind,das,die,schmutzige,mit,die,dem,landen,viel,Büschel,dauerte,Packung,wurden,"minimalem,",schönen,aus,gelegentlich,Farbe,nicht,"regelmäßigem,",ich,Büschel,obschon,alten,landen,"Delikte,",Kilowattstunden,sind,man,"nicht,",richtige,solchen,alten,mit,"üblichem,",aus,Stadt,"reichlichem,",bekannten,den,Kilowattstunden,viel,Blut,schönen,"sämtlichem,",Farbe,mit,schmutziger,ich,den,man,Neuwahlen,wir,auf,Bluts,36,bei,mit,man,vierte,dauerhaftem,"trug,",Stadt,ich,Fahrer,Stimmung,36,ausreichendem,solch,bei,war,auf,ein,einen,Fahrer,die,,,,,,,,,,,,,,,,,,,,,,,8,0,8,0,0,4,4,4,,,,,,,space,0.319725990295,,,,,2017_Jan_25_1602,59.5189165334,spr_backupper,001,Sa16,
,die,um,salzige,täglichem,Trinkwasser.,Glas,serviert.,die,mehr,immer,des,deren,"nachgewiesen,",Skandals,sie,des,Trinkwassers.,350,klassischen,weichem,350,eine,auf,Auto,Tiere,Wäsche.,einem,Störenfriede,Mann,im,Lärm,frisches,ungefähr,salziger,serviert.,sauberen,Wetters,seltenem,einen,geschleudert.,am,kaltem,leider,frischen,sie,Krams,im,derer,elektrische,auf,eine,was,"Zeit,",unzureichenden,Kram,zusätzlichem,harten,feinem,liegen,purem,Skandal,roten,elektrischer,Lärm,hat,Wetter,künftigem,geschleudert.,"reichem,",Wäsche.,leider,roten,der,vor,von,noch,hat,hätten,minimalem,einem,den,Bundespräsident.,feinem,war,liegen,mehr,wurden,ziemlich,würden,monatlichem,unzureichenden,"frischem,",die,noch,Glas,gelegentlichen,wurden,Störenfriede,,,,,,,,,,,,,,,,,,,,,,,8,0,8,0,0,5,5,5,,,,,,,space,0.281728029251,,,,,2017_Jan_25_1602,59.5189165334,spr_backupper,001,Sa16,
,er,die,Wurst,grünen,nan,köstlicher,nan,Stimmung,als,ruhig,Herrn,sie,dass,wiedergewählt.,defekt,Herrn,nan,ml,Schmuck,Untergrund,ml,große,jeden,mehr,artgerecht,nan,Esslöffel,jeden.,mehr,Müll.,um,Gras,drei,Wurst,nan,Kraftstoff,die,dichten,Besucher.,nan,Hauptbahnhof.,Abduschen,nichts,Grases,defekt,aus,Müll.,sie,Energie.,jeden,große,Tupperware,um,Helmen,aus,schwarzem,Schaumstoff,dichten,die,Alkohol,wiedergewählt.,Planet,Energie.,um,den,die,Einkommen,nan,goldenen,nan,nichts,Planeten,Soldaten,Dezember,den,eine,den,seiner,täglichen,Esslöffel,Soldaten,nan,Kunsteis,aus,die,als,verschrottet.,"vermiest,",seiner,Taschengeld,Helmen,kaltem,Flut,eine,köstlichen,Besucher.,verschrottet.,jeden.,,,,,,,,,,,,,,,,,,,,,,,8,0,8,0,0,6,6,6,,,,,,,space,0.273270130157,,,,,2017_Jan_25_1602,59.5189165334,spr_backupper,001,Sa16,
,trug.,Probleme,mit,Tee,nan,Wein,nan,ziemlich,einmal,diskutiert.,Gantenbein.,überführt,das,nan,war.,Gantenbeins.,nan,warme,umgearbeitet.,liegen.,warmer,Menge,Fall,als,gehalten.,nan,warmen,nan,als,nan,jede,zwängen.,Tage.,mit,nan,fahren.,Wohnung.,Gewebe,nan,nan,nan,gehärtet.,mitbringen.,zwängen.,war.,dem,nan,überführt,nan,Fall,Menge,ist.,Nadelhölzer,zur,dem,Kaffee,gefertigt.,Stoff,Slums.,verdünnt.,nan,ganz,nan,jede,Boden,Wohnung.,haftbar.,nan,Besatz,nan,mitbringen.,ganz,des,stattfinden.,Problemen,Sammlung,Boden,Frau,Einsatz,warmem,des,nan,eingesprüht.,Japan.,Slums.,einmal,nan,dass,Frau,selber,zur,Saft,zurückgekehrt.,Sammlung,Weins,nan,nan,nan,,,,,,,,,,,,,,,,,,,,,,,8,0,8,0,0,7,7,7,,,,,,,space,0.339281797409,,,,,2017_Jan_25_1602,59.5189165334,spr_backupper,001,Sa16,
,nan,im,an,wieder,nan,schon,nan,vermiest.,Rilke.,nan,nan,wurden.,Medikament,nan,nan,nan,nan,Milch.,nan,nan,Milch.,dunkler,genug.,gerne.,nan,nan,Honigs,nan,gerne.,nan,Menge,nan,nan,an,nan,nan,nan,wiederhergestellt.,nan,nan,nan,nan,nan,nan,nan,Haus,nan,wurden.,nan,genug.,dunkle,nan,umzusetzen.,Schule.,Haus,wiederbelebt.,nan,gefertigt.,nan,nan,nan,deutlich.,nan,Menge,berührt.,nan,nan,nan,rekonstruiert.,nan,nan,deutlich.,zweiten,nan,im,dumme,berührt.,gepasst.,sinken.,Honig,zweiten,nan,nan,nan,nan,Rilke,nan,es,gepasst,kaufen.,Schule.,besprochen.,nan,dummer,schon,nan,nan,nan,,,,,,,,,,,,,,,,,,,,,,,8,0,8,0,0,8,8,8,,,,,,,space,0.453845977783,,,,,2017_Jan_25_1602,59.5189165334,spr_backupper,001,Sa16,
,nan,Landkreis.,den,fit.,nan,auf,nan,nan,nan,nan,nan,nan,nicht,nan,nan,nan,nan,nan,nan,nan,nan,Materie,nan,nan,nan,nan,her.,nan,nan,nan,heißer,nan,nan,den,nan,nan,nan,nan,nan,nan,nan,nan,nan,nan,nan,geschafft.,nan,nan,nan,nan,Materie,nan,nan,nan,geschafft.,nan,nan,nan,nan,nan,nan,nan,nan,heiße,nan,nan,nan,nan,nan,nan,nan,nan,Weltkriegs.,nan,Landkreis.,Sprüche.,nan,nan,nan,her.,Weltkriegs.,nan,nan,nan,nan,gelesen.,nan,regnete.,haben.,nan,nan,nan,nan,Sprüche.,auf,nan,nan,nan,,,,,,,,,,,,,,,,,,,,,,,8,0,8,0,0,9,9,9,,,,,,,space,0.64648604393,,,,,2017_Jan_25_1602,59.5189165334,spr_backupper,001,Sa16,
,,,,,,,,,,,,,,,,,,,,,,,,,,,,,,,,,,,,,,,,,,,,,,,,,,,,,,,,,,,,,,,,,,,,,,,,,,,,,,,,,,,,,,,,,,,,,,,,,,,,,,,,,,,,,,,,,,,,,,,,,8,0,8,0,,,,,,,,,,,,,None,j,3.27117204666,,2017_Jan_25_1602,59.5189165334,spr_backupper,001,Sa16,
,Die,In,Ich,Ich,Sie,Bei,Beträchtliche,Dass,In,Fernab,Die,Es,In,Er,Die,Die,Sie,In,Die,Jungtiere,In,Mit,100,Wir,In,Dort,Er,Außer,Wir,Viele,Man,Wir,Der,Ich,Beträchtliche,Wir,Sie,Danach,Wir,Es,Die,Die,Außer,Wir,Die,Wir,Viele,Es,Die,100,Mit,Die,Jetzt,Die,Wir,Die,Alle,Er,Am,Die,Er,Im,Die,Man,Nicht,Sie,Manche,Es,Das,Dort,Außer,Im,Bei,Unter,In,Sie,Nicht,Die,Ihr,Er,Bei,Walter,Die,Die,Am,In,Die,Es,Die,Jugendliche,Die,Sie,Als,Sie,Bei,Wir,Die,Außer,,,,,,,,,,,,,,,,,,,,,,,9,0,9,0,0,0,0,0,,,,,,None,space,0.430729150772,,,,,2017_Jan_25_1602,59.5189165334,spr_backupper,001,Sa16,
,Uhr,der,nehme,wurde,verbrauchen,unserer,Stücke,es,meinem,des,Gäste,waren,einer,wurde,Uhr,Gäste,verbrauchen,den,Stücke,sollten,den,dieser,g,übergaben,diesem,türmen,stellt,den,übergaben,Tonnen,machte,mussten,Flug,nehme,Stücke,konnten,verlassen,wurde,hatten,wurden,Linie,Formen,das,mussten,Uhr,haben,Tonnen,waren,Schule,g,dieser,Teilnehmerinnen,ist,Kinder,haben,müden,Betten,hat,äußeren,Lösung,wurde,Fernrohr,Schule,machte,ein,verlassen,Kreditnehmer,wurden,Tuch,türmen,dem,Fernrohr,der,keinen,der,hatte,ein,Schuhe,Blutdruck,stellt,der,Scheel,Eislaufbahnen,"Uhr,",äußersten,meinem,Autos,hat,Schuhe,können,Kinder,haben,die,hatte,unserer,hatten,Autos,dem,,,,,,,,,,,,,,,,,,,,,,,9,0,9,0,0,1,1,1,,,,,,,space,0.457690954208,,,,,2017_Jan_25_1602,59.5189165334,spr_backupper,001,Sa16,
,war,Tat,eine,damals,60,Ankunft,saftigen,"regnete,",Studium,Rummels,suchen,nur,Studie,trotz,schlug,suchen,60,Kakao,wurden,immer,Kakao,Methode,braunen,dem,Zirkus,sich,die,Bürgermeister,das,gebrauchte,mal,uns,zum,eine,saftiges,dann,wegen,die,in,Eimer,101,wurden,Essen,uns,schlug,jede,gebrauchter,nur,verbraucht,brauner,Methode,wussten,genau,fuhren,jede,Teilnehmer,wurden,ein,Rand,wird,trotz,sahen,verbraucht,mal,Tropfen,wegen,sind,Eimer,wurde,sich,Essen,sahen,Feier,Umständen,Tat,keine,Tropfen,in,kann,die,Feier,war,wurden,die,Rand,Studium,beider,uns,in,Kleidung,fuhren,die,Sonne,keine,Ankunft,in,beider,Bürgermeister,,,,,,,,,,,,,,,,,,,,,,,9,0,9,0,0,2,2,2,,,,,,,space,0.839710950851,,,,,2017_Jan_25_1602,59.5189165334,spr_backupper,001,Sa16,
,aus,wissen,große,schnell,Liter,stand,Fleischs,hat,las,wurde,die,kleinere,wurde,des,"sporadisch,",die,Liter,gehören,aus,auf,gehören,kann,Zuckers,Mann,werden,Berge,Masse,beschuldigten,Auto,Kleidung,wieder,durch,Mond,große,Fleisch,mit,des,Leinwand,Dänemark,rote,hält,unter,kann,durch,"sporadisch,",Menge,Kleidung,kleinere,260.000,Zucker,kann,überwiegend,die,mit,Menge,wurden,mit,Hemd,der,mit,dem,wir,260.000,wieder,königliches,dem,mit,roter,dann,Berge,kann,wir,gedachte,können,wissen,Lust,königlichen,Größe,schon,Masse,gedachte,der,mit,er,der,habe,beteiligten,die,Größe,bei,mit,Erlebnisse,"unterging,",Lust,stand,Dänemark,beteiligter,beschuldigten,,,,,,,,,,,,,,,,,,,,,,,9,0,9,0,0,3,3,3,,,,,,,space,0.32977604866,,,,,2017_Jan_25_1602,59.5189165334,spr_backupper,001,Sa16,
,"Japan,",wir,Packung,dank,sprudelndes,ein,wurden,uns,ich,schon,Wohnung,"Delikte,",jetzt,bekannten,obwohl,Wohnung,sprudelnden,immer,"wertvollem,",warmem,immer,man,sind,das,die,schmutzige,mit,die,dem,landen,viel,Büschel,dauerte,Packung,wurden,"minimalem,",schönen,aus,gelegentlich,Farbe,nicht,"regelmäßigem,",ich,Büschel,obschon,alten,landen,"Delikte,",Kilowattstunden,sind,man,"nicht,",richtige,solchen,alten,mit,"üblichem,",aus,Stadt,"reichlichem,",bekannten,den,Kilowattstunden,viel,Blut,schönen,"sämtlichem,",Farbe,mit,schmutziger,ich,den,man,Neuwahlen,wir,auf,Bluts,36,bei,mit,man,vierte,dauerhaftem,"trug,",Stadt,ich,Fahrer,Stimmung,36,ausreichendem,solch,bei,war,auf,ein,einen,Fahrer,die,,,,,,,,,,,,,,,,,,,,,,,9,0,9,0,0,4,4,4,,,,,,,space,0.319079875946,,,,,2017_Jan_25_1602,59.5189165334,spr_backupper,001,Sa16,
,die,um,salzige,täglichem,Trinkwasser.,Glas,serviert.,die,mehr,immer,des,deren,"nachgewiesen,",Skandals,sie,des,Trinkwassers.,350,klassischen,weichem,350,eine,auf,Auto,Tiere,Wäsche.,einem,Störenfriede,Mann,im,Lärm,frisches,ungefähr,salziger,serviert.,sauberen,Wetters,seltenem,einen,geschleudert.,am,kaltem,leider,frischen,sie,Krams,im,derer,elektrische,auf,eine,was,"Zeit,",unzureichenden,Kram,zusätzlichem,harten,feinem,liegen,purem,Skandal,roten,elektrischer,Lärm,hat,Wetter,künftigem,geschleudert.,"reichem,",Wäsche.,leider,roten,der,vor,von,noch,hat,hätten,minimalem,einem,den,Bundespräsident.,feinem,war,liegen,mehr,wurden,ziemlich,würden,monatlichem,unzureichenden,"frischem,",die,noch,Glas,gelegentlichen,wurden,Störenfriede,,,,,,,,,,,,,,,,,,,,,,,9,0,9,0,0,5,5,5,,,,,,,space,0.283182859421,,,,,2017_Jan_25_1602,59.5189165334,spr_backupper,001,Sa16,
,er,die,Wurst,grünen,nan,köstlicher,nan,Stimmung,als,ruhig,Herrn,sie,dass,wiedergewählt.,defekt,Herrn,nan,ml,Schmuck,Untergrund,ml,große,jeden,mehr,artgerecht,nan,Esslöffel,jeden.,mehr,Müll.,um,Gras,drei,Wurst,nan,Kraftstoff,die,dichten,Besucher.,nan,Hauptbahnhof.,Abduschen,nichts,Grases,defekt,aus,Müll.,sie,Energie.,jeden,große,Tupperware,um,Helmen,aus,schwarzem,Schaumstoff,dichten,die,Alkohol,wiedergewählt.,Planet,Energie.,um,den,die,Einkommen,nan,goldenen,nan,nichts,Planeten,Soldaten,Dezember,den,eine,den,seiner,täglichen,Esslöffel,Soldaten,nan,Kunsteis,aus,die,als,verschrottet.,"vermiest,",seiner,Taschengeld,Helmen,kaltem,Flut,eine,köstlichen,Besucher.,verschrottet.,jeden.,,,,,,,,,,,,,,,,,,,,,,,9,0,9,0,0,6,6,6,,,,,,,space,0.343580961227,,,,,2017_Jan_25_1602,59.5189165334,spr_backupper,001,Sa16,
,trug.,Probleme,mit,Tee,nan,Wein,nan,ziemlich,einmal,diskutiert.,Gantenbein.,überführt,das,nan,war.,Gantenbeins.,nan,warme,umgearbeitet.,liegen.,warmer,Menge,Fall,als,gehalten.,nan,warmen,nan,als,nan,jede,zwängen.,Tage.,mit,nan,fahren.,Wohnung.,Gewebe,nan,nan,nan,gehärtet.,mitbringen.,zwängen.,war.,dem,nan,überführt,nan,Fall,Menge,ist.,Nadelhölzer,zur,dem,Kaffee,gefertigt.,Stoff,Slums.,verdünnt.,nan,ganz,nan,jede,Boden,Wohnung.,haftbar.,nan,Besatz,nan,mitbringen.,ganz,des,stattfinden.,Problemen,Sammlung,Boden,Frau,Einsatz,warmem,des,nan,eingesprüht.,Japan.,Slums.,einmal,nan,dass,Frau,selber,zur,Saft,zurückgekehrt.,Sammlung,Weins,nan,nan,nan,,,,,,,,,,,,,,,,,,,,,,,9,0,9,0,0,7,7,7,,,,,,,space,0.334362983704,,,,,2017_Jan_25_1602,59.5189165334,spr_backupper,001,Sa16,
,nan,im,an,wieder,nan,schon,nan,vermiest.,Rilke.,nan,nan,wurden.,Medikament,nan,nan,nan,nan,Milch.,nan,nan,Milch.,dunkler,genug.,gerne.,nan,nan,Honigs,nan,gerne.,nan,Menge,nan,nan,an,nan,nan,nan,wiederhergestellt.,nan,nan,nan,nan,nan,nan,nan,Haus,nan,wurden.,nan,genug.,dunkle,nan,umzusetzen.,Schule.,Haus,wiederbelebt.,nan,gefertigt.,nan,nan,nan,deutlich.,nan,Menge,berührt.,nan,nan,nan,rekonstruiert.,nan,nan,deutlich.,zweiten,nan,im,dumme,berührt.,gepasst.,sinken.,Honig,zweiten,nan,nan,nan,nan,Rilke,nan,es,gepasst,kaufen.,Schule.,besprochen.,nan,dummer,schon,nan,nan,nan,,,,,,,,,,,,,,,,,,,,,,,9,0,9,0,0,8,8,8,,,,,,,space,0.313443899155,,,,,2017_Jan_25_1602,59.5189165334,spr_backupper,001,Sa16,
,,,,,,,,,,,,,,,,,,,,,,,,,,,,,,,,,,,,,,,,,,,,,,,,,,,,,,,,,,,,,,,,,,,,,,,,,,,,,,,,,,,,,,,,,,,,,,,,,,,,,,,,,,,,,,,,,,,,,,,,,9,0,9,0,,,,,,,,,,,,,None,j,1.42246007919,,2017_Jan_25_1602,59.5189165334,spr_backupper,001,Sa16,
,Die,In,Ich,Ich,Sie,Bei,Beträchtliche,Dass,In,Fernab,Die,Es,In,Er,Die,Die,Sie,In,Die,Jungtiere,In,Mit,100,Wir,In,Dort,Er,Außer,Wir,Viele,Man,Wir,Der,Ich,Beträchtliche,Wir,Sie,Danach,Wir,Es,Die,Die,Außer,Wir,Die,Wir,Viele,Es,Die,100,Mit,Die,Jetzt,Die,Wir,Die,Alle,Er,Am,Die,Er,Im,Die,Man,Nicht,Sie,Manche,Es,Das,Dort,Außer,Im,Bei,Unter,In,Sie,Nicht,Die,Ihr,Er,Bei,Walter,Die,Die,Am,In,Die,Es,Die,Jugendliche,Die,Sie,Als,Sie,Bei,Wir,Die,Außer,,,,,,,,,,,,,,,,,,,,,,,10,0,10,0,0,0,0,0,,,,,,None,space,1.46531915665,,,,,2017_Jan_25_1602,59.5189165334,spr_backupper,001,Sa16,
,Uhr,der,nehme,wurde,verbrauchen,unserer,Stücke,es,meinem,des,Gäste,waren,einer,wurde,Uhr,Gäste,verbrauchen,den,Stücke,sollten,den,dieser,g,übergaben,diesem,türmen,stellt,den,übergaben,Tonnen,machte,mussten,Flug,nehme,Stücke,konnten,verlassen,wurde,hatten,wurden,Linie,Formen,das,mussten,Uhr,haben,Tonnen,waren,Schule,g,dieser,Teilnehmerinnen,ist,Kinder,haben,müden,Betten,hat,äußeren,Lösung,wurde,Fernrohr,Schule,machte,ein,verlassen,Kreditnehmer,wurden,Tuch,türmen,dem,Fernrohr,der,keinen,der,hatte,ein,Schuhe,Blutdruck,stellt,der,Scheel,Eislaufbahnen,"Uhr,",äußersten,meinem,Autos,hat,Schuhe,können,Kinder,haben,die,hatte,unserer,hatten,Autos,dem,,,,,,,,,,,,,,,,,,,,,,,10,0,10,0,0,1,1,1,,,,,,,space,1.06497693062,,,,,2017_Jan_25_1602,59.5189165334,spr_backupper,001,Sa16,
,war,Tat,eine,damals,60,Ankunft,saftigen,"regnete,",Studium,Rummels,suchen,nur,Studie,trotz,schlug,suchen,60,Kakao,wurden,immer,Kakao,Methode,braunen,dem,Zirkus,sich,die,Bürgermeister,das,gebrauchte,mal,uns,zum,eine,saftiges,dann,wegen,die,in,Eimer,101,wurden,Essen,uns,schlug,jede,gebrauchter,nur,verbraucht,brauner,Methode,wussten,genau,fuhren,jede,Teilnehmer,wurden,ein,Rand,wird,trotz,sahen,verbraucht,mal,Tropfen,wegen,sind,Eimer,wurde,sich,Essen,sahen,Feier,Umständen,Tat,keine,Tropfen,in,kann,die,Feier,war,wurden,die,Rand,Studium,beider,uns,in,Kleidung,fuhren,die,Sonne,keine,Ankunft,in,beider,Bürgermeister,,,,,,,,,,,,,,,,,,,,,,,10,0,10,0,0,2,2,2,,,,,,,space,1.27096986771,,,,,2017_Jan_25_1602,59.5189165334,spr_backupper,001,Sa16,
,aus,wissen,große,schnell,Liter,stand,Fleischs,hat,las,wurde,die,kleinere,wurde,des,"sporadisch,",die,Liter,gehören,aus,auf,gehören,kann,Zuckers,Mann,werden,Berge,Masse,beschuldigten,Auto,Kleidung,wieder,durch,Mond,große,Fleisch,mit,des,Leinwand,Dänemark,rote,hält,unter,kann,durch,"sporadisch,",Menge,Kleidung,kleinere,260.000,Zucker,kann,überwiegend,die,mit,Menge,wurden,mit,Hemd,der,mit,dem,wir,260.000,wieder,königliches,dem,mit,roter,dann,Berge,kann,wir,gedachte,können,wissen,Lust,königlichen,Größe,schon,Masse,gedachte,der,mit,er,der,habe,beteiligten,die,Größe,bei,mit,Erlebnisse,"unterging,",Lust,stand,Dänemark,beteiligter,beschuldigten,,,,,,,,,,,,,,,,,,,,,,,10,0,10,0,0,3,3,3,,,,,,,space,1.56589794159,,,,,2017_Jan_25_1602,59.5189165334,spr_backupper,001,Sa16,
,"Japan,",wir,Packung,dank,sprudelndes,ein,wurden,uns,ich,schon,Wohnung,"Delikte,",jetzt,bekannten,obwohl,Wohnung,sprudelnden,immer,"wertvollem,",warmem,immer,man,sind,das,die,schmutzige,mit,die,dem,landen,viel,Büschel,dauerte,Packung,wurden,"minimalem,",schönen,aus,gelegentlich,Farbe,nicht,"regelmäßigem,",ich,Büschel,obschon,alten,landen,"Delikte,",Kilowattstunden,sind,man,"nicht,",richtige,solchen,alten,mit,"üblichem,",aus,Stadt,"reichlichem,",bekannten,den,Kilowattstunden,viel,Blut,schönen,"sämtlichem,",Farbe,mit,schmutziger,ich,den,man,Neuwahlen,wir,auf,Bluts,36,bei,mit,man,vierte,dauerhaftem,"trug,",Stadt,ich,Fahrer,Stimmung,36,ausreichendem,solch,bei,war,auf,ein,einen,Fahrer,die,,,,,,,,,,,,,,,,,,,,,,,10,0,10,0,0,4,4,4,,,,,,,space,0.510458946228,,,,,2017_Jan_25_1602,59.5189165334,spr_backupper,001,Sa16,
,die,um,salzige,täglichem,Trinkwasser.,Glas,serviert.,die,mehr,immer,des,deren,"nachgewiesen,",Skandals,sie,des,Trinkwassers.,350,klassischen,weichem,350,eine,auf,Auto,Tiere,Wäsche.,einem,Störenfriede,Mann,im,Lärm,frisches,ungefähr,salziger,serviert.,sauberen,Wetters,seltenem,einen,geschleudert.,am,kaltem,leider,frischen,sie,Krams,im,derer,elektrische,auf,eine,was,"Zeit,",unzureichenden,Kram,zusätzlichem,harten,feinem,liegen,purem,Skandal,roten,elektrischer,Lärm,hat,Wetter,künftigem,geschleudert.,"reichem,",Wäsche.,leider,roten,der,vor,von,noch,hat,hätten,minimalem,einem,den,Bundespräsident.,feinem,war,liegen,mehr,wurden,ziemlich,würden,monatlichem,unzureichenden,"frischem,",die,noch,Glas,gelegentlichen,wurden,Störenfriede,,,,,,,,,,,,,,,,,,,,,,,10,0,10,0,0,5,5,5,,,,,,,space,0.450817108154,,,,,2017_Jan_25_1602,59.5189165334,spr_backupper,001,Sa16,
,er,die,Wurst,grünen,nan,köstlicher,nan,Stimmung,als,ruhig,Herrn,sie,dass,wiedergewählt.,defekt,Herrn,nan,ml,Schmuck,Untergrund,ml,große,jeden,mehr,artgerecht,nan,Esslöffel,jeden.,mehr,Müll.,um,Gras,drei,Wurst,nan,Kraftstoff,die,dichten,Besucher.,nan,Hauptbahnhof.,Abduschen,nichts,Grases,defekt,aus,Müll.,sie,Energie.,jeden,große,Tupperware,um,Helmen,aus,schwarzem,Schaumstoff,dichten,die,Alkohol,wiedergewählt.,Planet,Energie.,um,den,die,Einkommen,nan,goldenen,nan,nichts,Planeten,Soldaten,Dezember,den,eine,den,seiner,täglichen,Esslöffel,Soldaten,nan,Kunsteis,aus,die,als,verschrottet.,"vermiest,",seiner,Taschengeld,Helmen,kaltem,Flut,eine,köstlichen,Besucher.,verschrottet.,jeden.,,,,,,,,,,,,,,,,,,,,,,,10,0,10,0,0,6,6,6,,,,,,,space,0.528187990189,,,,,2017_Jan_25_1602,59.5189165334,spr_backupper,001,Sa16,
,trug.,Probleme,mit,Tee,nan,Wein,nan,ziemlich,einmal,diskutiert.,Gantenbein.,überführt,das,nan,war.,Gantenbeins.,nan,warme,umgearbeitet.,liegen.,warmer,Menge,Fall,als,gehalten.,nan,warmen,nan,als,nan,jede,zwängen.,Tage.,mit,nan,fahren.,Wohnung.,Gewebe,nan,nan,nan,gehärtet.,mitbringen.,zwängen.,war.,dem,nan,überführt,nan,Fall,Menge,ist.,Nadelhölzer,zur,dem,Kaffee,gefertigt.,Stoff,Slums.,verdünnt.,nan,ganz,nan,jede,Boden,Wohnung.,haftbar.,nan,Besatz,nan,mitbringen.,ganz,des,stattfinden.,Problemen,Sammlung,Boden,Frau,Einsatz,warmem,des,nan,eingesprüht.,Japan.,Slums.,einmal,nan,dass,Frau,selber,zur,Saft,zurückgekehrt.,Sammlung,Weins,nan,nan,nan,,,,,,,,,,,,,,,,,,,,,,,10,0,10,0,0,7,7,7,,,,,,,space,0.510315179825,,,,,2017_Jan_25_1602,59.5189165334,spr_backupper,001,Sa16,
,nan,im,an,wieder,nan,schon,nan,vermiest.,Rilke.,nan,nan,wurden.,Medikament,nan,nan,nan,nan,Milch.,nan,nan,Milch.,dunkler,genug.,gerne.,nan,nan,Honigs,nan,gerne.,nan,Menge,nan,nan,an,nan,nan,nan,wiederhergestellt.,nan,nan,nan,nan,nan,nan,nan,Haus,nan,wurden.,nan,genug.,dunkle,nan,umzusetzen.,Schule.,Haus,wiederbelebt.,nan,gefertigt.,nan,nan,nan,deutlich.,nan,Menge,berührt.,nan,nan,nan,rekonstruiert.,nan,nan,deutlich.,zweiten,nan,im,dumme,berührt.,gepasst.,sinken.,Honig,zweiten,nan,nan,nan,nan,Rilke,nan,es,gepasst,kaufen.,Schule.,besprochen.,nan,dummer,schon,nan,nan,nan,,,,,,,,,,,,,,,,,,,,,,,10,0,10,0,0,8,8,8,,,,,,,space,0.515180826187,,,,,2017_Jan_25_1602,59.5189165334,spr_backupper,001,Sa16,
,,,,,,,,,,,,,,,,,,,,,,,,,,,,,,,,,,,,,,,,,,,,,,,,,,,,,,,,,,,,,,,,,,,,,,,,,,,,,,,,,,,,,,,,,,,,,,,,,,,,,,,,,,,,,,,,,,,,,,,,,10,0,10,0,,,,,,,,,,,,,None,n,2.94852900505,,2017_Jan_25_1602,59.5189165334,spr_backupper,001,Sa16,
,Die,In,Ich,Ich,Sie,Bei,Beträchtliche,Dass,In,Fernab,Die,Es,In,Er,Die,Die,Sie,In,Die,Jungtiere,In,Mit,100,Wir,In,Dort,Er,Außer,Wir,Viele,Man,Wir,Der,Ich,Beträchtliche,Wir,Sie,Danach,Wir,Es,Die,Die,Außer,Wir,Die,Wir,Viele,Es,Die,100,Mit,Die,Jetzt,Die,Wir,Die,Alle,Er,Am,Die,Er,Im,Die,Man,Nicht,Sie,Manche,Es,Das,Dort,Außer,Im,Bei,Unter,In,Sie,Nicht,Die,Ihr,Er,Bei,Walter,Die,Die,Am,In,Die,Es,Die,Jugendliche,Die,Sie,Als,Sie,Bei,Wir,Die,Außer,,,,,,,,,,,,,,,,,,,,,,,11,0,11,0,0,0,0,0,,,,,,None,space,2.0855550766,,,,,2017_Jan_25_1602,59.5189165334,spr_backupper,001,Sa16,
,Uhr,der,nehme,wurde,verbrauchen,unserer,Stücke,es,meinem,des,Gäste,waren,einer,wurde,Uhr,Gäste,verbrauchen,den,Stücke,sollten,den,dieser,g,übergaben,diesem,türmen,stellt,den,übergaben,Tonnen,machte,mussten,Flug,nehme,Stücke,konnten,verlassen,wurde,hatten,wurden,Linie,Formen,das,mussten,Uhr,haben,Tonnen,waren,Schule,g,dieser,Teilnehmerinnen,ist,Kinder,haben,müden,Betten,hat,äußeren,Lösung,wurde,Fernrohr,Schule,machte,ein,verlassen,Kreditnehmer,wurden,Tuch,türmen,dem,Fernrohr,der,keinen,der,hatte,ein,Schuhe,Blutdruck,stellt,der,Scheel,Eislaufbahnen,"Uhr,",äußersten,meinem,Autos,hat,Schuhe,können,Kinder,haben,die,hatte,unserer,hatten,Autos,dem,,,,,,,,,,,,,,,,,,,,,,,11,0,11,0,0,1,1,1,,,,,,,space,0.674510002136,,,,,2017_Jan_25_1602,59.5189165334,spr_backupper,001,Sa16,
,war,Tat,eine,damals,60,Ankunft,saftigen,"regnete,",Studium,Rummels,suchen,nur,Studie,trotz,schlug,suchen,60,Kakao,wurden,immer,Kakao,Methode,braunen,dem,Zirkus,sich,die,Bürgermeister,das,gebrauchte,mal,uns,zum,eine,saftiges,dann,wegen,die,in,Eimer,101,wurden,Essen,uns,schlug,jede,gebrauchter,nur,verbraucht,brauner,Methode,wussten,genau,fuhren,jede,Teilnehmer,wurden,ein,Rand,wird,trotz,sahen,verbraucht,mal,Tropfen,wegen,sind,Eimer,wurde,sich,Essen,sahen,Feier,Umständen,Tat,keine,Tropfen,in,kann,die,Feier,war,wurden,die,Rand,Studium,beider,uns,in,Kleidung,fuhren,die,Sonne,keine,Ankunft,in,beider,Bürgermeister,,,,,,,,,,,,,,,,,,,,,,,11,0,11,0,0,2,2,2,,,,,,,space,1.14693403244,,,,,2017_Jan_25_1602,59.5189165334,spr_backupper,001,Sa16,
,aus,wissen,große,schnell,Liter,stand,Fleischs,hat,las,wurde,die,kleinere,wurde,des,"sporadisch,",die,Liter,gehören,aus,auf,gehören,kann,Zuckers,Mann,werden,Berge,Masse,beschuldigten,Auto,Kleidung,wieder,durch,Mond,große,Fleisch,mit,des,Leinwand,Dänemark,rote,hält,unter,kann,durch,"sporadisch,",Menge,Kleidung,kleinere,260.000,Zucker,kann,überwiegend,die,mit,Menge,wurden,mit,Hemd,der,mit,dem,wir,260.000,wieder,königliches,dem,mit,roter,dann,Berge,kann,wir,gedachte,können,wissen,Lust,königlichen,Größe,schon,Masse,gedachte,der,mit,er,der,habe,beteiligten,die,Größe,bei,mit,Erlebnisse,"unterging,",Lust,stand,Dänemark,beteiligter,beschuldigten,,,,,,,,,,,,,,,,,,,,,,,11,0,11,0,0,3,3,3,,,,,,,space,0.469681978226,,,,,2017_Jan_25_1602,59.5189165334,spr_backupper,001,Sa16,
,"Japan,",wir,Packung,dank,sprudelndes,ein,wurden,uns,ich,schon,Wohnung,"Delikte,",jetzt,bekannten,obwohl,Wohnung,sprudelnden,immer,"wertvollem,",warmem,immer,man,sind,das,die,schmutzige,mit,die,dem,landen,viel,Büschel,dauerte,Packung,wurden,"minimalem,",schönen,aus,gelegentlich,Farbe,nicht,"regelmäßigem,",ich,Büschel,obschon,alten,landen,"Delikte,",Kilowattstunden,sind,man,"nicht,",richtige,solchen,alten,mit,"üblichem,",aus,Stadt,"reichlichem,",bekannten,den,Kilowattstunden,viel,Blut,schönen,"sämtlichem,",Farbe,mit,schmutziger,ich,den,man,Neuwahlen,wir,auf,Bluts,36,bei,mit,man,vierte,dauerhaftem,"trug,",Stadt,ich,Fahrer,Stimmung,36,ausreichendem,solch,bei,war,auf,ein,einen,Fahrer,die,,,,,,,,,,,,,,,,,,,,,,,11,0,11,0,0,4,4,4,,,,,,,space,0.453521966934,,,,,2017_Jan_25_1602,59.5189165334,spr_backupper,001,Sa16,
,die,um,salzige,täglichem,Trinkwasser.,Glas,serviert.,die,mehr,immer,des,deren,"nachgewiesen,",Skandals,sie,des,Trinkwassers.,350,klassischen,weichem,350,eine,auf,Auto,Tiere,Wäsche.,einem,Störenfriede,Mann,im,Lärm,frisches,ungefähr,salziger,serviert.,sauberen,Wetters,seltenem,einen,geschleudert.,am,kaltem,leider,frischen,sie,Krams,im,derer,elektrische,auf,eine,was,"Zeit,",unzureichenden,Kram,zusätzlichem,harten,feinem,liegen,purem,Skandal,roten,elektrischer,Lärm,hat,Wetter,künftigem,geschleudert.,"reichem,",Wäsche.,leider,roten,der,vor,von,noch,hat,hätten,minimalem,einem,den,Bundespräsident.,feinem,war,liegen,mehr,wurden,ziemlich,würden,monatlichem,unzureichenden,"frischem,",die,noch,Glas,gelegentlichen,wurden,Störenfriede,,,,,,,,,,,,,,,,,,,,,,,11,0,11,0,0,5,5,5,,,,,,,space,0.348196983337,,,,,2017_Jan_25_1602,59.5189165334,spr_backupper,001,Sa16,
,er,die,Wurst,grünen,nan,köstlicher,nan,Stimmung,als,ruhig,Herrn,sie,dass,wiedergewählt.,defekt,Herrn,nan,ml,Schmuck,Untergrund,ml,große,jeden,mehr,artgerecht,nan,Esslöffel,jeden.,mehr,Müll.,um,Gras,drei,Wurst,nan,Kraftstoff,die,dichten,Besucher.,nan,Hauptbahnhof.,Abduschen,nichts,Grases,defekt,aus,Müll.,sie,Energie.,jeden,große,Tupperware,um,Helmen,aus,schwarzem,Schaumstoff,dichten,die,Alkohol,wiedergewählt.,Planet,Energie.,um,den,die,Einkommen,nan,goldenen,nan,nichts,Planeten,Soldaten,Dezember,den,eine,den,seiner,täglichen,Esslöffel,Soldaten,nan,Kunsteis,aus,die,als,verschrottet.,"vermiest,",seiner,Taschengeld,Helmen,kaltem,Flut,eine,köstlichen,Besucher.,verschrottet.,jeden.,,,,,,,,,,,,,,,,,,,,,,,11,0,11,0,0,6,6,6,,,,,,,space,0.407624959946,,,,,2017_Jan_25_1602,59.5189165334,spr_backupper,001,Sa16,
,trug.,Probleme,mit,Tee,nan,Wein,nan,ziemlich,einmal,diskutiert.,Gantenbein.,überführt,das,nan,war.,Gantenbeins.,nan,warme,umgearbeitet.,liegen.,warmer,Menge,Fall,als,gehalten.,nan,warmen,nan,als,nan,jede,zwängen.,Tage.,mit,nan,fahren.,Wohnung.,Gewebe,nan,nan,nan,gehärtet.,mitbringen.,zwängen.,war.,dem,nan,überführt,nan,Fall,Menge,ist.,Nadelhölzer,zur,dem,Kaffee,gefertigt.,Stoff,Slums.,verdünnt.,nan,ganz,nan,jede,Boden,Wohnung.,haftbar.,nan,Besatz,nan,mitbringen.,ganz,des,stattfinden.,Problemen,Sammlung,Boden,Frau,Einsatz,warmem,des,nan,eingesprüht.,Japan.,Slums.,einmal,nan,dass,Frau,selber,zur,Saft,zurückgekehrt.,Sammlung,Weins,nan,nan,nan,,,,,,,,,,,,,,,,,,,,,,,11,0,11,0,0,7,7,7,,,,,,,space,0.536098003387,,,,,2017_Jan_25_1602,59.5189165334,spr_backupper,001,Sa16,
,nan,im,an,wieder,nan,schon,nan,vermiest.,Rilke.,nan,nan,wurden.,Medikament,nan,nan,nan,nan,Milch.,nan,nan,Milch.,dunkler,genug.,gerne.,nan,nan,Honigs,nan,gerne.,nan,Menge,nan,nan,an,nan,nan,nan,wiederhergestellt.,nan,nan,nan,nan,nan,nan,nan,Haus,nan,wurden.,nan,genug.,dunkle,nan,umzusetzen.,Schule.,Haus,wiederbelebt.,nan,gefertigt.,nan,nan,nan,deutlich.,nan,Menge,berührt.,nan,nan,nan,rekonstruiert.,nan,nan,deutlich.,zweiten,nan,im,dumme,berührt.,gepasst.,sinken.,Honig,zweiten,nan,nan,nan,nan,Rilke,nan,es,gepasst,kaufen.,Schule.,besprochen.,nan,dummer,schon,nan,nan,nan,,,,,,,,,,,,,,,,,,,,,,,11,0,11,0,0,8,8,8,,,,,,,space,0.411523103714,,,,,2017_Jan_25_1602,59.5189165334,spr_backupper,001,Sa16,
,nan,Landkreis.,den,fit.,nan,auf,nan,nan,nan,nan,nan,nan,nicht,nan,nan,nan,nan,nan,nan,nan,nan,Materie,nan,nan,nan,nan,her.,nan,nan,nan,heißer,nan,nan,den,nan,nan,nan,nan,nan,nan,nan,nan,nan,nan,nan,geschafft.,nan,nan,nan,nan,Materie,nan,nan,nan,geschafft.,nan,nan,nan,nan,nan,nan,nan,nan,heiße,nan,nan,nan,nan,nan,nan,nan,nan,Weltkriegs.,nan,Landkreis.,Sprüche.,nan,nan,nan,her.,Weltkriegs.,nan,nan,nan,nan,gelesen.,nan,regnete.,haben.,nan,nan,nan,nan,Sprüche.,auf,nan,nan,nan,,,,,,,,,,,,,,,,,,,,,,,11,0,11,0,0,9,9,9,,,,,,,space,0.376451015472,,,,,2017_Jan_25_1602,59.5189165334,spr_backupper,001,Sa16,
,nan,nan,See.,nan,nan,dem,nan,nan,nan,nan,nan,nan,wirkt.,nan,nan,nan,nan,nan,nan,nan,nan,erzeugen.,nan,nan,nan,nan,nan,nan,nan,nan,Luft.,nan,nan,See.,nan,nan,nan,nan,nan,nan,nan,nan,nan,nan,nan,nan,nan,nan,nan,nan,erzeugen.,nan,nan,nan,nan,nan,nan,nan,nan,nan,nan,nan,nan,Luft.,nan,nan,nan,nan,nan,nan,nan,nan,nan,nan,nan,nan,nan,nan,nan,nan,nan,nan,nan,nan,nan,nan,nan,nan,nan,nan,nan,nan,nan,nan,dem,nan,nan,nan,,,,,,,,,,,,,,,,,,,,,,,11,0,11,0,0,10,10,10,,,,,,,space,0.524549007416,,,,,2017_Jan_25_1602,59.5189165334,spr_backupper,001,Sa16,
,,,,,,,,,,,,,,,,,,,,,,,,,,,,,,,,,,,,,,,,,,,,,,,,,,,,,,,,,,,,,,,,,,,,,,,,,,,,,,,,,,,,,,,,,,,,,,,,,,,,,,,,,,,,,,,,,,,,,,,,,11,0,11,0,,,,,,,,,,,,,None,n,3.55201387405,,2017_Jan_25_1602,59.5189165334,spr_backupper,001,Sa16,
,Die,In,Ich,Ich,Sie,Bei,Beträchtliche,Dass,In,Fernab,Die,Es,In,Er,Die,Die,Sie,In,Die,Jungtiere,In,Mit,100,Wir,In,Dort,Er,Außer,Wir,Viele,Man,Wir,Der,Ich,Beträchtliche,Wir,Sie,Danach,Wir,Es,Die,Die,Außer,Wir,Die,Wir,Viele,Es,Die,100,Mit,Die,Jetzt,Die,Wir,Die,Alle,Er,Am,Die,Er,Im,Die,Man,Nicht,Sie,Manche,Es,Das,Dort,Außer,Im,Bei,Unter,In,Sie,Nicht,Die,Ihr,Er,Bei,Walter,Die,Die,Am,In,Die,Es,Die,Jugendliche,Die,Sie,Als,Sie,Bei,Wir,Die,Außer,,,,,,,,,,,,,,,,,,,,,,,12,0,12,0,0,0,0,0,,,,,,None,space,0.636014938354,,,,,2017_Jan_25_1602,59.5189165334,spr_backupper,001,Sa16,
,Uhr,der,nehme,wurde,verbrauchen,unserer,Stücke,es,meinem,des,Gäste,waren,einer,wurde,Uhr,Gäste,verbrauchen,den,Stücke,sollten,den,dieser,g,übergaben,diesem,türmen,stellt,den,übergaben,Tonnen,machte,mussten,Flug,nehme,Stücke,konnten,verlassen,wurde,hatten,wurden,Linie,Formen,das,mussten,Uhr,haben,Tonnen,waren,Schule,g,dieser,Teilnehmerinnen,ist,Kinder,haben,müden,Betten,hat,äußeren,Lösung,wurde,Fernrohr,Schule,machte,ein,verlassen,Kreditnehmer,wurden,Tuch,türmen,dem,Fernrohr,der,keinen,der,hatte,ein,Schuhe,Blutdruck,stellt,der,Scheel,Eislaufbahnen,"Uhr,",äußersten,meinem,Autos,hat,Schuhe,können,Kinder,haben,die,hatte,unserer,hatten,Autos,dem,,,,,,,,,,,,,,,,,,,,,,,12,0,12,0,0,1,1,1,,,,,,,space,0.392796039581,,,,,2017_Jan_25_1602,59.5189165334,spr_backupper,001,Sa16,
,war,Tat,eine,damals,60,Ankunft,saftigen,"regnete,",Studium,Rummels,suchen,nur,Studie,trotz,schlug,suchen,60,Kakao,wurden,immer,Kakao,Methode,braunen,dem,Zirkus,sich,die,Bürgermeister,das,gebrauchte,mal,uns,zum,eine,saftiges,dann,wegen,die,in,Eimer,101,wurden,Essen,uns,schlug,jede,gebrauchter,nur,verbraucht,brauner,Methode,wussten,genau,fuhren,jede,Teilnehmer,wurden,ein,Rand,wird,trotz,sahen,verbraucht,mal,Tropfen,wegen,sind,Eimer,wurde,sich,Essen,sahen,Feier,Umständen,Tat,keine,Tropfen,in,kann,die,Feier,war,wurden,die,Rand,Studium,beider,uns,in,Kleidung,fuhren,die,Sonne,keine,Ankunft,in,beider,Bürgermeister,,,,,,,,,,,,,,,,,,,,,,,12,0,12,0,0,2,2,2,,,,,,,space,0.48677611351,,,,,2017_Jan_25_1602,59.5189165334,spr_backupper,001,Sa16,
,aus,wissen,große,schnell,Liter,stand,Fleischs,hat,las,wurde,die,kleinere,wurde,des,"sporadisch,",die,Liter,gehören,aus,auf,gehören,kann,Zuckers,Mann,werden,Berge,Masse,beschuldigten,Auto,Kleidung,wieder,durch,Mond,große,Fleisch,mit,des,Leinwand,Dänemark,rote,hält,unter,kann,durch,"sporadisch,",Menge,Kleidung,kleinere,260.000,Zucker,kann,überwiegend,die,mit,Menge,wurden,mit,Hemd,der,mit,dem,wir,260.000,wieder,königliches,dem,mit,roter,dann,Berge,kann,wir,gedachte,können,wissen,Lust,königlichen,Größe,schon,Masse,gedachte,der,mit,er,der,habe,beteiligten,die,Größe,bei,mit,Erlebnisse,"unterging,",Lust,stand,Dänemark,beteiligter,beschuldigten,,,,,,,,,,,,,,,,,,,,,,,12,0,12,0,0,3,3,3,,,,,,,space,0.407793045044,,,,,2017_Jan_25_1602,59.5189165334,spr_backupper,001,Sa16,
,"Japan,",wir,Packung,dank,sprudelndes,ein,wurden,uns,ich,schon,Wohnung,"Delikte,",jetzt,bekannten,obwohl,Wohnung,sprudelnden,immer,"wertvollem,",warmem,immer,man,sind,das,die,schmutzige,mit,die,dem,landen,viel,Büschel,dauerte,Packung,wurden,"minimalem,",schönen,aus,gelegentlich,Farbe,nicht,"regelmäßigem,",ich,Büschel,obschon,alten,landen,"Delikte,",Kilowattstunden,sind,man,"nicht,",richtige,solchen,alten,mit,"üblichem,",aus,Stadt,"reichlichem,",bekannten,den,Kilowattstunden,viel,Blut,schönen,"sämtlichem,",Farbe,mit,schmutziger,ich,den,man,Neuwahlen,wir,auf,Bluts,36,bei,mit,man,vierte,dauerhaftem,"trug,",Stadt,ich,Fahrer,Stimmung,36,ausreichendem,solch,bei,war,auf,ein,einen,Fahrer,die,,,,,,,,,,,,,,,,,,,,,,,12,0,12,0,0,4,4,4,,,,,,,space,0.334941148758,,,,,2017_Jan_25_1602,59.5189165334,spr_backupper,001,Sa16,
,die,um,salzige,täglichem,Trinkwasser.,Glas,serviert.,die,mehr,immer,des,deren,"nachgewiesen,",Skandals,sie,des,Trinkwassers.,350,klassischen,weichem,350,eine,auf,Auto,Tiere,Wäsche.,einem,Störenfriede,Mann,im,Lärm,frisches,ungefähr,salziger,serviert.,sauberen,Wetters,seltenem,einen,geschleudert.,am,kaltem,leider,frischen,sie,Krams,im,derer,elektrische,auf,eine,was,"Zeit,",unzureichenden,Kram,zusätzlichem,harten,feinem,liegen,purem,Skandal,roten,elektrischer,Lärm,hat,Wetter,künftigem,geschleudert.,"reichem,",Wäsche.,leider,roten,der,vor,von,noch,hat,hätten,minimalem,einem,den,Bundespräsident.,feinem,war,liegen,mehr,wurden,ziemlich,würden,monatlichem,unzureichenden,"frischem,",die,noch,Glas,gelegentlichen,wurden,Störenfriede,,,,,,,,,,,,,,,,,,,,,,,12,0,12,0,0,5,5,5,,,,,,,space,0.481328010559,,,,,2017_Jan_25_1602,59.5189165334,spr_backupper,001,Sa16,
,er,die,Wurst,grünen,nan,köstlicher,nan,Stimmung,als,ruhig,Herrn,sie,dass,wiedergewählt.,defekt,Herrn,nan,ml,Schmuck,Untergrund,ml,große,jeden,mehr,artgerecht,nan,Esslöffel,jeden.,mehr,Müll.,um,Gras,drei,Wurst,nan,Kraftstoff,die,dichten,Besucher.,nan,Hauptbahnhof.,Abduschen,nichts,Grases,defekt,aus,Müll.,sie,Energie.,jeden,große,Tupperware,um,Helmen,aus,schwarzem,Schaumstoff,dichten,die,Alkohol,wiedergewählt.,Planet,Energie.,um,den,die,Einkommen,nan,goldenen,nan,nichts,Planeten,Soldaten,Dezember,den,eine,den,seiner,täglichen,Esslöffel,Soldaten,nan,Kunsteis,aus,die,als,verschrottet.,"vermiest,",seiner,Taschengeld,Helmen,kaltem,Flut,eine,köstlichen,Besucher.,verschrottet.,jeden.,,,,,,,,,,,,,,,,,,,,,,,12,0,12,0,0,6,6,6,,,,,,,space,0.53729391098,,,,,2017_Jan_25_1602,59.5189165334,spr_backupper,001,Sa16,
,trug.,Probleme,mit,Tee,nan,Wein,nan,ziemlich,einmal,diskutiert.,Gantenbein.,überführt,das,nan,war.,Gantenbeins.,nan,warme,umgearbeitet.,liegen.,warmer,Menge,Fall,als,gehalten.,nan,warmen,nan,als,nan,jede,zwängen.,Tage.,mit,nan,fahren.,Wohnung.,Gewebe,nan,nan,nan,gehärtet.,mitbringen.,zwängen.,war.,dem,nan,überführt,nan,Fall,Menge,ist.,Nadelhölzer,zur,dem,Kaffee,gefertigt.,Stoff,Slums.,verdünnt.,nan,ganz,nan,jede,Boden,Wohnung.,haftbar.,nan,Besatz,nan,mitbringen.,ganz,des,stattfinden.,Problemen,Sammlung,Boden,Frau,Einsatz,warmem,des,nan,eingesprüht.,Japan.,Slums.,einmal,nan,dass,Frau,selber,zur,Saft,zurückgekehrt.,Sammlung,Weins,nan,nan,nan,,,,,,,,,,,,,,,,,,,,,,,12,0,12,0,0,7,7,7,,,,,,,space,0.393059968948,,,,,2017_Jan_25_1602,59.5189165334,spr_backupper,001,Sa16,
,nan,im,an,wieder,nan,schon,nan,vermiest.,Rilke.,nan,nan,wurden.,Medikament,nan,nan,nan,nan,Milch.,nan,nan,Milch.,dunkler,genug.,gerne.,nan,nan,Honigs,nan,gerne.,nan,Menge,nan,nan,an,nan,nan,nan,wiederhergestellt.,nan,nan,nan,nan,nan,nan,nan,Haus,nan,wurden.,nan,genug.,dunkle,nan,umzusetzen.,Schule.,Haus,wiederbelebt.,nan,gefertigt.,nan,nan,nan,deutlich.,nan,Menge,berührt.,nan,nan,nan,rekonstruiert.,nan,nan,deutlich.,zweiten,nan,im,dumme,berührt.,gepasst.,sinken.,Honig,zweiten,nan,nan,nan,nan,Rilke,nan,es,gepasst,kaufen.,Schule.,besprochen.,nan,dummer,schon,nan,nan,nan,,,,,,,,,,,,,,,,,,,,,,,12,0,12,0,0,8,8,8,,,,,,,space,0.410331010818,,,,,2017_Jan_25_1602,59.5189165334,spr_backupper,001,Sa16,
,,,,,,,,,,,,,,,,,,,,,,,,,,,,,,,,,,,,,,,,,,,,,,,,,,,,,,,,,,,,,,,,,,,,,,,,,,,,,,,,,,,,,,,,,,,,,,,,,,,,,,,,,,,,,,,,,,,,,,,,,12,0,12,0,,,,,,,,,,,,,None,n,2.28064203262,,2017_Jan_25_1602,59.5189165334,spr_backupper,001,Sa16,
,Die,In,Ich,Ich,Sie,Bei,Beträchtliche,Dass,In,Fernab,Die,Es,In,Er,Die,Die,Sie,In,Die,Jungtiere,In,Mit,100,Wir,In,Dort,Er,Außer,Wir,Viele,Man,Wir,Der,Ich,Beträchtliche,Wir,Sie,Danach,Wir,Es,Die,Die,Außer,Wir,Die,Wir,Viele,Es,Die,100,Mit,Die,Jetzt,Die,Wir,Die,Alle,Er,Am,Die,Er,Im,Die,Man,Nicht,Sie,Manche,Es,Das,Dort,Außer,Im,Bei,Unter,In,Sie,Nicht,Die,Ihr,Er,Bei,Walter,Die,Die,Am,In,Die,Es,Die,Jugendliche,Die,Sie,Als,Sie,Bei,Wir,Die,Außer,,,,,,,,,,,,,,,,,,,,,,,13,0,13,0,0,0,0,0,,,,,,space,space,0.805706977844,,,,1.14010906219,2017_Jan_25_1602,59.5189165334,spr_backupper,001,Sa16,
,Uhr,der,nehme,wurde,verbrauchen,unserer,Stücke,es,meinem,des,Gäste,waren,einer,wurde,Uhr,Gäste,verbrauchen,den,Stücke,sollten,den,dieser,g,übergaben,diesem,türmen,stellt,den,übergaben,Tonnen,machte,mussten,Flug,nehme,Stücke,konnten,verlassen,wurde,hatten,wurden,Linie,Formen,das,mussten,Uhr,haben,Tonnen,waren,Schule,g,dieser,Teilnehmerinnen,ist,Kinder,haben,müden,Betten,hat,äußeren,Lösung,wurde,Fernrohr,Schule,machte,ein,verlassen,Kreditnehmer,wurden,Tuch,türmen,dem,Fernrohr,der,keinen,der,hatte,ein,Schuhe,Blutdruck,stellt,der,Scheel,Eislaufbahnen,"Uhr,",äußersten,meinem,Autos,hat,Schuhe,können,Kinder,haben,die,hatte,unserer,hatten,Autos,dem,,,,,,,,,,,,,,,,,,,,,,,13,0,13,0,0,1,1,1,,,,,,,space,0.747725009918,,,,,2017_Jan_25_1602,59.5189165334,spr_backupper,001,Sa16,
,war,Tat,eine,damals,60,Ankunft,saftigen,"regnete,",Studium,Rummels,suchen,nur,Studie,trotz,schlug,suchen,60,Kakao,wurden,immer,Kakao,Methode,braunen,dem,Zirkus,sich,die,Bürgermeister,das,gebrauchte,mal,uns,zum,eine,saftiges,dann,wegen,die,in,Eimer,101,wurden,Essen,uns,schlug,jede,gebrauchter,nur,verbraucht,brauner,Methode,wussten,genau,fuhren,jede,Teilnehmer,wurden,ein,Rand,wird,trotz,sahen,verbraucht,mal,Tropfen,wegen,sind,Eimer,wurde,sich,Essen,sahen,Feier,Umständen,Tat,keine,Tropfen,in,kann,die,Feier,war,wurden,die,Rand,Studium,beider,uns,in,Kleidung,fuhren,die,Sonne,keine,Ankunft,in,beider,Bürgermeister,,,,,,,,,,,,,,,,,,,,,,,13,0,13,0,0,2,2,2,,,,,,,space,0.385809898376,,,,,2017_Jan_25_1602,59.5189165334,spr_backupper,001,Sa16,
,aus,wissen,große,schnell,Liter,stand,Fleischs,hat,las,wurde,die,kleinere,wurde,des,"sporadisch,",die,Liter,gehören,aus,auf,gehören,kann,Zuckers,Mann,werden,Berge,Masse,beschuldigten,Auto,Kleidung,wieder,durch,Mond,große,Fleisch,mit,des,Leinwand,Dänemark,rote,hält,unter,kann,durch,"sporadisch,",Menge,Kleidung,kleinere,260.000,Zucker,kann,überwiegend,die,mit,Menge,wurden,mit,Hemd,der,mit,dem,wir,260.000,wieder,königliches,dem,mit,roter,dann,Berge,kann,wir,gedachte,können,wissen,Lust,königlichen,Größe,schon,Masse,gedachte,der,mit,er,der,habe,beteiligten,die,Größe,bei,mit,Erlebnisse,"unterging,",Lust,stand,Dänemark,beteiligter,beschuldigten,,,,,,,,,,,,,,,,,,,,,,,13,0,13,0,0,3,3,3,,,,,,,space,0.486764907837,,,,,2017_Jan_25_1602,59.5189165334,spr_backupper,001,Sa16,
,"Japan,",wir,Packung,dank,sprudelndes,ein,wurden,uns,ich,schon,Wohnung,"Delikte,",jetzt,bekannten,obwohl,Wohnung,sprudelnden,immer,"wertvollem,",warmem,immer,man,sind,das,die,schmutzige,mit,die,dem,landen,viel,Büschel,dauerte,Packung,wurden,"minimalem,",schönen,aus,gelegentlich,Farbe,nicht,"regelmäßigem,",ich,Büschel,obschon,alten,landen,"Delikte,",Kilowattstunden,sind,man,"nicht,",richtige,solchen,alten,mit,"üblichem,",aus,Stadt,"reichlichem,",bekannten,den,Kilowattstunden,viel,Blut,schönen,"sämtlichem,",Farbe,mit,schmutziger,ich,den,man,Neuwahlen,wir,auf,Bluts,36,bei,mit,man,vierte,dauerhaftem,"trug,",Stadt,ich,Fahrer,Stimmung,36,ausreichendem,solch,bei,war,auf,ein,einen,Fahrer,die,,,,,,,,,,,,,,,,,,,,,,,13,0,13,0,0,4,4,4,,,,,,,space,0.403679132462,,,,,2017_Jan_25_1602,59.5189165334,spr_backupper,001,Sa16,
