modelPred,target,sent2,gender,sent1,corrAns,intros.thisRepN,intros.thisTrialN,intros.thisN,intros.thisIndex,testsaetze.thisRepN,testsaetze.thisTrialN,testsaetze.thisN,testsaetze.thisIndex,trials.thisRepN,trials.thisTrialN,trials.thisN,trials.thisIndex,deutschnativ.keys,deutschnativ.corr,deutschnativ.rt,reaction_2.keys,reaction_2.corr,reaction_2.rt,reaction.keys,reaction.corr,reaction.rt,date,frameRate,expName,session,participant,
,,,,,,,,,,,,,,,,,,d,0,6.85794401169,,,,,,,2017_Jan_19_1401,59.8110541184,2afc,001,Do14,
x,0,"Es hat uns die Stimmung ziemlich vermiest, dass es regnete.",x,"Dass es regnete, hat uns die Stimmung ziemlich vermiest.",x,,,,,0,0,0,2,,,,,,,,j,0,10.6322159767,,,,2017_Jan_19_1401,59.8110541184,2afc,001,Do14,
x,0,In meinem Studium habe ich mehr als einmal Rilke gelesen.,x,In meinem Studium las ich mehr als einmal Rilke.,x,,,,,0,1,1,1,,,,,,,,j,0,7.93210101128,,,,2017_Jan_19_1401,59.8110541184,2afc,001,Do14,
x,0,Wir übergaben das Auto dem Mann mehr als gerne.,x,Wir übergaben dem Mann das Auto mehr als gerne.,x,,,,,0,2,2,0,,,,,,,,f,0,10.6994450092,,,,2017_Jan_19_1401,59.8110541184,2afc,001,Do14,
x,0,"Die Uhr, die er trug, war aus Japan.",x,"Die Uhr war aus Japan, die er trug.",x,,,,,0,3,3,3,,,,,,,,j,0,3.53784894943,,,,2017_Jan_19_1401,59.8110541184,2afc,001,Do14,
x,0,"Die Uhr, die er trug, war aus Japan.",x,"Die Uhr war aus Japan, die er trug.",x,,,,,,,,,0,0,0,37,,,,,,,j,0,4.41055107117,2017_Jan_19_1401,59.8110541184,2afc,001,Do14,
x,0,Wir hatten in Dänemark einen gelegentlichen Besucher.,x,Wir hatten in Dänemark gelegentlich einen Besucher.,x,,,,,,,,,0,1,1,24,,,,,,,f,0,5.8356180191,2017_Jan_19_1401,59.8110541184,2afc,001,Do14,
x,0,In der Tat wissen wir von den Problemen im Landkreis.,x,In der Tat wissen wir um die Probleme im Landkreis.,x,,,,,,,,,0,2,2,22,,,,,,,j,0,12.1414530277,2017_Jan_19_1401,59.8110541184,2afc,001,Do14,
level,1,100g brauner Zucker sind auf jeden Fall genug.,mn,100g braunen Zuckers sind auf jeden Fall genug.,r,,,,,,,,,0,3,3,0,,,,,,,j,0,8.30090689659,2017_Jan_19_1401,59.8110541184,2afc,001,Do14,
x,0,Außer den Bürgermeister beschuldigten die Störenfriede jeden.,x,Außer dem Bürgermeister beschuldigten die Störenfriede jeden.,x,,,,,,,,,0,4,4,33,,,,,,,f,0,10.3466050625,2017_Jan_19_1401,59.8110541184,2afc,001,Do14,
drop,1,Wir mussten uns durch Büschel frisches Gras zwängen.,mn,Wir mussten uns durch Büschel frischen Grases zwängen.,l,,,,,,,,,0,5,5,4,,,,,,,f,0,12.3089849949,2017_Jan_19_1401,59.8110541184,2afc,001,Do14,
x,0,Sie verlassen wegen des schönen Wetters die Wohnung.,x,Sie verlassen wegen dem schönen Wetter die Wohnung.,x,,,,,,,,,0,6,6,19,,,,,,,j,0,5.4000980854,2017_Jan_19_1401,59.8110541184,2afc,001,Do14,
level,1,Die Schule verbraucht 260.000 Kilowattstunden elektrische Energie.,fem,Die Schule verbraucht 260.000 Kilowattstunden elektrischer Energie.,r,,,,,,,,,0,7,7,10,,,,,,,f,0,9.87748384476,2017_Jan_19_1401,59.8110541184,2afc,001,Do14,
x,0,Die Kinder fuhren mit solchen unzureichenden Helmen zur Schule.,x,Die Kinder fuhren mit solch unzureichenden Helmen zur Schule.,x,,,,,,,,,0,8,8,29,,,,,,,f,0,10.6655519009,2017_Jan_19_1401,59.8110541184,2afc,001,Do14,
x,0,Das würde gepasst haben.,x,Das hätte gepasst.,x,,,,,,,,,0,9,9,21,,,,,,,f,0,2.39812302589,2017_Jan_19_1401,59.8110541184,2afc,001,Do14,
x,0,Bei der Feier gedachte man der Soldaten des zweiten Weltkriegs.,x,Bei der Feier gedachte man den Soldaten des zweiten Weltkriegs.,x,,,,,,,,,0,10,10,17,,,,,,,j,0,8.41861796379,2017_Jan_19_1401,59.8110541184,2afc,001,Do14,
level,1,Er stellt die Masse mit einem Esslöffel warmen Honigs her.,mn,Er stellt die Masse mit einem Esslöffel warmem Honig her.,l,,,,,,,,,0,11,11,3,,,,,,,j,0,12.5609719753,2017_Jan_19_1401,59.8110541184,2afc,001,Do14,
x,0,Er wurde trotz des bekannten Skandal wiedergewählt.,x,Er wurde trotz dem bekannten Skandal wiedergewählt.,x,,,,,,,,,0,12,12,16,,,,,,,j,0,4.46159315109,2017_Jan_19_1401,59.8110541184,2afc,001,Do14,
drop,1,Beträchtliche Stücke saftiges Fleisch wurden serviert.,mn,Beträchtliche Stücke saftigen Fleischs wurden serviert.,l,,,,,,,,,0,13,13,6,,,,,,,j,0,7.83145403862,2017_Jan_19_1401,59.8110541184,2afc,001,Do14,
x,0,Außer dem Essen kann ich leider nichts mitbringen.,x,Außer das Essen kann ich leider nichts mitbringen.,x,,,,,,,,,0,14,14,32,,,,,,,j,0,10.263201952,2017_Jan_19_1401,59.8110541184,2afc,001,Do14,
level,1,Sie verbrauchen 60 Liter sprudelnden Trinkwassers.,mn,Sie verbrauchen 60 Liter sprudelndes Trinkwasser.,l,,,,,,,,,0,15,15,1,,,,,,,j,0,5.11527395248,2017_Jan_19_1401,59.8110541184,2afc,001,Do14,
level,1,Wir haben jede Menge alten Kram aus dem Haus geschafft.,mn,Wir haben jede Menge alten Krams aus dem Haus geschafft.,r,,,,,,,,,0,16,16,2,,,,,,,j,0,4.96466088295,2017_Jan_19_1401,59.8110541184,2afc,001,Do14,
x,0,Im Fernrohr sahen wir den roten Planeten ganz deutlich.,x,Im Fernrohr sahen wir den roten Planet ganz deutlich.,x,,,,,,,,,0,17,17,26,,,,,,,j,0,23.9641880989,2017_Jan_19_1401,59.8110541184,2afc,001,Do14,
level,1,Man machte mal wieder viel Lärm um jede Menge heißer Luft.,fem,Man machte mal wieder viel Lärm um jede Menge heiße Luft.,l,,,,,,,,,0,18,18,11,,,,,,,j,0,8.08309197426,2017_Jan_19_1401,59.8110541184,2afc,001,Do14,
drop,1,Es wurden Eimer roter Farbe geschleudert.,fem,Es wurden Eimer rote Farbe geschleudert.,r,,,,,,,,,0,19,19,15,,,,,,,j,0,3.92412996292,2017_Jan_19_1401,59.8110541184,2afc,001,Do14,
drop,1,Viele Tonnen gebrauchte Kleidung landen im Müll.,fem,Viele Tonnen gebrauchter Kleidung landen im Müll.,l,,,,,,,,,0,20,20,14,,,,,,,j,0,7.0089609623,2017_Jan_19_1401,59.8110541184,2afc,001,Do14,
level,1,In den Kakao gehören immer 350ml warme Milch.,fem,In den Kakao gehören immer 350ml warmer Milch.,r,,,,,,,,,0,21,21,8,,,,,,,j,0,5.86977577209,2017_Jan_19_1401,59.8110541184,2afc,001,Do14,
x,0,Unter wildem ausgelassenem Gegröle randalierten wieder die Abiturienten.,x,Unter wildem ausgelassenen Gegröle randalierten wieder die Abiturienten.,x,,,,,,,,,0,22,22,27,,,,,,,f,0,11.0182759762,2017_Jan_19_1401,59.8110541184,2afc,001,Do14,
x,0,Mit heißem leckerem Tee wärmten wir uns auf.,x,Mit heißem leckeren Tee wärmten wir uns auf.,x,,,,,,,,,0,23,23,18,,,,,,,j,0,7.88178277016,2017_Jan_19_1401,59.8110541184,2afc,001,Do14,
x,0,Wir übergaben das Auto dem Mann mehr als gerne.,x,Wir übergaben dem Mann das Auto mehr als gerne.,x,,,,,,,,,0,24,24,34,,,,,,,f,0,7.39490008354,2017_Jan_19_1401,59.8110541184,2afc,001,Do14,
x,0,Sie hatte keine Lust auf noch eine Sammlung dumme Sprüche.,x,Sie hatte keine Lust auf noch eine Sammlung dummer Sprüche.,x,,,,,,,,,0,25,25,30,,,,,,,f,0,4.81340503693,2017_Jan_19_1401,59.8110541184,2afc,001,Do14,
x,0,Am äußersten Rand der Stadt liegen die Slums.,x,Am äußeren Rand der Stadt liegen die Slums.,x,,,,,,,,,0,26,26,23,,,,,,,f,0,7.69753098488,2017_Jan_19_1401,59.8110541184,2afc,001,Do14,
x,0,Die Autos beider beteiligten Fahrer wurden verschrottet.,x,Die Autos beider beteiligter Fahrer wurden verschrottet.,x,,,,,,,,,0,27,27,28,,,,,,,j,0,4.94775605202,2017_Jan_19_1401,59.8110541184,2afc,001,Do14,
x,0,In meinem Studium habe ich mehr als einmal Rilke gelesen.,x,In meinem Studium las ich mehr als einmal Rilke.,x,,,,,,,,,0,28,28,35,,,,,,,j,0,5.40067195892,2017_Jan_19_1401,59.8110541184,2afc,001,Do14,
level,1,Ich nehme eine große Packung salziger Wurst mit an den See.,fem,Ich nehme eine große Packung salzige Wurst mit an den See.,l,,,,,,,,,0,29,29,9,,,,,,,j,0,14.7734789848,2017_Jan_19_1401,59.8110541184,2afc,001,Do14,
drop,1,Nicht ein Tropfen königlichen Bluts hat den Boden berührt.,mn,Nicht ein Tropfen königliches Blut hat den Boden berührt.,r,,,,,,,,,0,30,30,5,,,,,,,j,0,6.72578907013,2017_Jan_19_1401,59.8110541184,2afc,001,Do14,
drop,1,Bei unserer Ankunft stand ein Glas köstlichen Weins schon auf dem Tisch.,mn,Bei unserer Ankunft stand ein Glas köstlicher Wein schon auf dem Tisch.,r,,,,,,,,,0,31,31,7,,,,,,,j,0,4.27638506889,2017_Jan_19_1401,59.8110541184,2afc,001,Do14,
x,0,"Die Uhr schlug sporadisch, obwohl sie defekt war.",x,"Die Uhr schlug sporadisch, obschon sie defekt war.",x,,,,,,,,,0,32,32,38,,,,,,,j,0,4.76337504387,2017_Jan_19_1401,59.8110541184,2afc,001,Do14,
x,0,"Es waren nur kleinere Delikte, derer sie überführt wurden.",x,"Es waren nur kleinere Delikte, deren sie überführt wurden.",x,,,,,,,,,0,33,33,31,,,,,,,j,0,7.71406888962,2017_Jan_19_1401,59.8110541184,2afc,001,Do14,
x,0,Die Gäste suchen die Wohnung des Herrn Gantenbeins.,x,Die Gäste suchen die Wohnung des Herrn Gantenbein.,x,,,,,,,,,0,34,34,20,,,,,,,f,0,13.030850172,2017_Jan_19_1401,59.8110541184,2afc,001,Do14,
drop,1,Mit dieser Methode kann man eine große Menge dunkle Materie erzeugen.,fem,Mit dieser Methode kann man eine große Menge dunkler Materie erzeugen.,l,,,,,,,,,0,35,35,12,,,,,,,f,0,6.40572810173,2017_Jan_19_1401,59.8110541184,2afc,001,Do14,
x,0,Die Stimmung stieg dank wunderbarem roten Wein.,x,Die Stimmung stieg dank wunderbarem rotem Wein.,x,,,,,,,,,0,36,36,25,,,,,,,j,0,6.47373604774,2017_Jan_19_1401,59.8110541184,2afc,001,Do14,
drop,1,Dort türmen sich Berge schmutziger Wäsche.,fem,Dort türmen sich Berge schmutzige Wäsche.,r,,,,,,,,,0,37,37,13,,,,,,,j,0,3.9748108387,2017_Jan_19_1401,59.8110541184,2afc,001,Do14,
x,0,"Es hat uns die Stimmung ziemlich vermiest, dass es regnete.",x,"Dass es regnete, hat uns die Stimmung ziemlich vermiest.",x,,,,,,,,,0,38,38,36,,,,,,,j,0,4.3604362011,2017_Jan_19_1401,59.8110541184,2afc,001,Do14,
